"","subject","statement_identifier","procedure_identifier","within_identifier","between_identifier","response","repeated","rt","trial"
"1",1,1,"Phase1",1,1,5,0,1.229,6
"2",1,2,"Phase1",1,1,4,1,4.625,7
"3",1,3,"Phase1",1,1,2,0,2.181,8
"4",1,4,"Phase1",1,1,3,1,1.227,9
"5",1,5,"Phase1",1,1,5,1,1.521,10
"6",1,6,"Phase1",1,1,4,0,0.608,11
"7",1,7,"Phase1",1,1,4,1,1.519,12
"8",1,8,"Phase1",1,1,4,0,0.549,13
"9",1,9,"Phase1",1,1,3,0,2.073,14
"10",1,10,"Phase1",1,1,2,0,0.959,15
"11",1,11,"Phase1",1,1,4,0,2.683,16
"12",1,12,"Phase1",1,1,4,1,3.141,17
"13",1,13,"Phase1",1,1,4,1,1.445,18
"14",1,14,"Phase1",1,1,5,0,1.305,19
"15",1,15,"Phase1",1,1,3,1,1.6,20
"16",1,16,"Phase1",1,1,3,0,3.353,21
"17",1,17,"Phase1",1,1,4,1,1.269,22
"18",1,18,"Phase1",1,1,5,1,0.996,23
"19",1,19,"Phase1",1,1,3,0,1.049,24
"20",1,20,"Phase1",1,1,1,1,2.371,25
"21",1,21,"Phase1",1,1,3,0,2.141,26
"22",1,22,"Phase1",1,1,3,0,1.115,27
"23",1,23,"Phase1",1,1,3,1,0.95,28
"24",1,24,"Phase1",1,1,4,0,0.97,29
"25",1,25,"Phase1",1,1,4,1,1.09,30
"26",1,26,"Phase1",1,1,4,0,0.727,31
"27",1,27,"Phase1",1,1,2,0,1.501,32
"28",1,28,"Phase1",1,1,5,0,0.639,33
"29",1,29,"Phase1",1,1,5,1,2.438,34
"30",1,30,"Phase1",1,1,4,0,2.435,35
"31",1,31,"Phase1",1,1,5,0,0.766,36
"32",1,32,"Phase1",1,1,1,1,4.455,37
"33",1,33,"Phase1",1,1,3,1,1.637,38
"34",1,34,"Phase1",1,1,5,0,1.07,39
"35",1,35,"Phase1",1,1,4,0,1.161,40
"36",1,36,"Phase1",1,1,3,1,2.813,41
"37",1,37,"Phase1",1,1,6,1,0.822,42
"38",1,38,"Phase1",1,1,3,0,0.62,43
"39",1,39,"Phase1",1,1,4,1,0.681,44
"40",1,40,"Phase1",1,1,5,0,1.702,45
"41",1,41,"Phase1",1,1,2,1,1.885,46
"42",1,42,"Phase1",1,1,3,0,3.066,47
"43",1,43,"Phase1",1,1,5,1,1.841,48
"44",1,44,"Phase1",1,1,5,1,3.903,49
"45",1,45,"Phase1",1,1,4,1,3.051,50
"46",1,46,"Phase1",1,1,5,1,2.252,51
"47",1,47,"Phase1",1,1,3,0,1.448,52
"48",1,48,"Phase1",1,1,3,0,7.453,53
"49",1,49,"Phase1",1,1,3,0,0.751,54
"50",1,50,"Phase1",1,1,5,0,2.096,55
"51",1,51,"Phase1",1,1,5,1,0.956,56
"52",1,52,"Phase1",1,1,5,1,1.41,57
"53",1,53,"Phase1",1,1,5,1,0.824,58
"54",1,54,"Phase1",1,1,5,0,0.642,59
"55",1,55,"Phase1",1,1,2,1,1.167,60
"56",1,56,"Phase1",1,1,5,0,5.62,61
"57",1,57,"Phase1",1,1,3,1,0.95,62
"58",1,58,"Phase1",1,1,2,1,1.723,63
"59",1,59,"Phase1",1,1,3,0,1.033,64
"60",1,60,"Phase1",1,1,3,1,1.614,65
"61",1,61,"Phase1",1,1,4,1,0.912,66
"62",1,62,"Phase1",1,1,6,1,1.183,67
"63",1,63,"Phase1",1,1,3,0,1.676,68
"64",1,64,"Phase1",1,1,3,0,0.872,69
"65",1,65,"Phase1",1,1,2,1,1.286,70
"66",1,66,"Phase1",1,1,4,0,0.917,71
"67",1,67,"Phase1",1,1,2,0,1.514,72
"68",1,68,"Phase1",1,1,2,1,0.685,73
"69",1,69,"Phase1",1,1,4,0,1.385,74
"70",1,70,"Phase1",1,1,2,0,1.266,75
"71",1,71,"Phase1",1,1,2,0,1.733,76
"72",1,72,"Phase1",1,1,5,1,1.73,77
"73",1,73,"Phase1",1,1,5,0,0.929,78
"74",1,74,"Phase1",1,1,4,1,1.194,79
"75",1,75,"Phase1",1,1,2,1,0.8,80
"76",1,76,"Phase1",1,1,2,1,0.857,81
"77",1,77,"Phase1",1,1,5,1,0.922,82
"78",1,78,"Phase1",1,1,5,1,1.267,83
"79",1,79,"Phase1",1,1,2,0,1.334,84
"80",1,80,"Phase1",1,1,5,0,0.703,85
"81",1,81,"Phase1",1,1,3,0,2.092,86
"82",1,82,"Phase1",1,1,3,0,0.817,87
"83",1,83,"Phase1",1,1,4,1,5.327,88
"84",1,84,"Phase1",1,1,3,0,0.971,89
"85",1,85,"Phase1",1,1,4,1,0.512,90
"86",1,86,"Phase1",1,1,2,0,0.852,91
"87",1,87,"Phase1",1,1,5,1,1.011,92
"88",1,88,"Phase1",1,1,1,1,3.903,93
"89",1,89,"Phase2",1,1,4,0,1.94,191
"90",1,25,"Phase2",1,1,3,1,0.809,192
"91",1,90,"Phase2",1,1,1,0,0.706,193
"92",1,39,"Phase2",1,1,4,1,0.521,194
"93",1,91,"Phase2",1,1,3,0,1.066,195
"94",1,92,"Phase2",1,1,4,0,0.461,196
"95",1,20,"Phase2",1,1,3,1,0.508,197
"96",1,18,"Phase2",1,1,4,1,0.515,198
"97",1,93,"Phase2",1,1,3,0,0.731,199
"98",1,37,"Phase2",1,1,5,1,0.643,200
"99",1,23,"Phase2",1,1,2,1,2.23,201
"100",1,94,"Phase2",1,1,5,0,0.54,202
"101",1,68,"Phase2",1,1,3,1,0.811,203
"102",1,4,"Phase2",1,1,3,1,0.66,204
"103",1,58,"Phase2",1,1,5,1,1.008,205
"104",1,88,"Phase2",1,1,2,1,0.663,206
"105",1,53,"Phase2",1,1,5,1,0.824,207
"106",1,95,"Phase2",1,1,3,0,1.769,208
"107",1,96,"Phase2",1,1,2,0,0.813,209
"108",1,61,"Phase2",1,1,4,1,0.69,210
"109",1,75,"Phase2",1,1,3,1,0.797,211
"110",1,72,"Phase2",1,1,5,1,0.592,212
"111",1,41,"Phase2",1,1,2,1,0.663,213
"112",1,52,"Phase2",1,1,4,1,0.463,214
"113",1,12,"Phase2",1,1,4,1,0.688,215
"114",1,45,"Phase2",1,1,4,1,0.63,216
"115",1,97,"Phase2",1,1,4,0,0.639,217
"116",1,55,"Phase2",1,1,3,1,0.663,218
"117",1,83,"Phase2",1,1,3,1,0.962,219
"118",1,98,"Phase2",1,1,4,0,0.483,220
"119",1,99,"Phase2",1,1,5,0,1.131,221
"120",1,100,"Phase2",1,1,4,0,0.554,222
"121",1,101,"Phase2",1,1,1,0,1.266,223
"122",1,33,"Phase2",1,1,3,1,0.692,224
"123",1,102,"Phase2",1,1,2,0,2.045,225
"124",1,46,"Phase2",1,1,4,1,0.79,226
"125",1,103,"Phase2",1,1,3,0,0.889,227
"126",1,104,"Phase2",1,1,2,0,0.899,228
"127",1,60,"Phase2",1,1,2,1,1.713,229
"128",1,87,"Phase2",1,1,4,1,0.577,230
"129",1,2,"Phase2",1,1,4,1,1.044,231
"130",1,105,"Phase2",1,1,3,0,4.329,232
"131",1,78,"Phase2",1,1,4,1,0.54,233
"132",1,29,"Phase2",1,1,4,1,1.957,234
"133",1,106,"Phase2",1,1,3,0,0.746,235
"134",1,107,"Phase2",1,1,4,0,1.041,236
"135",1,108,"Phase2",1,1,5,0,1.563,237
"136",1,109,"Phase2",1,1,3,0,1.393,238
"137",1,110,"Phase2",1,1,2,0,1.436,239
"138",1,111,"Phase2",1,1,2,0,0.717,240
"139",1,32,"Phase2",1,1,1,1,3.526,241
"140",1,112,"Phase2",1,1,4,0,1.051,242
"141",1,15,"Phase2",1,1,3,1,0.529,243
"142",1,43,"Phase2",1,1,5,1,0.641,244
"143",1,113,"Phase2",1,1,5,0,0.595,245
"144",1,36,"Phase2",1,1,3,1,0.738,246
"145",1,114,"Phase2",1,1,2,0,4.412,247
"146",1,115,"Phase2",1,1,2,0,1.81,248
"147",1,116,"Phase2",1,1,5,0,0.562,249
"148",1,76,"Phase2",1,1,3,1,1.037,250
"149",1,117,"Phase2",1,1,5,0,1.603,251
"150",1,62,"Phase2",1,1,2,1,0.566,252
"151",1,85,"Phase2",1,1,5,1,1.074,253
"152",1,7,"Phase2",1,1,2,1,0.829,254
"153",1,118,"Phase2",1,1,5,0,5.878,255
"154",1,119,"Phase2",1,1,5,0,1.544,256
"155",1,120,"Phase2",1,1,4,0,1.02,257
"156",1,121,"Phase2",1,1,5,0,0.598,258
"157",1,122,"Phase2",1,1,5,0,0.933,259
"158",1,17,"Phase2",1,1,4,1,0.571,260
"159",1,123,"Phase2",1,1,5,0,0.552,261
"160",1,124,"Phase2",1,1,5,0,0.617,262
"161",1,77,"Phase2",1,1,4,1,0.594,263
"162",1,13,"Phase2",1,1,5,1,0.977,264
"163",1,74,"Phase2",1,1,4,1,0.465,265
"164",1,51,"Phase2",1,1,5,1,0.661,266
"165",1,125,"Phase2",1,1,3,0,2.001,267
"166",1,57,"Phase2",1,1,3,1,0.506,268
"167",1,44,"Phase2",1,1,5,1,0.848,269
"168",1,126,"Phase2",1,1,1,0,2.325,270
"169",1,127,"Phase2",1,1,3,0,0.512,271
"170",1,128,"Phase2",1,1,5,0,1.215,272
"171",1,129,"Phase2",1,1,3,0,1.199,273
"172",1,5,"Phase2",1,1,4,1,1.322,274
"173",1,65,"Phase2",1,1,2,1,0.62,275
"174",1,130,"Phase2",1,1,4,0,0.465,276
"175",1,131,"Phase2",1,1,3,0,1.096,277
"176",1,132,"Phase2",1,1,3,0,0.723,278
"177",2,48,"Phase1",1,1,3,1,2.027,6
"178",2,119,"Phase1",1,1,3,0,25.794,7
"179",2,6,"Phase1",1,1,3,1,7.584,8
"180",2,111,"Phase1",1,1,5,0,2.123,9
"181",2,10,"Phase1",1,1,4,1,1.407,10
"182",2,67,"Phase1",1,1,6,1,1.556,11
"183",2,112,"Phase1",1,1,5,0,0.81,12
"184",2,19,"Phase1",1,1,5,1,2.848,13
"185",2,66,"Phase1",1,1,4,1,1.779,14
"186",2,98,"Phase1",1,1,3,0,1.7,15
"187",2,26,"Phase1",1,1,5,1,0.818,16
"188",2,114,"Phase1",1,1,3,0,11.568,17
"189",2,40,"Phase1",1,1,3,1,3.987,18
"190",2,89,"Phase1",1,1,5,0,0.917,19
"191",2,110,"Phase1",1,1,3,0,17.518,20
"192",2,122,"Phase1",1,1,5,0,1.582,21
"193",2,109,"Phase1",1,1,4,0,10.003,22
"194",2,1,"Phase1",1,1,5,1,0.992,23
"195",2,127,"Phase1",1,1,5,0,1.864,24
"196",2,104,"Phase1",1,1,3,0,1.514,25
"197",2,108,"Phase1",1,1,5,0,1.019,26
"198",2,24,"Phase1",1,1,4,1,2.791,27
"199",2,9,"Phase1",1,1,4,1,2.558,28
"200",2,22,"Phase1",1,1,3,1,6.049,29
"201",2,3,"Phase1",1,1,5,1,7.43,30
"202",2,93,"Phase1",1,1,4,0,0.881,31
"203",2,63,"Phase1",1,1,4,1,0.76,32
"204",2,31,"Phase1",1,1,5,1,1.087,33
"205",2,115,"Phase1",1,1,4,0,3.598,34
"206",2,27,"Phase1",1,1,4,1,9.074,35
"207",2,95,"Phase1",1,1,3,0,3.876,36
"208",2,80,"Phase1",1,1,5,1,0.775,37
"209",2,124,"Phase1",1,1,4,0,3.71,38
"210",2,69,"Phase1",1,1,3,1,6.961,39
"211",2,64,"Phase1",1,1,5,1,3.245,40
"212",2,130,"Phase1",1,1,4,0,0.72,41
"213",2,11,"Phase1",1,1,3,1,2.715,42
"214",2,132,"Phase1",1,1,2,0,4.985,43
"215",2,121,"Phase1",1,1,4,0,3.218,44
"216",2,56,"Phase1",1,1,2,1,2.389,45
"217",2,106,"Phase1",1,1,5,0,0.985,46
"218",2,107,"Phase1",1,1,5,0,1.013,47
"219",2,50,"Phase1",1,1,4,1,3.109,48
"220",2,97,"Phase1",1,1,2,0,3.197,49
"221",2,16,"Phase1",1,1,3,1,5.154,50
"222",2,86,"Phase1",1,1,4,1,2.812,51
"223",2,90,"Phase1",1,1,4,0,7.705,52
"224",2,34,"Phase1",1,1,4,1,2.125,53
"225",2,100,"Phase1",1,1,4,0,1.124,54
"226",2,101,"Phase1",1,1,3,0,5.117,55
"227",2,92,"Phase1",1,1,3,0,4.159,56
"228",2,116,"Phase1",1,1,2,0,5.896,57
"229",2,105,"Phase1",1,1,3,0,4.702,58
"230",2,59,"Phase1",1,1,5,1,2.878,59
"231",2,21,"Phase1",1,1,4,1,1.544,60
"232",2,42,"Phase1",1,1,3,1,15.013,61
"233",2,126,"Phase1",1,1,3,0,6.505,62
"234",2,38,"Phase1",1,1,4,1,0.957,63
"235",2,117,"Phase1",1,1,4,0,9.047,64
"236",2,28,"Phase1",1,1,5,1,0.878,65
"237",2,125,"Phase1",1,1,4,0,1.327,66
"238",2,129,"Phase1",1,1,3,0,1.067,67
"239",2,99,"Phase1",1,1,4,0,2.952,68
"240",2,47,"Phase1",1,1,5,1,1.107,69
"241",2,103,"Phase1",1,1,4,0,1.902,70
"242",2,49,"Phase1",1,1,4,1,1.588,71
"243",2,71,"Phase1",1,1,3,1,4.589,72
"244",2,128,"Phase1",1,1,4,0,3.133,73
"245",2,96,"Phase1",1,1,5,0,2.887,74
"246",2,131,"Phase1",1,1,3,0,4.691,75
"247",2,123,"Phase1",1,1,3,0,6.454,76
"248",2,81,"Phase1",1,1,3,1,3.089,77
"249",2,118,"Phase1",1,1,2,0,14.059,78
"250",2,91,"Phase1",1,1,4,0,3.845,79
"251",2,94,"Phase1",1,1,4,0,3.665,80
"252",2,35,"Phase1",1,1,2,1,0.854,81
"253",2,30,"Phase1",1,1,4,1,1.843,82
"254",2,79,"Phase1",1,1,2,1,8.723,83
"255",2,82,"Phase1",1,1,4,1,1.682,84
"256",2,120,"Phase1",1,1,3,0,10.168,85
"257",2,73,"Phase1",1,1,4,1,4.775,86
"258",2,70,"Phase1",1,1,4,1,2.739,87
"259",2,102,"Phase1",1,1,2,0,4.605,88
"260",2,84,"Phase1",1,1,3,1,3.549,89
"261",2,113,"Phase1",1,1,4,0,4.014,90
"262",2,54,"Phase1",1,1,3,1,3.912,91
"263",2,8,"Phase1",1,1,3,1,4.031,92
"264",2,14,"Phase1",1,1,4,1,1.052,93
"265",2,72,"Phase2",1,1,4,0,1.497,191
"266",2,55,"Phase2",1,1,4,0,3.557,192
"267",2,19,"Phase2",1,1,4,1,1.517,193
"268",2,63,"Phase2",1,1,4,1,0.993,194
"269",2,30,"Phase2",1,1,3,1,1.101,195
"270",2,14,"Phase2",1,1,4,1,0.756,196
"271",2,58,"Phase2",1,1,3,0,0.978,197
"272",2,28,"Phase2",1,1,4,1,1.134,198
"273",2,50,"Phase2",1,1,3,1,0.794,199
"274",2,43,"Phase2",1,1,3,0,2.23,200
"275",2,82,"Phase2",1,1,4,1,0.808,201
"276",2,44,"Phase2",1,1,4,0,2.722,202
"277",2,34,"Phase2",1,1,4,1,0.789,203
"278",2,47,"Phase2",1,1,5,1,0.75,204
"279",2,46,"Phase2",1,1,4,0,1.362,205
"280",2,49,"Phase2",1,1,4,1,0.792,206
"281",2,24,"Phase2",1,1,3,1,0.903,207
"282",2,27,"Phase2",1,1,3,1,0.926,208
"283",2,66,"Phase2",1,1,4,1,0.984,209
"284",2,73,"Phase2",1,1,4,1,0.743,210
"285",2,64,"Phase2",1,1,4,1,1.085,211
"286",2,17,"Phase2",1,1,5,0,0.962,212
"287",2,37,"Phase2",1,1,6,0,3.92,213
"288",2,3,"Phase2",1,1,4,1,0.685,214
"289",2,39,"Phase2",1,1,3,0,0.61,215
"290",2,52,"Phase2",1,1,3,0,2.322,216
"291",2,80,"Phase2",1,1,4,1,0.849,217
"292",2,51,"Phase2",1,1,3,0,3.538,218
"293",2,57,"Phase2",1,1,3,0,1.311,219
"294",2,74,"Phase2",1,1,3,0,1.04,220
"295",2,11,"Phase2",1,1,3,1,0.789,221
"296",2,4,"Phase2",1,1,3,0,1.712,222
"297",2,35,"Phase2",1,1,2,1,2.319,223
"298",2,65,"Phase2",1,1,1,0,2.357,224
"299",2,75,"Phase2",1,1,3,0,4.893,225
"300",2,5,"Phase2",1,1,3,0,5.603,226
"301",2,31,"Phase2",1,1,5,1,0.742,227
"302",2,10,"Phase2",1,1,4,1,0.707,228
"303",2,69,"Phase2",1,1,3,1,0.892,229
"304",2,18,"Phase2",1,1,5,0,3.483,230
"305",2,45,"Phase2",1,1,3,0,5.804,231
"306",2,81,"Phase2",1,1,3,1,0.777,232
"307",2,68,"Phase2",1,1,4,0,1.354,233
"308",2,9,"Phase2",1,1,4,1,2.051,234
"309",2,67,"Phase2",1,1,6,1,1.256,235
"310",2,29,"Phase2",1,1,4,0,1.203,236
"311",2,36,"Phase2",1,1,3,0,2.119,237
"312",2,6,"Phase2",1,1,3,1,0.695,238
"313",2,42,"Phase2",1,1,3,1,0.739,239
"314",2,8,"Phase2",1,1,3,1,1.49,240
"315",2,79,"Phase2",1,1,3,1,1.377,241
"316",2,15,"Phase2",1,1,3,0,4.201,242
"317",2,13,"Phase2",1,1,4,0,0.674,243
"318",2,59,"Phase2",1,1,4,1,0.8,244
"319",2,1,"Phase2",1,1,5,1,0.764,245
"320",2,26,"Phase2",1,1,5,1,1.781,246
"321",2,40,"Phase2",1,1,3,1,0.735,247
"322",2,88,"Phase2",1,1,4,0,4.09,248
"323",2,7,"Phase2",1,1,4,0,0.888,249
"324",2,54,"Phase2",1,1,3,1,0.863,250
"325",2,70,"Phase2",1,1,3,1,0.934,251
"326",2,84,"Phase2",1,1,3,1,0.917,252
"327",2,56,"Phase2",1,1,2,1,0.904,253
"328",2,41,"Phase2",1,1,3,0,0.676,254
"329",2,38,"Phase2",1,1,4,1,0.774,255
"330",2,71,"Phase2",1,1,3,1,0.841,256
"331",2,12,"Phase2",1,1,3,0,1.267,257
"332",2,85,"Phase2",1,1,3,0,0.73,258
"333",2,48,"Phase2",1,1,4,1,1.68,259
"334",2,25,"Phase2",1,1,4,0,1.845,260
"335",2,21,"Phase2",1,1,4,1,0.737,261
"336",2,61,"Phase2",1,1,3,0,0.849,262
"337",2,20,"Phase2",1,1,4,0,0.654,263
"338",2,77,"Phase2",1,1,3,0,0.674,264
"339",2,83,"Phase2",1,1,4,0,2.836,265
"340",2,16,"Phase2",1,1,3,1,0.663,266
"341",2,60,"Phase2",1,1,3,0,1.035,267
"342",2,86,"Phase2",1,1,4,1,0.754,268
"343",2,2,"Phase2",1,1,2,0,0.87,269
"344",2,22,"Phase2",1,1,4,1,0.77,270
"345",2,32,"Phase2",1,1,4,0,7.065,271
"346",2,87,"Phase2",1,1,4,0,1.243,272
"347",2,62,"Phase2",1,1,3,0,1.157,273
"348",2,76,"Phase2",1,1,3,0,0.732,274
"349",2,78,"Phase2",1,1,3,0,1.016,275
"350",2,23,"Phase2",1,1,3,0,1.29,276
"351",2,33,"Phase2",1,1,3,0,0.788,277
"352",2,53,"Phase2",1,1,3,0,2.346,278
"353",3,110,"Phase1",1,1,3,1,3.527,6
"354",3,85,"Phase1",1,1,4,0,3.05,7
"355",3,95,"Phase1",1,1,2,1,5.465,8
"356",3,29,"Phase1",1,1,4,0,6.215,9
"357",3,122,"Phase1",1,1,3,1,7.599,10
"358",3,20,"Phase1",1,1,3,0,7.81,11
"359",3,109,"Phase1",1,1,5,1,5.731,12
"360",3,104,"Phase1",1,1,3,1,6.745,13
"361",3,131,"Phase1",1,1,3,1,7.824,14
"362",3,44,"Phase1",1,1,4,0,5.992,15
"363",3,39,"Phase1",1,1,4,0,3.614,16
"364",3,72,"Phase1",1,1,3,0,7.237,17
"365",3,121,"Phase1",1,1,4,1,5.19,18
"366",3,105,"Phase1",1,1,4,1,6.457,19
"367",3,75,"Phase1",1,1,3,0,4.173,20
"368",3,33,"Phase1",1,1,2,0,3.541,21
"369",3,117,"Phase1",1,1,4,1,2.439,22
"370",3,4,"Phase1",1,1,4,0,2.357,23
"371",3,132,"Phase1",1,1,4,1,2.177,24
"372",3,119,"Phase1",1,1,2,1,7.755,25
"373",3,112,"Phase1",1,1,3,1,7.253,26
"374",3,129,"Phase1",1,1,1,1,2.082,27
"375",3,25,"Phase1",1,1,1,0,1.375,28
"376",3,60,"Phase1",1,1,4,0,4.124,29
"377",3,23,"Phase1",1,1,4,0,1.653,30
"378",3,41,"Phase1",1,1,3,0,1.034,31
"379",3,13,"Phase1",1,1,4,0,2.632,32
"380",3,116,"Phase1",1,1,4,1,1.794,33
"381",3,103,"Phase1",1,1,4,1,1.742,34
"382",3,83,"Phase1",1,1,4,0,4.215,35
"383",3,113,"Phase1",1,1,4,1,3.879,36
"384",3,58,"Phase1",1,1,3,0,8.638,37
"385",3,130,"Phase1",1,1,3,1,3.53,38
"386",3,17,"Phase1",1,1,3,0,1.392,39
"387",3,57,"Phase1",1,1,3,0,3.909,40
"388",3,90,"Phase1",1,1,1,1,3.802,41
"389",3,65,"Phase1",1,1,2,0,5.471,42
"390",3,87,"Phase1",1,1,4,0,1.873,43
"391",3,46,"Phase1",1,1,4,0,3.318,44
"392",3,111,"Phase1",1,1,3,1,2.599,45
"393",3,91,"Phase1",1,1,4,1,3.661,46
"394",3,125,"Phase1",1,1,3,1,4.512,47
"395",3,114,"Phase1",1,1,3,1,2.639,48
"396",3,100,"Phase1",1,1,4,1,1.968,49
"397",3,74,"Phase1",1,1,6,0,2.162,50
"398",3,106,"Phase1",1,1,3,1,13.146,51
"399",3,128,"Phase1",1,1,4,1,3.315,52
"400",3,43,"Phase1",1,1,3,0,7.731,53
"401",3,32,"Phase1",1,1,3,0,6.771,54
"402",3,53,"Phase1",1,1,3,0,2.281,55
"403",3,124,"Phase1",1,1,3,1,5.795,56
"404",3,68,"Phase1",1,1,4,0,1.945,57
"405",3,98,"Phase1",1,1,4,1,2.294,58
"406",3,94,"Phase1",1,1,3,1,3.631,59
"407",3,115,"Phase1",1,1,4,1,4.363,60
"408",3,89,"Phase1",1,1,3,1,1.193,61
"409",3,88,"Phase1",1,1,3,0,0.917,62
"410",3,77,"Phase1",1,1,3,0,1.088,63
"411",3,127,"Phase1",1,1,3,1,1.118,64
"412",3,52,"Phase1",1,1,4,0,5.901,65
"413",3,61,"Phase1",1,1,2,0,1.13,66
"414",3,96,"Phase1",1,1,3,1,4.857,67
"415",3,18,"Phase1",1,1,5,0,2.074,68
"416",3,12,"Phase1",1,1,3,0,2.273,69
"417",3,78,"Phase1",1,1,3,0,4.903,70
"418",3,62,"Phase1",1,1,1,0,3.477,71
"419",3,76,"Phase1",1,1,4,0,1.044,72
"420",3,101,"Phase1",1,1,4,1,1.725,73
"421",3,2,"Phase1",1,1,3,0,3.868,74
"422",3,108,"Phase1",1,1,3,1,6.721,75
"423",3,36,"Phase1",1,1,3,0,7.14,76
"424",3,55,"Phase1",1,1,3,0,2.81,77
"425",3,102,"Phase1",1,1,4,1,3.314,78
"426",3,45,"Phase1",1,1,4,0,3.321,79
"427",3,126,"Phase1",1,1,4,1,3.211,80
"428",3,51,"Phase1",1,1,4,0,4.871,81
"429",3,97,"Phase1",1,1,4,1,8.988,82
"430",3,37,"Phase1",1,1,3,0,2.277,83
"431",3,123,"Phase1",1,1,6,1,2.195,84
"432",3,5,"Phase1",1,1,3,0,6.32,85
"433",3,92,"Phase1",1,1,4,1,1.79,86
"434",3,120,"Phase1",1,1,4,1,3.702,87
"435",3,99,"Phase1",1,1,4,1,2.886,88
"436",3,7,"Phase1",1,1,4,0,2.97,89
"437",3,93,"Phase1",1,1,6,1,4.468,90
"438",3,118,"Phase1",1,1,3,1,6.967,91
"439",3,107,"Phase1",1,1,4,1,1.501,92
"440",3,15,"Phase1",1,1,4,0,0.862,93
"441",3,34,"Phase2",1,1,4,0,5.646,191
"442",3,70,"Phase2",1,1,3,0,0.802,192
"443",3,99,"Phase2",1,1,4,1,1.076,193
"444",3,22,"Phase2",1,1,4,0,3.434,194
"445",3,108,"Phase2",1,1,3,1,1.415,195
"446",3,101,"Phase2",1,1,4,1,3.354,196
"447",3,27,"Phase2",1,1,4,0,1.874,197
"448",3,3,"Phase2",1,1,4,0,1.031,198
"449",3,67,"Phase2",1,1,4,0,2.089,199
"450",3,6,"Phase2",1,1,4,0,1.329,200
"451",3,111,"Phase2",1,1,3,1,1.752,201
"452",3,63,"Phase2",1,1,3,0,3.149,202
"453",3,120,"Phase2",1,1,4,1,1.179,203
"454",3,24,"Phase2",1,1,4,0,2.098,204
"455",3,64,"Phase2",1,1,5,0,1.942,205
"456",3,35,"Phase2",1,1,4,0,1.203,206
"457",3,123,"Phase2",1,1,6,1,0.973,207
"458",3,10,"Phase2",1,1,3,0,0.755,208
"459",3,30,"Phase2",1,1,4,0,1.903,209
"460",3,54,"Phase2",1,1,3,0,1.884,210
"461",3,31,"Phase2",1,1,3,0,1.833,211
"462",3,112,"Phase2",1,1,3,1,3.631,212
"463",3,122,"Phase2",1,1,3,1,1.204,213
"464",3,97,"Phase2",1,1,4,1,0.857,214
"465",3,84,"Phase2",1,1,4,0,1.621,215
"466",3,128,"Phase2",1,1,4,1,0.953,216
"467",3,8,"Phase2",1,1,5,0,3.019,217
"468",3,42,"Phase2",1,1,3,0,3.643,218
"469",3,119,"Phase2",1,1,2,1,2.445,219
"470",3,80,"Phase2",1,1,4,0,3.123,220
"471",3,104,"Phase2",1,1,3,1,0.698,221
"472",3,16,"Phase2",1,1,4,0,2.707,222
"473",3,125,"Phase2",1,1,3,1,1.433,223
"474",3,107,"Phase2",1,1,4,1,1.495,224
"475",3,100,"Phase2",1,1,4,1,0.666,225
"476",3,132,"Phase2",1,1,3,1,1.1,226
"477",3,96,"Phase2",1,1,3,1,1.138,227
"478",3,9,"Phase2",1,1,4,0,1.381,228
"479",3,94,"Phase2",1,1,3,1,1.574,229
"480",3,95,"Phase2",1,1,2,1,2.813,230
"481",3,114,"Phase2",1,1,4,1,1.115,231
"482",3,19,"Phase2",1,1,4,0,1.695,232
"483",3,131,"Phase2",1,1,3,1,1.095,233
"484",3,69,"Phase2",1,1,4,0,1.884,234
"485",3,26,"Phase2",1,1,4,0,1.166,235
"486",3,47,"Phase2",1,1,3,0,2.149,236
"487",3,82,"Phase2",1,1,4,0,2.85,237
"488",3,121,"Phase2",1,1,3,1,0.891,238
"489",3,38,"Phase2",1,1,3,0,0.912,239
"490",3,71,"Phase2",1,1,3,0,3.387,240
"491",3,103,"Phase2",1,1,3,1,1.137,241
"492",3,50,"Phase2",1,1,3,0,2.301,242
"493",3,90,"Phase2",1,1,1,1,2.753,243
"494",3,113,"Phase2",1,1,3,1,0.867,244
"495",3,86,"Phase2",1,1,2,0,1.321,245
"496",3,117,"Phase2",1,1,4,1,0.779,246
"497",3,98,"Phase2",1,1,4,1,0.597,247
"498",3,48,"Phase2",1,1,3,0,1.096,248
"499",3,102,"Phase2",1,1,3,1,0.769,249
"500",3,116,"Phase2",1,1,4,1,0.823,250
"501",3,21,"Phase2",1,1,4,0,1.585,251
"502",3,118,"Phase2",1,1,3,1,1.124,252
"503",3,14,"Phase2",1,1,3,0,0.92,253
"504",3,92,"Phase2",1,1,4,1,0.996,254
"505",3,126,"Phase2",1,1,4,1,1.212,255
"506",3,93,"Phase2",1,1,6,1,0.851,256
"507",3,81,"Phase2",1,1,4,0,2.158,257
"508",3,89,"Phase2",1,1,3,1,0.918,258
"509",3,129,"Phase2",1,1,2,1,1.398,259
"510",3,106,"Phase2",1,1,3,1,1.199,260
"511",3,124,"Phase2",1,1,3,1,0.93,261
"512",3,40,"Phase2",1,1,3,0,4.676,262
"513",3,66,"Phase2",1,1,4,0,1.341,263
"514",3,91,"Phase2",1,1,4,1,1.026,264
"515",3,109,"Phase2",1,1,4,1,1.055,265
"516",3,105,"Phase2",1,1,4,1,0.636,266
"517",3,73,"Phase2",1,1,3,0,2.495,267
"518",3,79,"Phase2",1,1,4,0,0.779,268
"519",3,1,"Phase2",1,1,4,0,1.916,269
"520",3,56,"Phase2",1,1,4,0,1.521,270
"521",3,28,"Phase2",1,1,4,0,2.084,271
"522",3,59,"Phase2",1,1,3,0,1.014,272
"523",3,130,"Phase2",1,1,3,1,1.064,273
"524",3,115,"Phase2",1,1,3,1,2.812,274
"525",3,49,"Phase2",1,1,3,0,4.291,275
"526",3,110,"Phase2",1,1,3,1,0.698,276
"527",3,127,"Phase2",1,1,3,1,0.813,277
"528",3,11,"Phase2",1,1,3,0,1.676,278
"529",4,48,"Phase1",1,1,3,0,3.445,6
"530",4,78,"Phase1",1,1,5,1,3.181,7
"531",4,25,"Phase1",1,1,5,1,1.09,8
"532",4,34,"Phase1",1,1,4,0,1.229,9
"533",4,30,"Phase1",1,1,3,0,1.518,10
"534",4,88,"Phase1",1,1,1,1,2.252,11
"535",4,75,"Phase1",1,1,2,1,3.531,12
"536",4,31,"Phase1",1,1,4,0,0.922,13
"537",4,46,"Phase1",1,1,2,1,1.069,14
"538",4,63,"Phase1",1,1,2,0,3.884,15
"539",4,74,"Phase1",1,1,6,1,0.815,16
"540",4,65,"Phase1",1,1,4,1,1.455,17
"541",4,42,"Phase1",1,1,4,0,2.045,18
"542",4,56,"Phase1",1,1,6,0,5.106,19
"543",4,57,"Phase1",1,1,4,1,2.347,20
"544",4,71,"Phase1",1,1,4,0,2.152,21
"545",4,53,"Phase1",1,1,4,1,1.286,22
"546",4,60,"Phase1",1,1,5,1,3.872,23
"547",4,66,"Phase1",1,1,4,0,3.159,24
"548",4,84,"Phase1",1,1,3,0,1.881,25
"549",4,20,"Phase1",1,1,3,1,5.419,26
"550",4,5,"Phase1",1,1,5,1,1.148,27
"551",4,67,"Phase1",1,1,4,0,5.785,28
"552",4,18,"Phase1",1,1,4,1,2.728,29
"553",4,8,"Phase1",1,1,3,0,0.643,30
"554",4,2,"Phase1",1,1,2,1,2.381,31
"555",4,13,"Phase1",1,1,4,1,0.838,32
"556",4,1,"Phase1",1,1,5,0,5.557,33
"557",4,37,"Phase1",1,1,3,1,3.793,34
"558",4,21,"Phase1",1,1,4,0,2.491,35
"559",4,11,"Phase1",1,1,4,0,3.224,36
"560",4,54,"Phase1",1,1,4,0,2.169,37
"561",4,14,"Phase1",1,1,3,0,2.099,38
"562",4,72,"Phase1",1,1,2,1,5.421,39
"563",4,51,"Phase1",1,1,5,1,1.541,40
"564",4,59,"Phase1",1,1,3,0,2.069,41
"565",4,82,"Phase1",1,1,4,0,2.257,42
"566",4,62,"Phase1",1,1,5,1,2.262,43
"567",4,40,"Phase1",1,1,5,0,0.687,44
"568",4,47,"Phase1",1,1,5,0,6.08,45
"569",4,55,"Phase1",1,1,4,1,1.136,46
"570",4,15,"Phase1",1,1,2,1,2.168,47
"571",4,38,"Phase1",1,1,4,0,2.945,48
"572",4,29,"Phase1",1,1,3,1,2.585,49
"573",4,9,"Phase1",1,1,6,0,1.22,50
"574",4,24,"Phase1",1,1,5,0,1.258,51
"575",4,33,"Phase1",1,1,3,1,1.83,52
"576",4,86,"Phase1",1,1,5,0,0.815,53
"577",4,81,"Phase1",1,1,6,0,1.382,54
"578",4,45,"Phase1",1,1,4,1,1.701,55
"579",4,52,"Phase1",1,1,2,1,2.789,56
"580",4,22,"Phase1",1,1,4,0,1.92,57
"581",4,77,"Phase1",1,1,4,1,3.68,58
"582",4,12,"Phase1",1,1,5,1,4.055,59
"583",4,16,"Phase1",1,1,4,0,0.866,60
"584",4,41,"Phase1",1,1,3,1,0.782,61
"585",4,69,"Phase1",1,1,5,0,1.013,62
"586",4,28,"Phase1",1,1,4,0,1.707,63
"587",4,3,"Phase1",1,1,2,0,4.654,64
"588",4,68,"Phase1",1,1,4,1,1.296,65
"589",4,80,"Phase1",1,1,5,0,1.408,66
"590",4,7,"Phase1",1,1,6,1,4.304,67
"591",4,23,"Phase1",1,1,6,1,1.618,68
"592",4,85,"Phase1",1,1,4,1,1.961,69
"593",4,44,"Phase1",1,1,5,1,2.872,70
"594",4,70,"Phase1",1,1,4,0,1.237,71
"595",4,50,"Phase1",1,1,3,0,3.147,72
"596",4,64,"Phase1",1,1,3,0,3.182,73
"597",4,83,"Phase1",1,1,4,1,2.08,74
"598",4,36,"Phase1",1,1,5,1,1.137,75
"599",4,10,"Phase1",1,1,5,0,1.74,76
"600",4,32,"Phase1",1,1,5,1,6.207,77
"601",4,73,"Phase1",1,1,5,0,3.927,78
"602",4,4,"Phase1",1,1,4,1,1.798,79
"603",4,27,"Phase1",1,1,4,0,3.493,80
"604",4,17,"Phase1",1,1,3,1,3.454,81
"605",4,26,"Phase1",1,1,5,0,2.102,82
"606",4,6,"Phase1",1,1,6,0,0.733,83
"607",4,19,"Phase1",1,1,5,0,1.08,84
"608",4,76,"Phase1",1,1,3,1,2.483,85
"609",4,43,"Phase1",1,1,6,1,4.245,86
"610",4,79,"Phase1",1,1,5,0,5.699,87
"611",4,49,"Phase1",1,1,4,0,0.903,88
"612",4,87,"Phase1",1,1,4,1,1.279,89
"613",4,35,"Phase1",1,1,6,0,0.934,90
"614",4,61,"Phase1",1,1,4,1,0.753,91
"615",4,58,"Phase1",1,1,6,1,0.935,92
"616",4,39,"Phase1",1,1,5,1,2.415,93
"617",4,51,"Phase2",1,1,5,1,0.861,191
"618",4,109,"Phase2",1,1,4,0,0.696,192
"619",4,65,"Phase2",1,1,4,1,0.856,193
"620",4,91,"Phase2",1,1,4,0,1.27,194
"621",4,105,"Phase2",1,1,3,0,1.165,195
"622",4,85,"Phase2",1,1,5,1,0.76,196
"623",4,121,"Phase2",1,1,2,0,1.936,197
"624",4,116,"Phase2",1,1,5,0,0.963,198
"625",4,95,"Phase2",1,1,3,0,3.343,199
"626",4,76,"Phase2",1,1,3,1,0.829,200
"627",4,5,"Phase2",1,1,4,1,0.762,201
"628",4,101,"Phase2",1,1,4,0,0.769,202
"629",4,20,"Phase2",1,1,4,1,2.584,203
"630",4,124,"Phase2",1,1,4,0,1.664,204
"631",4,58,"Phase2",1,1,6,1,0.966,205
"632",4,93,"Phase2",1,1,4,0,2.83,206
"633",4,114,"Phase2",1,1,4,0,0.844,207
"634",4,68,"Phase2",1,1,4,1,0.898,208
"635",4,52,"Phase2",1,1,2,1,0.772,209
"636",4,2,"Phase2",1,1,5,1,0.62,210
"637",4,61,"Phase2",1,1,4,1,0.522,211
"638",4,113,"Phase2",1,1,2,0,6.654,212
"639",4,23,"Phase2",1,1,6,1,0.756,213
"640",4,115,"Phase2",1,1,4,0,1.688,214
"641",4,72,"Phase2",1,1,2,1,5.232,215
"642",4,46,"Phase2",1,1,3,1,0.593,216
"643",4,43,"Phase2",1,1,5,1,1.152,217
"644",4,62,"Phase2",1,1,5,1,1.442,218
"645",4,131,"Phase2",1,1,3,0,1.93,219
"646",4,36,"Phase2",1,1,4,1,0.691,220
"647",4,100,"Phase2",1,1,5,0,0.993,221
"648",4,112,"Phase2",1,1,4,0,0.861,222
"649",4,33,"Phase2",1,1,3,1,1.44,223
"650",4,53,"Phase2",1,1,4,1,0.735,224
"651",4,18,"Phase2",1,1,4,1,0.489,225
"652",4,78,"Phase2",1,1,5,1,0.57,226
"653",4,89,"Phase2",1,1,5,0,1.774,227
"654",4,102,"Phase2",1,1,4,0,1.205,228
"655",4,75,"Phase2",1,1,3,1,0.565,229
"656",4,60,"Phase2",1,1,5,1,0.655,230
"657",4,83,"Phase2",1,1,4,1,0.674,231
"658",4,108,"Phase2",1,1,4,0,1.53,232
"659",4,90,"Phase2",1,1,4,0,1.517,233
"660",4,117,"Phase2",1,1,4,0,2.063,234
"661",4,111,"Phase2",1,1,3,0,0.643,235
"662",4,39,"Phase2",1,1,5,1,0.757,236
"663",4,125,"Phase2",1,1,4,0,2.998,237
"664",4,97,"Phase2",1,1,4,0,0.673,238
"665",4,103,"Phase2",1,1,3,0,1.676,239
"666",4,37,"Phase2",1,1,3,1,0.548,240
"667",4,57,"Phase2",1,1,4,1,0.712,241
"668",4,128,"Phase2",1,1,4,0,1.901,242
"669",4,25,"Phase2",1,1,4,1,0.562,243
"670",4,119,"Phase2",1,1,4,0,0.601,244
"671",4,126,"Phase2",1,1,3,0,1.579,245
"672",4,107,"Phase2",1,1,3,0,1.952,246
"673",4,29,"Phase2",1,1,4,1,1.735,247
"674",4,127,"Phase2",1,1,4,0,1.204,248
"675",4,88,"Phase2",1,1,1,1,0.794,249
"676",4,74,"Phase2",1,1,4,1,1.724,250
"677",4,98,"Phase2",1,1,3,0,1.948,251
"678",4,129,"Phase2",1,1,4,0,0.966,252
"679",4,94,"Phase2",1,1,4,0,1.196,253
"680",4,132,"Phase2",1,1,5,0,1.111,254
"681",4,4,"Phase2",1,1,3,1,0.76,255
"682",4,122,"Phase2",1,1,4,0,2.194,256
"683",4,12,"Phase2",1,1,5,1,1.032,257
"684",4,106,"Phase2",1,1,3,0,1.469,258
"685",4,17,"Phase2",1,1,3,1,0.62,259
"686",4,32,"Phase2",1,1,5,1,0.728,260
"687",4,96,"Phase2",1,1,6,0,1.176,261
"688",4,130,"Phase2",1,1,3,0,0.708,262
"689",4,104,"Phase2",1,1,4,0,1.176,263
"690",4,45,"Phase2",1,1,4,1,0.489,264
"691",4,41,"Phase2",1,1,4,1,0.831,265
"692",4,77,"Phase2",1,1,4,1,0.942,266
"693",4,87,"Phase2",1,1,4,1,0.56,267
"694",4,99,"Phase2",1,1,4,0,2.851,268
"695",4,7,"Phase2",1,1,4,1,0.618,269
"696",4,118,"Phase2",1,1,4,0,5.463,270
"697",4,15,"Phase2",1,1,3,1,0.865,271
"698",4,120,"Phase2",1,1,4,0,0.948,272
"699",4,13,"Phase2",1,1,5,1,0.834,273
"700",4,92,"Phase2",1,1,3,0,2.001,274
"701",4,123,"Phase2",1,1,6,0,0.972,275
"702",4,110,"Phase2",1,1,3,0,3.843,276
"703",4,55,"Phase2",1,1,5,1,0.888,277
"704",4,44,"Phase2",1,1,5,1,0.779,278
"705",5,27,"Phase1",1,1,4,1,3.748,6
"706",5,82,"Phase1",1,1,4,1,6.51,7
"707",5,131,"Phase1",1,1,4,0,6.705,8
"708",5,113,"Phase1",1,1,3,0,3.353,9
"709",5,111,"Phase1",1,1,4,0,7.138,10
"710",5,80,"Phase1",1,1,5,1,10.195,11
"711",5,109,"Phase1",1,1,4,0,11.08,12
"712",5,14,"Phase1",1,1,3,1,3.463,13
"713",5,34,"Phase1",1,1,2,1,4.286,14
"714",5,90,"Phase1",1,1,2,0,2.69,15
"715",5,40,"Phase1",1,1,5,1,1.832,16
"716",5,107,"Phase1",1,1,4,0,2.923,17
"717",5,92,"Phase1",1,1,3,0,6.197,18
"718",5,66,"Phase1",1,1,3,1,6.78,19
"719",5,99,"Phase1",1,1,5,0,2.899,20
"720",5,114,"Phase1",1,1,3,0,3.742,21
"721",5,96,"Phase1",1,1,3,0,1.629,22
"722",5,21,"Phase1",1,1,5,1,6.141,23
"723",5,89,"Phase1",1,1,3,0,6.059,24
"724",5,129,"Phase1",1,1,3,0,6.53,25
"725",5,122,"Phase1",1,1,5,0,4.466,26
"726",5,106,"Phase1",1,1,4,0,9.3,27
"727",5,123,"Phase1",1,1,4,0,8.459,28
"728",5,93,"Phase1",1,1,4,0,8.093,29
"729",5,54,"Phase1",1,1,3,1,2.601,30
"730",5,116,"Phase1",1,1,3,0,1.303,31
"731",5,81,"Phase1",1,1,3,1,2.161,32
"732",5,30,"Phase1",1,1,5,1,7.131,33
"733",5,1,"Phase1",1,1,2,1,1.811,34
"734",5,70,"Phase1",1,1,2,1,2.947,35
"735",5,31,"Phase1",1,1,4,1,3.388,36
"736",5,19,"Phase1",1,1,5,1,1.112,37
"737",5,8,"Phase1",1,1,3,1,1.65,38
"738",5,3,"Phase1",1,1,5,1,3.232,39
"739",5,118,"Phase1",1,1,5,0,1.062,40
"740",5,28,"Phase1",1,1,5,1,0.882,41
"741",5,84,"Phase1",1,1,3,1,3.124,42
"742",5,124,"Phase1",1,1,4,0,1.945,43
"743",5,79,"Phase1",1,1,4,1,1.771,44
"744",5,16,"Phase1",1,1,2,1,1.404,45
"745",5,117,"Phase1",1,1,3,0,2.322,46
"746",5,91,"Phase1",1,1,4,0,1.031,47
"747",5,104,"Phase1",1,1,3,0,1.614,48
"748",5,26,"Phase1",1,1,3,1,4.066,49
"749",5,100,"Phase1",1,1,4,0,2.315,50
"750",5,94,"Phase1",1,1,3,0,5.94,51
"751",5,10,"Phase1",1,1,4,1,1.171,52
"752",5,108,"Phase1",1,1,5,0,1.947,53
"753",5,102,"Phase1",1,1,3,0,3.874,54
"754",5,130,"Phase1",1,1,3,0,1.432,55
"755",5,59,"Phase1",1,1,6,1,0.77,56
"756",5,128,"Phase1",1,1,5,0,2.071,57
"757",5,71,"Phase1",1,1,4,1,1.809,58
"758",5,86,"Phase1",1,1,5,1,0.54,59
"759",5,24,"Phase1",1,1,4,1,1.496,60
"760",5,127,"Phase1",1,1,3,0,1.656,61
"761",5,56,"Phase1",1,1,2,1,1.824,62
"762",5,126,"Phase1",1,1,3,0,1.669,63
"763",5,95,"Phase1",1,1,4,0,3.597,64
"764",5,47,"Phase1",1,1,3,1,3.604,65
"765",5,48,"Phase1",1,1,3,1,2.313,66
"766",5,49,"Phase1",1,1,5,1,0.966,67
"767",5,64,"Phase1",1,1,5,1,0.922,68
"768",5,69,"Phase1",1,1,4,1,1.87,69
"769",5,63,"Phase1",1,1,3,1,1.363,70
"770",5,121,"Phase1",1,1,3,0,0.849,71
"771",5,67,"Phase1",1,1,3,1,1.342,72
"772",5,119,"Phase1",1,1,4,0,1.413,73
"773",5,132,"Phase1",1,1,4,0,2.524,74
"774",5,9,"Phase1",1,1,5,1,1.143,75
"775",5,73,"Phase1",1,1,5,1,1.371,76
"776",5,50,"Phase1",1,1,3,1,3.113,77
"777",5,101,"Phase1",1,1,5,0,1.167,78
"778",5,42,"Phase1",1,1,3,1,0.676,79
"779",5,125,"Phase1",1,1,2,0,1.34,80
"780",5,105,"Phase1",1,1,3,0,0.663,81
"781",5,35,"Phase1",1,1,5,1,0.632,82
"782",5,6,"Phase1",1,1,3,1,0.893,83
"783",5,22,"Phase1",1,1,4,1,1.532,84
"784",5,115,"Phase1",1,1,3,0,1.799,85
"785",5,112,"Phase1",1,1,4,0,0.709,86
"786",5,97,"Phase1",1,1,5,0,0.901,87
"787",5,103,"Phase1",1,1,5,0,0.746,88
"788",5,38,"Phase1",1,1,3,1,0.711,89
"789",5,110,"Phase1",1,1,4,0,1.382,90
"790",5,120,"Phase1",1,1,5,0,1.275,91
"791",5,98,"Phase1",1,1,4,0,0.575,92
"792",5,11,"Phase1",1,1,4,1,1.744,93
"793",5,71,"Phase2",1,1,4,1,1.22,191
"794",5,75,"Phase2",1,1,3,0,0.692,192
"795",5,60,"Phase2",1,1,3,0,1.482,193
"796",5,47,"Phase2",1,1,3,1,0.811,194
"797",5,45,"Phase2",1,1,4,0,1.328,195
"798",5,72,"Phase2",1,1,3,0,1.529,196
"799",5,38,"Phase2",1,1,3,1,0.743,197
"800",5,42,"Phase2",1,1,3,1,0.589,198
"801",5,43,"Phase2",1,1,5,0,4.247,199
"802",5,51,"Phase2",1,1,5,0,1.428,200
"803",5,61,"Phase2",1,1,3,0,0.95,201
"804",5,82,"Phase2",1,1,3,1,1.323,202
"805",5,76,"Phase2",1,1,3,0,0.763,203
"806",5,10,"Phase2",1,1,4,1,0.532,204
"807",5,16,"Phase2",1,1,3,1,0.588,205
"808",5,48,"Phase2",1,1,3,1,0.754,206
"809",5,50,"Phase2",1,1,3,1,0.742,207
"810",5,36,"Phase2",1,1,3,0,0.733,208
"811",5,59,"Phase2",1,1,5,1,0.728,209
"812",5,30,"Phase2",1,1,5,1,1.633,210
"813",5,11,"Phase2",1,1,4,1,0.653,211
"814",5,52,"Phase2",1,1,4,0,0.732,212
"815",5,15,"Phase2",1,1,3,0,0.568,213
"816",5,21,"Phase2",1,1,4,1,0.987,214
"817",5,78,"Phase2",1,1,4,0,2.578,215
"818",5,17,"Phase2",1,1,3,0,4.247,216
"819",5,49,"Phase2",1,1,5,1,0.931,217
"820",5,66,"Phase2",1,1,4,1,0.571,218
"821",5,12,"Phase2",1,1,4,0,2.455,219
"822",5,84,"Phase2",1,1,3,1,1.212,220
"823",5,69,"Phase2",1,1,4,1,0.591,221
"824",5,32,"Phase2",1,1,5,0,2.183,222
"825",5,13,"Phase2",1,1,4,0,1.965,223
"826",5,57,"Phase2",1,1,5,0,1.069,224
"827",5,46,"Phase2",1,1,4,0,0.632,225
"828",5,56,"Phase2",1,1,2,1,0.954,226
"829",5,62,"Phase2",1,1,3,0,1.76,227
"830",5,70,"Phase2",1,1,3,1,0.603,228
"831",5,74,"Phase2",1,1,4,0,2.034,229
"832",5,41,"Phase2",1,1,4,0,1.716,230
"833",5,63,"Phase2",1,1,3,1,0.592,231
"834",5,28,"Phase2",1,1,4,1,0.751,232
"835",5,22,"Phase2",1,1,4,1,0.561,233
"836",5,19,"Phase2",1,1,4,1,1.595,234
"837",5,34,"Phase2",1,1,3,1,0.814,235
"838",5,37,"Phase2",1,1,3,0,0.617,236
"839",5,4,"Phase2",1,1,3,0,0.502,237
"840",5,65,"Phase2",1,1,3,0,0.611,238
"841",5,14,"Phase2",1,1,4,1,0.583,239
"842",5,87,"Phase2",1,1,4,0,1.874,240
"843",5,26,"Phase2",1,1,3,1,0.646,241
"844",5,31,"Phase2",1,1,4,1,0.606,242
"845",5,73,"Phase2",1,1,4,1,0.882,243
"846",5,20,"Phase2",1,1,4,0,1.456,244
"847",5,2,"Phase2",1,1,3,0,3.413,245
"848",5,86,"Phase2",1,1,5,1,0.667,246
"849",5,67,"Phase2",1,1,3,1,0.642,247
"850",5,85,"Phase2",1,1,3,0,0.649,248
"851",5,5,"Phase2",1,1,3,0,4.841,249
"852",5,18,"Phase2",1,1,3,0,1.184,250
"853",5,54,"Phase2",1,1,3,1,0.604,251
"854",5,33,"Phase2",1,1,3,0,1.181,252
"855",5,24,"Phase2",1,1,4,1,0.591,253
"856",5,81,"Phase2",1,1,3,1,0.586,254
"857",5,39,"Phase2",1,1,4,0,0.789,255
"858",5,6,"Phase2",1,1,3,1,0.575,256
"859",5,27,"Phase2",1,1,4,1,0.553,257
"860",5,40,"Phase2",1,1,4,1,0.542,258
"861",5,55,"Phase2",1,1,4,0,0.524,259
"862",5,68,"Phase2",1,1,4,0,2.055,260
"863",5,80,"Phase2",1,1,4,1,0.629,261
"864",5,25,"Phase2",1,1,3,0,0.671,262
"865",5,1,"Phase2",1,1,3,1,3.672,263
"866",5,9,"Phase2",1,1,4,1,0.581,264
"867",5,35,"Phase2",1,1,4,1,0.537,265
"868",5,88,"Phase2",1,1,4,0,0.599,266
"869",5,58,"Phase2",1,1,3,0,0.588,267
"870",5,7,"Phase2",1,1,4,0,1.111,268
"871",5,64,"Phase2",1,1,4,1,0.5,269
"872",5,3,"Phase2",1,1,4,1,0.592,270
"873",5,23,"Phase2",1,1,4,0,1.312,271
"874",5,77,"Phase2",1,1,3,0,0.711,272
"875",5,29,"Phase2",1,1,4,0,1.711,273
"876",5,83,"Phase2",1,1,3,0,1.835,274
"877",5,8,"Phase2",1,1,3,1,0.504,275
"878",5,44,"Phase2",1,1,4,0,1.634,276
"879",5,53,"Phase2",1,1,4,0,0.571,277
"880",5,79,"Phase2",1,1,4,1,0.482,278
"881",6,126,"Phase1",1,1,3,1,13.197,6
"882",6,106,"Phase1",1,1,5,1,3.773,7
"883",6,76,"Phase1",1,1,4,0,11.872,8
"884",6,62,"Phase1",1,1,5,0,1.976,9
"885",6,93,"Phase1",1,1,3,1,5.236,10
"886",6,94,"Phase1",1,1,5,1,0.777,11
"887",6,132,"Phase1",1,1,4,1,4.801,12
"888",6,113,"Phase1",1,1,4,1,9.433,13
"889",6,90,"Phase1",1,1,5,1,1.651,14
"890",6,111,"Phase1",1,1,4,1,5.919,15
"891",6,78,"Phase1",1,1,2,0,7.978,16
"892",6,60,"Phase1",1,1,5,0,7.392,17
"893",6,112,"Phase1",1,1,5,1,4.609,18
"894",6,123,"Phase1",1,1,4,1,3.205,19
"895",6,52,"Phase1",1,1,4,0,8.714,20
"896",6,85,"Phase1",1,1,2,0,1.355,21
"897",6,4,"Phase1",1,1,5,0,1.083,22
"898",6,7,"Phase1",1,1,4,0,10.454,23
"899",6,92,"Phase1",1,1,2,1,2.388,24
"900",6,46,"Phase1",1,1,4,0,15.275,25
"901",6,95,"Phase1",1,1,4,1,9.555,26
"902",6,99,"Phase1",1,1,5,1,4.409,27
"903",6,74,"Phase1",1,1,5,0,3.571,28
"904",6,89,"Phase1",1,1,3,1,0.992,29
"905",6,128,"Phase1",1,1,3,1,7.585,30
"906",6,51,"Phase1",1,1,5,0,1.918,31
"907",6,101,"Phase1",1,1,2,1,24.157,32
"908",6,72,"Phase1",1,1,4,0,4.772,33
"909",6,58,"Phase1",1,1,5,0,1.54,34
"910",6,102,"Phase1",1,1,3,1,2.411,35
"911",6,83,"Phase1",1,1,4,0,16.162,36
"912",6,108,"Phase1",1,1,5,1,1.458,37
"913",6,115,"Phase1",1,1,1,1,12.317,38
"914",6,96,"Phase1",1,1,2,1,1.959,39
"915",6,39,"Phase1",1,1,5,0,1.161,40
"916",6,45,"Phase1",1,1,5,0,12.101,41
"917",6,88,"Phase1",1,1,5,0,0.745,42
"918",6,100,"Phase1",1,1,2,1,1.128,43
"919",6,91,"Phase1",1,1,2,1,0.75,44
"920",6,61,"Phase1",1,1,3,0,9.48,45
"921",6,127,"Phase1",1,1,5,1,1.419,46
"922",6,116,"Phase1",1,1,3,1,1.421,47
"923",6,118,"Phase1",1,1,6,1,1.054,48
"924",6,119,"Phase1",1,1,5,1,4.203,49
"925",6,65,"Phase1",1,1,2,0,1.862,50
"926",6,122,"Phase1",1,1,5,1,4.5,51
"927",6,124,"Phase1",1,1,4,1,6.846,52
"928",6,12,"Phase1",1,1,4,0,7.847,53
"929",6,103,"Phase1",1,1,5,1,1.076,54
"930",6,105,"Phase1",1,1,3,1,4.636,55
"931",6,33,"Phase1",1,1,2,0,3.198,56
"932",6,87,"Phase1",1,1,5,0,1.864,57
"933",6,130,"Phase1",1,1,4,1,11.255,58
"934",6,107,"Phase1",1,1,5,1,8.719,59
"935",6,2,"Phase1",1,1,2,0,1.725,60
"936",6,131,"Phase1",1,1,3,1,8.471,61
"937",6,53,"Phase1",1,1,5,0,1.156,62
"938",6,97,"Phase1",1,1,4,1,9.893,63
"939",6,32,"Phase1",1,1,4,0,11.866,64
"940",6,37,"Phase1",1,1,2,0,11.979,65
"941",6,23,"Phase1",1,1,5,0,0.819,66
"942",6,57,"Phase1",1,1,4,0,3.505,67
"943",6,13,"Phase1",1,1,5,0,0.815,68
"944",6,68,"Phase1",1,1,4,0,1.937,69
"945",6,114,"Phase1",1,1,4,1,4.454,70
"946",6,55,"Phase1",1,1,3,0,9.014,71
"947",6,104,"Phase1",1,1,4,1,2.743,72
"948",6,129,"Phase1",1,1,4,1,3.976,73
"949",6,18,"Phase1",1,1,5,0,2.537,74
"950",6,29,"Phase1",1,1,3,0,8.431,75
"951",6,77,"Phase1",1,1,4,0,4.359,76
"952",6,17,"Phase1",1,1,5,0,0.6,77
"953",6,121,"Phase1",1,1,2,1,1.101,78
"954",6,25,"Phase1",1,1,4,0,2.054,79
"955",6,43,"Phase1",1,1,3,0,12.772,80
"956",6,44,"Phase1",1,1,2,0,12.423,81
"957",6,41,"Phase1",1,1,4,0,12.581,82
"958",6,120,"Phase1",1,1,4,1,14.666,83
"959",6,36,"Phase1",1,1,3,0,6.443,84
"960",6,75,"Phase1",1,1,4,0,34.066,85
"961",6,20,"Phase1",1,1,4,0,11.099,86
"962",6,5,"Phase1",1,1,4,0,19.77,87
"963",6,110,"Phase1",1,1,5,1,3.238,88
"964",6,117,"Phase1",1,1,6,1,2.563,89
"965",6,15,"Phase1",1,1,3,0,2.395,90
"966",6,125,"Phase1",1,1,5,1,7.02,91
"967",6,109,"Phase1",1,1,6,1,0.916,92
"968",6,98,"Phase1",1,1,2,1,1.611,93
"969",6,16,"Phase2",1,1,2,0,2.992,191
"970",6,94,"Phase2",1,1,5,1,0.764,192
"971",6,30,"Phase2",1,1,4,0,6.407,193
"972",6,100,"Phase2",1,1,2,1,1.126,194
"973",6,82,"Phase2",1,1,4,0,2.677,195
"974",6,113,"Phase2",1,1,3,1,1.294,196
"975",6,22,"Phase2",1,1,3,0,2.798,197
"976",6,81,"Phase2",1,1,5,0,3.516,198
"977",6,110,"Phase2",1,1,5,1,2.654,199
"978",6,91,"Phase2",1,1,2,1,3.091,200
"979",6,109,"Phase2",1,1,6,1,0.933,201
"980",6,63,"Phase2",1,1,2,0,1.075,202
"981",6,47,"Phase2",1,1,4,0,2.864,203
"982",6,35,"Phase2",1,1,3,0,1.161,204
"983",6,8,"Phase2",1,1,5,0,5.538,205
"984",6,48,"Phase2",1,1,4,0,1.828,206
"985",6,127,"Phase2",1,1,5,1,0.805,207
"986",6,11,"Phase2",1,1,4,0,3.715,208
"987",6,99,"Phase2",1,1,4,1,1.17,209
"988",6,116,"Phase2",1,1,4,1,11.988,210
"989",6,132,"Phase2",1,1,3,1,0.819,211
"990",6,86,"Phase2",1,1,4,0,7.14,212
"991",6,126,"Phase2",1,1,3,1,1.787,213
"992",6,111,"Phase2",1,1,3,1,0.676,214
"993",6,98,"Phase2",1,1,3,1,0.626,215
"994",6,49,"Phase2",1,1,6,0,0.89,216
"995",6,112,"Phase2",1,1,5,1,0.741,217
"996",6,102,"Phase2",1,1,2,1,0.774,218
"997",6,89,"Phase2",1,1,3,1,0.854,219
"998",6,97,"Phase2",1,1,5,1,3.808,220
"999",6,96,"Phase2",1,1,3,1,0.756,221
"1000",6,119,"Phase2",1,1,5,1,5.196,222
"1001",6,50,"Phase2",1,1,3,0,2.19,223
"1002",6,130,"Phase2",1,1,3,1,0.904,224
"1003",6,56,"Phase2",1,1,3,0,12.333,225
"1004",6,71,"Phase2",1,1,5,0,0.974,226
"1005",6,38,"Phase2",1,1,4,0,0.884,227
"1006",6,64,"Phase2",1,1,4,0,3.836,228
"1007",6,108,"Phase2",1,1,3,1,2.687,229
"1008",6,40,"Phase2",1,1,3,0,5.666,230
"1009",6,67,"Phase2",1,1,2,0,5.046,231
"1010",6,90,"Phase2",1,1,4,1,0.807,232
"1011",6,115,"Phase2",1,1,2,1,1.238,233
"1012",6,24,"Phase2",1,1,4,0,6.457,234
"1013",6,73,"Phase2",1,1,5,0,1.098,235
"1014",6,27,"Phase2",1,1,5,0,5.88,236
"1015",6,69,"Phase2",1,1,3,0,4.684,237
"1016",6,80,"Phase2",1,1,2,0,11.375,238
"1017",6,93,"Phase2",1,1,3,1,0.645,239
"1018",6,92,"Phase2",1,1,3,1,0.719,240
"1019",6,121,"Phase2",1,1,2,1,0.831,241
"1020",6,104,"Phase2",1,1,4,1,0.642,242
"1021",6,117,"Phase2",1,1,6,1,0.983,243
"1022",6,59,"Phase2",1,1,2,0,1.319,244
"1023",6,107,"Phase2",1,1,5,1,0.871,245
"1024",6,124,"Phase2",1,1,4,1,0.666,246
"1025",6,79,"Phase2",1,1,3,0,5.783,247
"1026",6,26,"Phase2",1,1,3,0,6.8,248
"1027",6,105,"Phase2",1,1,3,1,0.624,249
"1028",6,9,"Phase2",1,1,5,0,2.517,250
"1029",6,66,"Phase2",1,1,2,0,1.107,251
"1030",6,6,"Phase2",1,1,3,0,2.073,252
"1031",6,70,"Phase2",1,1,4,0,5.002,253
"1032",6,95,"Phase2",1,1,3,1,0.541,254
"1033",6,10,"Phase2",1,1,5,0,1.123,255
"1034",6,14,"Phase2",1,1,3,0,2.725,256
"1035",6,128,"Phase2",1,1,5,1,1.904,257
"1036",6,114,"Phase2",1,1,4,1,0.561,258
"1037",6,131,"Phase2",1,1,4,1,0.668,259
"1038",6,122,"Phase2",1,1,4,1,0.801,260
"1039",6,3,"Phase2",1,1,5,0,0.89,261
"1040",6,106,"Phase2",1,1,5,1,0.754,262
"1041",6,103,"Phase2",1,1,5,1,0.656,263
"1042",6,21,"Phase2",1,1,3,0,0.895,264
"1043",6,129,"Phase2",1,1,4,1,0.584,265
"1044",6,1,"Phase2",1,1,5,0,0.95,266
"1045",6,42,"Phase2",1,1,3,0,1.371,267
"1046",6,34,"Phase2",1,1,3,0,3.618,268
"1047",6,54,"Phase2",1,1,5,0,0.654,269
"1048",6,28,"Phase2",1,1,5,0,1.291,270
"1049",6,84,"Phase2",1,1,4,0,2.282,271
"1050",6,118,"Phase2",1,1,3,1,2.911,272
"1051",6,120,"Phase2",1,1,4,1,0.59,273
"1052",6,19,"Phase2",1,1,2,0,0.795,274
"1053",6,101,"Phase2",1,1,3,1,0.673,275
"1054",6,123,"Phase2",1,1,4,1,0.631,276
"1055",6,31,"Phase2",1,1,5,0,0.852,277
"1056",6,125,"Phase2",1,1,5,1,0.644,278
"1057",7,12,"Phase1",1,1,4,1,1.956,6
"1058",7,55,"Phase1",1,1,5,1,1.421,7
"1059",7,51,"Phase1",1,1,2,1,4.376,8
"1060",7,34,"Phase1",1,1,5,0,7.411,9
"1061",7,6,"Phase1",1,1,3,0,1.447,10
"1062",7,60,"Phase1",1,1,5,1,1.369,11
"1063",7,80,"Phase1",1,1,3,0,9.952,12
"1064",7,22,"Phase1",1,1,5,0,5.645,13
"1065",7,23,"Phase1",1,1,2,1,3.182,14
"1066",7,68,"Phase1",1,1,4,1,3.719,15
"1067",7,82,"Phase1",1,1,2,0,11.175,16
"1068",7,62,"Phase1",1,1,4,1,4.196,17
"1069",7,43,"Phase1",1,1,5,1,1.159,18
"1070",7,77,"Phase1",1,1,5,1,2.944,19
"1071",7,11,"Phase1",1,1,3,0,4.379,20
"1072",7,38,"Phase1",1,1,5,0,5.2,21
"1073",7,16,"Phase1",1,1,2,0,1.829,22
"1074",7,4,"Phase1",1,1,3,1,3.214,23
"1075",7,63,"Phase1",1,1,2,0,0.977,24
"1076",7,56,"Phase1",1,1,2,0,4.868,25
"1077",7,7,"Phase1",1,1,5,1,1.587,26
"1078",7,70,"Phase1",1,1,3,0,2.875,27
"1079",7,24,"Phase1",1,1,4,0,2.482,28
"1080",7,8,"Phase1",1,1,5,0,2.438,29
"1081",7,15,"Phase1",1,1,4,1,2.872,30
"1082",7,52,"Phase1",1,1,2,1,10.949,31
"1083",7,61,"Phase1",1,1,5,1,1.192,32
"1084",7,1,"Phase1",1,1,3,0,4.036,33
"1085",7,10,"Phase1",1,1,2,0,0.619,34
"1086",7,44,"Phase1",1,1,5,1,11.013,35
"1087",7,87,"Phase1",1,1,4,1,7.799,36
"1088",7,84,"Phase1",1,1,2,0,1.575,37
"1089",7,17,"Phase1",1,1,4,1,3.031,38
"1090",7,57,"Phase1",1,1,2,1,5.897,39
"1091",7,45,"Phase1",1,1,5,1,5.582,40
"1092",7,31,"Phase1",1,1,5,0,5.25,41
"1093",7,3,"Phase1",1,1,3,0,1.79,42
"1094",7,83,"Phase1",1,1,3,1,9.006,43
"1095",7,40,"Phase1",1,1,4,0,7.767,44
"1096",7,29,"Phase1",1,1,5,1,2.065,45
"1097",7,20,"Phase1",1,1,5,1,1.24,46
"1098",7,47,"Phase1",1,1,2,0,3.555,47
"1099",7,36,"Phase1",1,1,2,1,1.997,48
"1100",7,18,"Phase1",1,1,4,1,9.424,49
"1101",7,49,"Phase1",1,1,3,0,6.608,50
"1102",7,74,"Phase1",1,1,5,1,3.392,51
"1103",7,69,"Phase1",1,1,5,0,4.253,52
"1104",7,67,"Phase1",1,1,3,0,1.817,53
"1105",7,75,"Phase1",1,1,2,1,15.248,54
"1106",7,37,"Phase1",1,1,2,1,1.123,55
"1107",7,30,"Phase1",1,1,5,0,8.45,56
"1108",7,50,"Phase1",1,1,2,0,8.331,57
"1109",7,46,"Phase1",1,1,5,1,2.761,58
"1110",7,14,"Phase1",1,1,3,0,2.618,59
"1111",7,35,"Phase1",1,1,4,0,3.865,60
"1112",7,78,"Phase1",1,1,5,1,2.102,61
"1113",7,39,"Phase1",1,1,5,1,0.985,62
"1114",7,58,"Phase1",1,1,3,1,1.75,63
"1115",7,48,"Phase1",1,1,2,0,6.051,64
"1116",7,88,"Phase1",1,1,4,1,3.756,65
"1117",7,85,"Phase1",1,1,3,1,8.46,66
"1118",7,32,"Phase1",1,1,2,1,13.334,67
"1119",7,13,"Phase1",1,1,5,1,4.259,68
"1120",7,28,"Phase1",1,1,3,0,3.886,69
"1121",7,19,"Phase1",1,1,5,0,1.044,70
"1122",7,66,"Phase1",1,1,5,0,3.838,71
"1123",7,27,"Phase1",1,1,5,0,1.45,72
"1124",7,59,"Phase1",1,1,2,0,2.025,73
"1125",7,41,"Phase1",1,1,4,1,1.912,74
"1126",7,25,"Phase1",1,1,3,1,14.851,75
"1127",7,26,"Phase1",1,1,3,0,0.415,76
"1128",7,79,"Phase1",1,1,5,0,30.226,77
"1129",7,33,"Phase1",1,1,4,1,1.497,78
"1130",7,21,"Phase1",1,1,5,0,2.535,79
"1131",7,54,"Phase1",1,1,4,0,1.332,80
"1132",7,65,"Phase1",1,1,3,1,2.629,81
"1133",7,53,"Phase1",1,1,3,1,3.133,82
"1134",7,72,"Phase1",1,1,3,1,13.042,83
"1135",7,86,"Phase1",1,1,2,0,1.212,84
"1136",7,73,"Phase1",1,1,5,0,6.678,85
"1137",7,64,"Phase1",1,1,3,0,2.922,86
"1138",7,76,"Phase1",1,1,4,1,2.028,87
"1139",7,81,"Phase1",1,1,2,0,0.63,88
"1140",7,5,"Phase1",1,1,4,1,4.217,89
"1141",7,2,"Phase1",1,1,5,1,4.791,90
"1142",7,42,"Phase1",1,1,2,0,3.562,91
"1143",7,9,"Phase1",1,1,3,0,6.754,92
"1144",7,71,"Phase1",1,1,3,0,3.007,93
"1145",7,57,"Phase2",1,1,2,1,2.318,191
"1146",7,36,"Phase2",1,1,3,1,2.519,192
"1147",7,58,"Phase2",1,1,3,1,0.465,193
"1148",7,33,"Phase2",1,1,3,1,0.37,194
"1149",7,114,"Phase2",1,1,4,0,4.121,195
"1150",7,75,"Phase2",1,1,3,1,12.01,196
"1151",7,125,"Phase2",1,1,4,0,3.836,197
"1152",7,90,"Phase2",1,1,5,0,4.816,198
"1153",7,95,"Phase2",1,1,2,0,4.73,199
"1154",7,52,"Phase2",1,1,2,1,2.525,200
"1155",7,121,"Phase2",1,1,2,0,4.418,201
"1156",7,61,"Phase2",1,1,2,1,7.906,202
"1157",7,41,"Phase2",1,1,3,1,0.943,203
"1158",7,18,"Phase2",1,1,4,1,2.027,204
"1159",7,29,"Phase2",1,1,5,1,0.729,205
"1160",7,106,"Phase2",1,1,5,0,2.575,206
"1161",7,46,"Phase2",1,1,4,1,0.58,207
"1162",7,97,"Phase2",1,1,2,0,11.823,208
"1163",7,107,"Phase2",1,1,4,0,1.051,209
"1164",7,45,"Phase2",1,1,5,1,0.469,210
"1165",7,13,"Phase2",1,1,3,1,1.063,211
"1166",7,12,"Phase2",1,1,4,1,0.955,212
"1167",7,83,"Phase2",1,1,3,1,0.448,213
"1168",7,5,"Phase2",1,1,4,1,0.704,214
"1169",7,85,"Phase2",1,1,3,1,1.207,215
"1170",7,43,"Phase2",1,1,3,1,1.819,216
"1171",7,53,"Phase2",1,1,2,1,0.707,217
"1172",7,105,"Phase2",1,1,4,0,3.639,218
"1173",7,99,"Phase2",1,1,2,0,3.355,219
"1174",7,115,"Phase2",1,1,3,0,10.532,220
"1175",7,37,"Phase2",1,1,2,1,0.656,221
"1176",7,51,"Phase2",1,1,2,1,0.482,222
"1177",7,110,"Phase2",1,1,3,0,1.991,223
"1178",7,113,"Phase2",1,1,5,0,8.855,224
"1179",7,44,"Phase2",1,1,5,1,1.794,225
"1180",7,96,"Phase2",1,1,2,0,0.835,226
"1181",7,20,"Phase2",1,1,3,1,0.527,227
"1182",7,118,"Phase2",1,1,4,0,5.993,228
"1183",7,109,"Phase2",1,1,5,0,5.094,229
"1184",7,120,"Phase2",1,1,3,0,4.899,230
"1185",7,89,"Phase2",1,1,2,0,0.999,231
"1186",7,129,"Phase2",1,1,3,0,3.259,232
"1187",7,132,"Phase2",1,1,3,0,1.904,233
"1188",7,32,"Phase2",1,1,3,1,0.619,234
"1189",7,103,"Phase2",1,1,2,0,4.593,235
"1190",7,72,"Phase2",1,1,3,1,0.592,236
"1191",7,119,"Phase2",1,1,4,0,5.006,237
"1192",7,91,"Phase2",1,1,5,0,1.467,238
"1193",7,102,"Phase2",1,1,4,0,2.477,239
"1194",7,128,"Phase2",1,1,4,0,1.215,240
"1195",7,2,"Phase2",1,1,4,1,1.108,241
"1196",7,78,"Phase2",1,1,4,1,3.566,242
"1197",7,39,"Phase2",1,1,5,1,0.549,243
"1198",7,23,"Phase2",1,1,2,1,0.553,244
"1199",7,62,"Phase2",1,1,2,1,0.561,245
"1200",7,127,"Phase2",1,1,2,0,0.479,246
"1201",7,101,"Phase2",1,1,4,0,0.82,247
"1202",7,94,"Phase2",1,1,2,0,0.852,248
"1203",7,108,"Phase2",1,1,2,0,0.532,249
"1204",7,130,"Phase2",1,1,3,0,0.921,250
"1205",7,100,"Phase2",1,1,3,0,1.921,251
"1206",7,87,"Phase2",1,1,4,1,2.147,252
"1207",7,112,"Phase2",1,1,4,0,0.484,253
"1208",7,124,"Phase2",1,1,5,0,0.524,254
"1209",7,88,"Phase2",1,1,3,1,2.074,255
"1210",7,15,"Phase2",1,1,4,1,0.659,256
"1211",7,93,"Phase2",1,1,5,0,1.02,257
"1212",7,123,"Phase2",1,1,5,0,1.165,258
"1213",7,92,"Phase2",1,1,4,0,0.728,259
"1214",7,126,"Phase2",1,1,3,0,3.784,260
"1215",7,7,"Phase2",1,1,5,1,0.564,261
"1216",7,68,"Phase2",1,1,4,1,0.637,262
"1217",7,111,"Phase2",1,1,3,0,0.841,263
"1218",7,131,"Phase2",1,1,3,0,1.416,264
"1219",7,74,"Phase2",1,1,4,1,7.568,265
"1220",7,25,"Phase2",1,1,3,1,0.884,266
"1221",7,17,"Phase2",1,1,5,1,0.561,267
"1222",7,65,"Phase2",1,1,3,1,1.271,268
"1223",7,60,"Phase2",1,1,5,1,0.537,269
"1224",7,116,"Phase2",1,1,2,0,0.472,270
"1225",7,4,"Phase2",1,1,5,1,0.524,271
"1226",7,122,"Phase2",1,1,4,0,1.406,272
"1227",7,55,"Phase2",1,1,5,1,0.523,273
"1228",7,76,"Phase2",1,1,5,1,0.493,274
"1229",7,117,"Phase2",1,1,3,0,2.302,275
"1230",7,104,"Phase2",1,1,5,0,0.578,276
"1231",7,77,"Phase2",1,1,5,1,0.463,277
"1232",7,98,"Phase2",1,1,2,0,0.53,278
"1233",8,106,"Phase1",1,1,4,0,3.209,6
"1234",8,96,"Phase1",1,1,2,0,1.178,7
"1235",8,131,"Phase1",1,1,3,0,1.55,8
"1236",8,115,"Phase1",1,1,4,0,8.258,9
"1237",8,48,"Phase1",1,1,5,1,0.895,10
"1238",8,125,"Phase1",1,1,5,0,0.934,11
"1239",8,27,"Phase1",1,1,5,1,1.028,12
"1240",8,121,"Phase1",1,1,2,0,4.538,13
"1241",8,109,"Phase1",1,1,5,0,1.549,14
"1242",8,105,"Phase1",1,1,2,0,1.683,15
"1243",8,122,"Phase1",1,1,5,0,0.751,16
"1244",8,100,"Phase1",1,1,4,0,3.54,17
"1245",8,59,"Phase1",1,1,5,1,1.344,18
"1246",8,118,"Phase1",1,1,2,0,15.661,19
"1247",8,127,"Phase1",1,1,2,0,1.305,20
"1248",8,38,"Phase1",1,1,4,1,0.69,21
"1249",8,113,"Phase1",1,1,4,0,2.524,22
"1250",8,8,"Phase1",1,1,4,1,0.723,23
"1251",8,123,"Phase1",1,1,6,0,1.436,24
"1252",8,1,"Phase1",1,1,5,1,0.677,25
"1253",8,103,"Phase1",1,1,3,0,1.004,26
"1254",8,129,"Phase1",1,1,3,0,1.649,27
"1255",8,117,"Phase1",1,1,5,0,1.321,28
"1256",8,10,"Phase1",1,1,5,1,0.733,29
"1257",8,34,"Phase1",1,1,3,1,6.951,30
"1258",8,42,"Phase1",1,1,4,1,1.602,31
"1259",8,124,"Phase1",1,1,5,0,2.83,32
"1260",8,91,"Phase1",1,1,2,0,4.6,33
"1261",8,64,"Phase1",1,1,4,1,3.184,34
"1262",8,86,"Phase1",1,1,2,1,1.371,35
"1263",8,84,"Phase1",1,1,4,1,1.337,36
"1264",8,11,"Phase1",1,1,4,1,1.536,37
"1265",8,49,"Phase1",1,1,3,1,4.851,38
"1266",8,71,"Phase1",1,1,5,1,5.259,39
"1267",8,97,"Phase1",1,1,3,0,1.85,40
"1268",8,6,"Phase1",1,1,4,1,1.91,41
"1269",8,110,"Phase1",1,1,2,0,1.392,42
"1270",8,9,"Phase1",1,1,2,1,22.671,43
"1271",8,81,"Phase1",1,1,3,1,1.84,44
"1272",8,80,"Phase1",1,1,2,1,1.067,45
"1273",8,108,"Phase1",1,1,5,0,3.952,46
"1274",8,24,"Phase1",1,1,3,1,0.815,47
"1275",8,92,"Phase1",1,1,2,0,1.103,48
"1276",8,40,"Phase1",1,1,4,1,1.167,49
"1277",8,114,"Phase1",1,1,4,0,1.816,50
"1278",8,112,"Phase1",1,1,4,0,0.557,51
"1279",8,95,"Phase1",1,1,4,0,2.523,52
"1280",8,14,"Phase1",1,1,4,1,2.796,53
"1281",8,116,"Phase1",1,1,5,0,1.001,54
"1282",8,120,"Phase1",1,1,3,0,4.189,55
"1283",8,26,"Phase1",1,1,5,1,0.84,56
"1284",8,102,"Phase1",1,1,4,0,1.376,57
"1285",8,21,"Phase1",1,1,3,1,5.231,58
"1286",8,111,"Phase1",1,1,3,0,1.956,59
"1287",8,90,"Phase1",1,1,4,0,6.671,60
"1288",8,82,"Phase1",1,1,2,1,4.677,61
"1289",8,130,"Phase1",1,1,4,0,1.463,62
"1290",8,56,"Phase1",1,1,5,1,3.207,63
"1291",8,50,"Phase1",1,1,4,1,1.589,64
"1292",8,126,"Phase1",1,1,4,0,1.759,65
"1293",8,63,"Phase1",1,1,4,1,0.766,66
"1294",8,99,"Phase1",1,1,5,0,2.607,67
"1295",8,35,"Phase1",1,1,5,1,1.388,68
"1296",8,3,"Phase1",1,1,3,1,1.216,69
"1297",8,128,"Phase1",1,1,4,0,7.448,70
"1298",8,132,"Phase1",1,1,3,0,0.927,71
"1299",8,30,"Phase1",1,1,3,1,7.697,72
"1300",8,70,"Phase1",1,1,4,1,1.618,73
"1301",8,104,"Phase1",1,1,3,0,4.037,74
"1302",8,79,"Phase1",1,1,4,1,10.679,75
"1303",8,16,"Phase1",1,1,5,1,6.606,76
"1304",8,98,"Phase1",1,1,3,0,1.245,77
"1305",8,94,"Phase1",1,1,2,0,0.644,78
"1306",8,47,"Phase1",1,1,4,1,8.241,79
"1307",8,69,"Phase1",1,1,4,1,1.651,80
"1308",8,93,"Phase1",1,1,5,0,1.797,81
"1309",8,28,"Phase1",1,1,3,1,3.58,82
"1310",8,66,"Phase1",1,1,4,1,0.897,83
"1311",8,89,"Phase1",1,1,3,0,4.903,84
"1312",8,101,"Phase1",1,1,1,0,2.117,85
"1313",8,22,"Phase1",1,1,4,1,0.623,86
"1314",8,54,"Phase1",1,1,5,1,1.351,87
"1315",8,107,"Phase1",1,1,3,0,5.314,88
"1316",8,31,"Phase1",1,1,4,1,5.463,89
"1317",8,19,"Phase1",1,1,5,1,1.455,90
"1318",8,67,"Phase1",1,1,3,1,1.732,91
"1319",8,73,"Phase1",1,1,5,1,0.657,92
"1320",8,119,"Phase1",1,1,5,0,0.655,93
"1321",8,80,"Phase2",1,1,2,1,2.603,191
"1322",8,6,"Phase2",1,1,3,1,0.883,192
"1323",8,72,"Phase2",1,1,3,0,3.034,193
"1324",8,29,"Phase2",1,1,4,0,3.414,194
"1325",8,7,"Phase2",1,1,4,0,1.094,195
"1326",8,57,"Phase2",1,1,4,0,1.325,196
"1327",8,56,"Phase2",1,1,5,1,0.703,197
"1328",8,60,"Phase2",1,1,3,0,5.337,198
"1329",8,49,"Phase2",1,1,3,1,0.602,199
"1330",8,85,"Phase2",1,1,3,0,5.771,200
"1331",8,47,"Phase2",1,1,4,1,0.468,201
"1332",8,52,"Phase2",1,1,2,0,6.21,202
"1333",8,84,"Phase2",1,1,3,1,0.521,203
"1334",8,2,"Phase2",1,1,3,0,3.832,204
"1335",8,61,"Phase2",1,1,4,0,1.065,205
"1336",8,54,"Phase2",1,1,5,1,0.82,206
"1337",8,25,"Phase2",1,1,6,0,1.834,207
"1338",8,41,"Phase2",1,1,3,0,0.888,208
"1339",8,50,"Phase2",1,1,4,1,0.543,209
"1340",8,30,"Phase2",1,1,3,1,0.651,210
"1341",8,20,"Phase2",1,1,4,0,2.525,211
"1342",8,51,"Phase2",1,1,3,0,3.138,212
"1343",8,75,"Phase2",1,1,5,0,2.193,213
"1344",8,14,"Phase2",1,1,4,1,0.884,214
"1345",8,76,"Phase2",1,1,4,0,0.608,215
"1346",8,70,"Phase2",1,1,4,1,0.752,216
"1347",8,58,"Phase2",1,1,2,0,0.636,217
"1348",8,23,"Phase2",1,1,3,0,2.803,218
"1349",8,63,"Phase2",1,1,5,1,0.669,219
"1350",8,82,"Phase2",1,1,3,1,0.74,220
"1351",8,19,"Phase2",1,1,5,1,0.752,221
"1352",8,26,"Phase2",1,1,5,1,0.815,222
"1353",8,24,"Phase2",1,1,3,1,0.708,223
"1354",8,43,"Phase2",1,1,3,0,8.785,224
"1355",8,28,"Phase2",1,1,3,1,0.822,225
"1356",8,21,"Phase2",1,1,3,1,2.302,226
"1357",8,68,"Phase2",1,1,5,0,0.716,227
"1358",8,48,"Phase2",1,1,5,1,0.703,228
"1359",8,22,"Phase2",1,1,4,1,0.552,229
"1360",8,69,"Phase2",1,1,4,1,0.829,230
"1361",8,18,"Phase2",1,1,5,0,2.889,231
"1362",8,4,"Phase2",1,1,4,0,1.844,232
"1363",8,34,"Phase2",1,1,3,1,0.683,233
"1364",8,32,"Phase2",1,1,3,0,3.887,234
"1365",8,78,"Phase2",1,1,4,0,0.756,235
"1366",8,38,"Phase2",1,1,4,1,0.524,236
"1367",8,73,"Phase2",1,1,5,1,0.756,237
"1368",8,35,"Phase2",1,1,5,1,0.794,238
"1369",8,8,"Phase2",1,1,5,1,0.619,239
"1370",8,77,"Phase2",1,1,4,0,3.971,240
"1371",8,87,"Phase2",1,1,3,0,2.03,241
"1372",8,79,"Phase2",1,1,4,1,0.781,242
"1373",8,16,"Phase2",1,1,4,1,0.697,243
"1374",8,40,"Phase2",1,1,4,1,0.501,244
"1375",8,31,"Phase2",1,1,4,1,0.784,245
"1376",8,83,"Phase2",1,1,6,0,0.806,246
"1377",8,9,"Phase2",1,1,3,1,0.673,247
"1378",8,74,"Phase2",1,1,4,0,5.52,248
"1379",8,67,"Phase2",1,1,3,1,0.551,249
"1380",8,65,"Phase2",1,1,3,0,1.001,250
"1381",8,86,"Phase2",1,1,3,1,0.629,251
"1382",8,15,"Phase2",1,1,4,0,1.245,252
"1383",8,81,"Phase2",1,1,4,1,0.555,253
"1384",8,59,"Phase2",1,1,5,1,0.72,254
"1385",8,3,"Phase2",1,1,3,1,0.622,255
"1386",8,37,"Phase2",1,1,4,0,0.845,256
"1387",8,33,"Phase2",1,1,4,0,2.069,257
"1388",8,46,"Phase2",1,1,3,0,7.237,258
"1389",8,12,"Phase2",1,1,3,0,2.285,259
"1390",8,44,"Phase2",1,1,2,0,1.76,260
"1391",8,53,"Phase2",1,1,3,0,1.301,261
"1392",8,71,"Phase2",1,1,5,1,0.896,262
"1393",8,10,"Phase2",1,1,5,1,0.783,263
"1394",8,42,"Phase2",1,1,5,1,0.602,264
"1395",8,39,"Phase2",1,1,4,0,0.958,265
"1396",8,17,"Phase2",1,1,3,0,8.14,266
"1397",8,1,"Phase2",1,1,5,1,0.53,267
"1398",8,36,"Phase2",1,1,4,0,0.963,268
"1399",8,5,"Phase2",1,1,4,0,3.546,269
"1400",8,66,"Phase2",1,1,4,1,0.516,270
"1401",8,88,"Phase2",1,1,4,0,7.511,271
"1402",8,64,"Phase2",1,1,4,1,0.5,272
"1403",8,62,"Phase2",1,1,3,0,0.799,273
"1404",8,45,"Phase2",1,1,3,0,3.241,274
"1405",8,13,"Phase2",1,1,5,0,0.982,275
"1406",8,55,"Phase2",1,1,4,0,0.641,276
"1407",8,11,"Phase2",1,1,5,1,0.723,277
"1408",8,27,"Phase2",1,1,4,1,0.498,278
"1409",9,94,"Phase1",1,1,5,1,1.263,6
"1410",9,25,"Phase1",1,1,4,0,1.606,7
"1411",9,39,"Phase1",1,1,4,0,1.208,8
"1412",9,5,"Phase1",1,1,5,0,1.292,9
"1413",9,18,"Phase1",1,1,6,0,1.287,10
"1414",9,45,"Phase1",1,1,5,0,3.261,11
"1415",9,15,"Phase1",1,1,4,0,2.251,12
"1416",9,101,"Phase1",1,1,4,1,1.793,13
"1417",9,95,"Phase1",1,1,1,1,3.405,14
"1418",9,51,"Phase1",1,1,5,0,4.564,15
"1419",9,110,"Phase1",1,1,4,1,1.449,16
"1420",9,72,"Phase1",1,1,5,0,1.356,17
"1421",9,41,"Phase1",1,1,5,0,0.67,18
"1422",9,116,"Phase1",1,1,5,1,4.954,19
"1423",9,2,"Phase1",1,1,3,0,1.789,20
"1424",9,121,"Phase1",1,1,1,1,3.031,21
"1425",9,23,"Phase1",1,1,4,0,1.247,22
"1426",9,46,"Phase1",1,1,6,0,0.782,23
"1427",9,85,"Phase1",1,1,4,0,0.549,24
"1428",9,36,"Phase1",1,1,4,0,4.55,25
"1429",9,57,"Phase1",1,1,4,0,2.386,26
"1430",9,76,"Phase1",1,1,3,0,2.277,27
"1431",9,126,"Phase1",1,1,4,1,0.78,28
"1432",9,60,"Phase1",1,1,4,0,1.048,29
"1433",9,130,"Phase1",1,1,6,1,0.815,30
"1434",9,97,"Phase1",1,1,4,1,0.963,31
"1435",9,20,"Phase1",1,1,4,0,1.709,32
"1436",9,91,"Phase1",1,1,4,1,0.536,33
"1437",9,104,"Phase1",1,1,3,1,1.189,34
"1438",9,111,"Phase1",1,1,3,1,0.704,35
"1439",9,55,"Phase1",1,1,3,0,0.496,36
"1440",9,118,"Phase1",1,1,5,1,1.39,37
"1441",9,87,"Phase1",1,1,3,0,1.791,38
"1442",9,127,"Phase1",1,1,5,1,0.767,39
"1443",9,114,"Phase1",1,1,6,1,0.788,40
"1444",9,62,"Phase1",1,1,3,0,1.142,41
"1445",9,113,"Phase1",1,1,5,1,0.797,42
"1446",9,43,"Phase1",1,1,3,0,1.565,43
"1447",9,102,"Phase1",1,1,4,1,0.542,44
"1448",9,33,"Phase1",1,1,2,0,0.986,45
"1449",9,89,"Phase1",1,1,4,1,0.549,46
"1450",9,53,"Phase1",1,1,5,0,0.68,47
"1451",9,119,"Phase1",1,1,3,1,1.741,48
"1452",9,100,"Phase1",1,1,4,1,0.479,49
"1453",9,128,"Phase1",1,1,4,1,0.919,50
"1454",9,88,"Phase1",1,1,3,0,2.872,51
"1455",9,93,"Phase1",1,1,6,1,1.207,52
"1456",9,44,"Phase1",1,1,3,0,2.612,53
"1457",9,107,"Phase1",1,1,3,1,1.348,54
"1458",9,68,"Phase1",1,1,4,0,1.707,55
"1459",9,99,"Phase1",1,1,3,1,3.202,56
"1460",9,74,"Phase1",1,1,4,0,0.57,57
"1461",9,132,"Phase1",1,1,4,1,0.634,58
"1462",9,4,"Phase1",1,1,3,0,2.152,59
"1463",9,106,"Phase1",1,1,4,1,2.579,60
"1464",9,112,"Phase1",1,1,4,1,0.591,61
"1465",9,37,"Phase1",1,1,5,0,0.754,62
"1466",9,108,"Phase1",1,1,4,1,1.579,63
"1467",9,61,"Phase1",1,1,4,0,1.078,64
"1468",9,96,"Phase1",1,1,4,1,2.35,65
"1469",9,115,"Phase1",1,1,3,1,3.592,66
"1470",9,122,"Phase1",1,1,4,1,0.53,67
"1471",9,7,"Phase1",1,1,4,0,1.842,68
"1472",9,98,"Phase1",1,1,4,1,0.716,69
"1473",9,125,"Phase1",1,1,4,1,1.091,70
"1474",9,120,"Phase1",1,1,3,1,3.348,71
"1475",9,83,"Phase1",1,1,4,0,2.361,72
"1476",9,58,"Phase1",1,1,5,0,0.667,73
"1477",9,29,"Phase1",1,1,4,0,1.091,74
"1478",9,131,"Phase1",1,1,3,1,1.769,75
"1479",9,52,"Phase1",1,1,3,0,1.282,76
"1480",9,117,"Phase1",1,1,3,1,2.618,77
"1481",9,124,"Phase1",1,1,4,1,1.531,78
"1482",9,17,"Phase1",1,1,5,0,1.262,79
"1483",9,103,"Phase1",1,1,4,1,0.455,80
"1484",9,75,"Phase1",1,1,3,0,2.421,81
"1485",9,109,"Phase1",1,1,5,1,0.89,82
"1486",9,123,"Phase1",1,1,5,1,0.837,83
"1487",9,77,"Phase1",1,1,4,0,2.048,84
"1488",9,92,"Phase1",1,1,4,1,0.7,85
"1489",9,78,"Phase1",1,1,4,0,1.15,86
"1490",9,90,"Phase1",1,1,4,1,1.152,87
"1491",9,13,"Phase1",1,1,4,0,0.97,88
"1492",9,105,"Phase1",1,1,3,1,2.035,89
"1493",9,32,"Phase1",1,1,3,0,1.638,90
"1494",9,12,"Phase1",1,1,3,0,5.318,91
"1495",9,65,"Phase1",1,1,3,0,1.486,92
"1496",9,129,"Phase1",1,1,4,1,0.598,93
"1497",9,92,"Phase2",1,1,4,1,0.714,191
"1498",9,1,"Phase2",1,1,5,0,0.586,192
"1499",9,28,"Phase2",1,1,4,0,3.371,193
"1500",9,11,"Phase2",1,1,3,0,1.952,194
"1501",9,97,"Phase2",1,1,4,1,7.91,195
"1502",9,80,"Phase2",1,1,4,0,1.699,196
"1503",9,70,"Phase2",1,1,3,0,0.441,197
"1504",9,67,"Phase2",1,1,4,0,2.872,198
"1505",9,19,"Phase2",1,1,4,0,1.222,199
"1506",9,95,"Phase2",1,1,1,1,1.6,200
"1507",9,42,"Phase2",1,1,4,0,2.406,201
"1508",9,112,"Phase2",1,1,4,1,5.151,202
"1509",9,3,"Phase2",1,1,4,0,0.685,203
"1510",9,125,"Phase2",1,1,4,1,0.912,204
"1511",9,127,"Phase2",1,1,4,1,0.504,205
"1512",9,48,"Phase2",1,1,3,0,2.383,206
"1513",9,106,"Phase2",1,1,4,1,0.782,207
"1514",9,34,"Phase2",1,1,4,0,1.274,208
"1515",9,73,"Phase2",1,1,4,0,5.007,209
"1516",9,82,"Phase2",1,1,3,0,0.581,210
"1517",9,27,"Phase2",1,1,4,0,1.349,211
"1518",9,14,"Phase2",1,1,3,0,0.449,212
"1519",9,63,"Phase2",1,1,4,0,2.573,213
"1520",9,121,"Phase2",1,1,2,1,0.562,214
"1521",9,93,"Phase2",1,1,6,1,0.932,215
"1522",9,50,"Phase2",1,1,2,0,5.25,216
"1523",9,79,"Phase2",1,1,4,0,0.761,217
"1524",9,89,"Phase2",1,1,4,1,0.612,218
"1525",9,122,"Phase2",1,1,5,1,0.995,219
"1526",9,117,"Phase2",1,1,3,1,2.214,220
"1527",9,6,"Phase2",1,1,3,0,5.596,221
"1528",9,113,"Phase2",1,1,4,1,1.149,222
"1529",9,56,"Phase2",1,1,3,0,0.684,223
"1530",9,94,"Phase2",1,1,5,1,0.512,224
"1531",9,116,"Phase2",1,1,4,1,5.188,225
"1532",9,118,"Phase2",1,1,5,1,0.883,226
"1533",9,54,"Phase2",1,1,4,0,2.753,227
"1534",9,9,"Phase2",1,1,3,0,1.302,228
"1535",9,22,"Phase2",1,1,4,0,0.951,229
"1536",9,104,"Phase2",1,1,2,1,4.607,230
"1537",9,21,"Phase2",1,1,4,0,1.769,231
"1538",9,114,"Phase2",1,1,6,1,0.611,232
"1539",9,31,"Phase2",1,1,4,0,2.082,233
"1540",9,38,"Phase2",1,1,4,0,1.672,234
"1541",9,40,"Phase2",1,1,5,0,0.931,235
"1542",9,8,"Phase2",1,1,2,0,1.584,236
"1543",9,24,"Phase2",1,1,3,0,0.812,237
"1544",9,132,"Phase2",1,1,4,1,0.637,238
"1545",9,91,"Phase2",1,1,4,1,1.722,239
"1546",9,81,"Phase2",1,1,4,0,2.546,240
"1547",9,16,"Phase2",1,1,5,0,0.736,241
"1548",9,131,"Phase2",1,1,2,1,2.267,242
"1549",9,102,"Phase2",1,1,4,1,0.451,243
"1550",9,128,"Phase2",1,1,3,1,2.775,244
"1551",9,110,"Phase2",1,1,4,1,4.356,245
"1552",9,120,"Phase2",1,1,3,1,2.805,246
"1553",9,100,"Phase2",1,1,4,1,0.617,247
"1554",9,59,"Phase2",1,1,4,0,1.062,248
"1555",9,99,"Phase2",1,1,4,1,3.404,249
"1556",9,109,"Phase2",1,1,4,1,0.606,250
"1557",9,107,"Phase2",1,1,2,1,0.693,251
"1558",9,108,"Phase2",1,1,5,1,0.638,252
"1559",9,49,"Phase2",1,1,5,0,1.398,253
"1560",9,64,"Phase2",1,1,4,0,1.081,254
"1561",9,71,"Phase2",1,1,2,0,1.523,255
"1562",9,86,"Phase2",1,1,5,0,1.401,256
"1563",9,124,"Phase2",1,1,4,1,2.443,257
"1564",9,129,"Phase2",1,1,4,1,0.638,258
"1565",9,101,"Phase2",1,1,4,1,0.73,259
"1566",9,119,"Phase2",1,1,3,1,1.813,260
"1567",9,35,"Phase2",1,1,4,0,3.431,261
"1568",9,66,"Phase2",1,1,4,0,0.942,262
"1569",9,69,"Phase2",1,1,3,0,1.087,263
"1570",9,26,"Phase2",1,1,4,0,1.464,264
"1571",9,96,"Phase2",1,1,4,1,0.516,265
"1572",9,90,"Phase2",1,1,3,1,1.044,266
"1573",9,126,"Phase2",1,1,4,1,0.627,267
"1574",9,103,"Phase2",1,1,4,1,0.838,268
"1575",9,10,"Phase2",1,1,2,0,0.486,269
"1576",9,105,"Phase2",1,1,3,1,0.562,270
"1577",9,30,"Phase2",1,1,4,0,1.261,271
"1578",9,84,"Phase2",1,1,3,0,1.299,272
"1579",9,98,"Phase2",1,1,4,1,0.49,273
"1580",9,130,"Phase2",1,1,6,1,0.815,274
"1581",9,47,"Phase2",1,1,1,0,1.45,275
"1582",9,111,"Phase2",1,1,3,1,0.594,276
"1583",9,115,"Phase2",1,1,3,1,2.22,277
"1584",9,123,"Phase2",1,1,5,1,0.546,278
"1585",10,27,"Phase1",1,1,5,0,3.14,6
"1586",10,83,"Phase1",1,1,5,1,10.642,7
"1587",10,20,"Phase1",1,1,4,1,1.457,8
"1588",10,57,"Phase1",1,1,3,1,3.287,9
"1589",10,48,"Phase1",1,1,4,0,1.419,10
"1590",10,54,"Phase1",1,1,4,0,2.121,11
"1591",10,12,"Phase1",1,1,5,1,1.037,12
"1592",10,33,"Phase1",1,1,3,1,2.398,13
"1593",10,76,"Phase1",1,1,4,1,3.079,14
"1594",10,3,"Phase1",1,1,4,0,1.236,15
"1595",10,46,"Phase1",1,1,4,1,12.173,16
"1596",10,50,"Phase1",1,1,3,0,0.961,17
"1597",10,10,"Phase1",1,1,3,0,1.179,18
"1598",10,63,"Phase1",1,1,3,0,2.428,19
"1599",10,22,"Phase1",1,1,4,0,1.033,20
"1600",10,85,"Phase1",1,1,3,1,1.425,21
"1601",10,58,"Phase1",1,1,3,1,1.641,22
"1602",10,14,"Phase1",1,1,2,0,1.514,23
"1603",10,21,"Phase1",1,1,3,0,7.986,24
"1604",10,78,"Phase1",1,1,5,1,0.701,25
"1605",10,67,"Phase1",1,1,3,0,1.778,26
"1606",10,8,"Phase1",1,1,4,0,2.306,27
"1607",10,6,"Phase1",1,1,4,0,0.867,28
"1608",10,9,"Phase1",1,1,4,0,0.546,29
"1609",10,32,"Phase1",1,1,3,1,6.424,30
"1610",10,40,"Phase1",1,1,5,0,1.363,31
"1611",10,7,"Phase1",1,1,5,1,0.949,32
"1612",10,43,"Phase1",1,1,3,1,4.021,33
"1613",10,56,"Phase1",1,1,6,0,2.215,34
"1614",10,2,"Phase1",1,1,6,1,0.906,35
"1615",10,42,"Phase1",1,1,4,0,1.407,36
"1616",10,80,"Phase1",1,1,5,0,1.244,37
"1617",10,1,"Phase1",1,1,4,0,0.778,38
"1618",10,81,"Phase1",1,1,3,0,2.074,39
"1619",10,45,"Phase1",1,1,3,1,1.256,40
"1620",10,4,"Phase1",1,1,5,1,1.056,41
"1621",10,75,"Phase1",1,1,5,1,0.925,42
"1622",10,13,"Phase1",1,1,5,1,1.271,43
"1623",10,28,"Phase1",1,1,4,0,1.261,44
"1624",10,73,"Phase1",1,1,5,0,0.64,45
"1625",10,19,"Phase1",1,1,3,0,0.732,46
"1626",10,69,"Phase1",1,1,5,0,0.487,47
"1627",10,30,"Phase1",1,1,5,0,1.592,48
"1628",10,39,"Phase1",1,1,4,1,0.501,49
"1629",10,84,"Phase1",1,1,4,0,0.662,50
"1630",10,72,"Phase1",1,1,2,1,4.096,51
"1631",10,61,"Phase1",1,1,4,1,1.2,52
"1632",10,18,"Phase1",1,1,4,1,4.248,53
"1633",10,82,"Phase1",1,1,5,0,0.692,54
"1634",10,11,"Phase1",1,1,3,0,1.772,55
"1635",10,88,"Phase1",1,1,5,1,2.738,56
"1636",10,49,"Phase1",1,1,3,0,3.008,57
"1637",10,59,"Phase1",1,1,3,0,0.976,58
"1638",10,24,"Phase1",1,1,5,0,0.895,59
"1639",10,35,"Phase1",1,1,5,0,2.593,60
"1640",10,41,"Phase1",1,1,5,1,0.7,61
"1641",10,71,"Phase1",1,1,5,0,0.832,62
"1642",10,66,"Phase1",1,1,3,0,0.82,63
"1643",10,53,"Phase1",1,1,4,1,2.056,64
"1644",10,25,"Phase1",1,1,6,1,0.864,65
"1645",10,79,"Phase1",1,1,4,0,0.844,66
"1646",10,31,"Phase1",1,1,3,0,1.076,67
"1647",10,38,"Phase1",1,1,4,0,0.978,68
"1648",10,47,"Phase1",1,1,1,0,0.607,69
"1649",10,86,"Phase1",1,1,5,0,0.598,70
"1650",10,70,"Phase1",1,1,4,0,0.611,71
"1651",10,65,"Phase1",1,1,4,1,0.598,72
"1652",10,37,"Phase1",1,1,5,1,0.861,73
"1653",10,16,"Phase1",1,1,1,0,1.854,74
"1654",10,60,"Phase1",1,1,4,1,2.275,75
"1655",10,64,"Phase1",1,1,1,0,1.127,76
"1656",10,62,"Phase1",1,1,4,1,0.916,77
"1657",10,74,"Phase1",1,1,4,1,0.669,78
"1658",10,36,"Phase1",1,1,4,1,0.795,79
"1659",10,29,"Phase1",1,1,4,1,0.96,80
"1660",10,34,"Phase1",1,1,3,0,1.633,81
"1661",10,52,"Phase1",1,1,1,1,5.038,82
"1662",10,87,"Phase1",1,1,4,1,1.934,83
"1663",10,77,"Phase1",1,1,4,1,1.011,84
"1664",10,55,"Phase1",1,1,5,1,1.113,85
"1665",10,44,"Phase1",1,1,5,1,3.163,86
"1666",10,17,"Phase1",1,1,5,1,1.11,87
"1667",10,51,"Phase1",1,1,1,1,2.435,88
"1668",10,23,"Phase1",1,1,3,1,0.994,89
"1669",10,15,"Phase1",1,1,3,1,0.787,90
"1670",10,5,"Phase1",1,1,3,1,1.098,91
"1671",10,26,"Phase1",1,1,4,0,0.739,92
"1672",10,68,"Phase1",1,1,4,1,1.592,93
"1673",10,39,"Phase2",1,1,4,1,0.758,191
"1674",10,25,"Phase2",1,1,6,1,0.806,192
"1675",10,41,"Phase2",1,1,6,1,1.553,193
"1676",10,77,"Phase2",1,1,5,1,0.868,194
"1677",10,106,"Phase2",1,1,4,0,1.195,195
"1678",10,85,"Phase2",1,1,3,1,2.211,196
"1679",10,100,"Phase2",1,1,4,0,9.686,197
"1680",10,36,"Phase2",1,1,4,1,7.663,198
"1681",10,53,"Phase2",1,1,4,1,0.767,199
"1682",10,57,"Phase2",1,1,3,1,0.516,200
"1683",10,104,"Phase2",1,1,4,0,2.86,201
"1684",10,7,"Phase2",1,1,4,1,1.423,202
"1685",10,124,"Phase2",1,1,4,0,0.976,203
"1686",10,125,"Phase2",1,1,4,0,0.818,204
"1687",10,129,"Phase2",1,1,4,0,0.461,205
"1688",10,99,"Phase2",1,1,4,0,0.53,206
"1689",10,93,"Phase2",1,1,5,0,0.584,207
"1690",10,18,"Phase2",1,1,4,1,0.389,208
"1691",10,23,"Phase2",1,1,3,1,0.549,209
"1692",10,122,"Phase2",1,1,4,0,1.127,210
"1693",10,91,"Phase2",1,1,4,0,0.604,211
"1694",10,60,"Phase2",1,1,3,1,0.498,212
"1695",10,120,"Phase2",1,1,3,0,4.294,213
"1696",10,105,"Phase2",1,1,4,0,0.93,214
"1697",10,89,"Phase2",1,1,5,0,0.696,215
"1698",10,29,"Phase2",1,1,4,1,1.978,216
"1699",10,130,"Phase2",1,1,5,0,0.8,217
"1700",10,103,"Phase2",1,1,4,0,0.645,218
"1701",10,44,"Phase2",1,1,5,1,0.668,219
"1702",10,95,"Phase2",1,1,3,0,2.113,220
"1703",10,55,"Phase2",1,1,4,1,0.551,221
"1704",10,115,"Phase2",1,1,4,0,4.587,222
"1705",10,51,"Phase2",1,1,1,1,0.518,223
"1706",10,108,"Phase2",1,1,3,0,2.313,224
"1707",10,83,"Phase2",1,1,4,1,0.564,225
"1708",10,62,"Phase2",1,1,4,1,0.525,226
"1709",10,113,"Phase2",1,1,4,0,0.38,227
"1710",10,102,"Phase2",1,1,4,0,1.166,228
"1711",10,75,"Phase2",1,1,4,1,0.655,229
"1712",10,90,"Phase2",1,1,2,0,0.553,230
"1713",10,46,"Phase2",1,1,4,1,3.09,231
"1714",10,52,"Phase2",1,1,1,1,0.817,232
"1715",10,119,"Phase2",1,1,3,0,1.146,233
"1716",10,112,"Phase2",1,1,5,0,0.584,234
"1717",10,98,"Phase2",1,1,3,0,0.689,235
"1718",10,33,"Phase2",1,1,3,1,0.505,236
"1719",10,20,"Phase2",1,1,4,1,0.542,237
"1720",10,111,"Phase2",1,1,3,0,4.21,238
"1721",10,121,"Phase2",1,1,2,0,1.123,239
"1722",10,15,"Phase2",1,1,3,1,0.549,240
"1723",10,58,"Phase2",1,1,2,1,0.74,241
"1724",10,76,"Phase2",1,1,4,1,0.484,242
"1725",10,78,"Phase2",1,1,4,1,0.499,243
"1726",10,123,"Phase2",1,1,4,0,2.743,244
"1727",10,74,"Phase2",1,1,4,1,0.621,245
"1728",10,17,"Phase2",1,1,5,1,0.638,246
"1729",10,97,"Phase2",1,1,3,0,0.593,247
"1730",10,32,"Phase2",1,1,3,1,0.723,248
"1731",10,118,"Phase2",1,1,6,0,2.276,249
"1732",10,96,"Phase2",1,1,3,0,2.428,250
"1733",10,132,"Phase2",1,1,3,0,0.522,251
"1734",10,4,"Phase2",1,1,5,1,0.791,252
"1735",10,128,"Phase2",1,1,2,0,1.976,253
"1736",10,72,"Phase2",1,1,2,1,2.892,254
"1737",10,114,"Phase2",1,1,4,0,0.797,255
"1738",10,12,"Phase2",1,1,6,1,0.732,256
"1739",10,43,"Phase2",1,1,4,1,0.523,257
"1740",10,2,"Phase2",1,1,6,1,0.661,258
"1741",10,127,"Phase2",1,1,6,0,0.715,259
"1742",10,107,"Phase2",1,1,5,0,0.925,260
"1743",10,87,"Phase2",1,1,4,1,0.69,261
"1744",10,45,"Phase2",1,1,3,1,0.574,262
"1745",10,37,"Phase2",1,1,4,1,0.491,263
"1746",10,65,"Phase2",1,1,3,1,0.428,264
"1747",10,126,"Phase2",1,1,3,0,2.714,265
"1748",10,109,"Phase2",1,1,5,0,0.637,266
"1749",10,5,"Phase2",1,1,4,1,1.124,267
"1750",10,131,"Phase2",1,1,4,0,2.724,268
"1751",10,88,"Phase2",1,1,5,1,0.754,269
"1752",10,61,"Phase2",1,1,3,1,0.486,270
"1753",10,117,"Phase2",1,1,5,0,0.582,271
"1754",10,101,"Phase2",1,1,4,0,0.807,272
"1755",10,94,"Phase2",1,1,5,0,1.358,273
"1756",10,13,"Phase2",1,1,4,1,0.474,274
"1757",10,110,"Phase2",1,1,4,0,1.481,275
"1758",10,92,"Phase2",1,1,4,0,2.073,276
"1759",10,68,"Phase2",1,1,5,1,0.824,277
"1760",10,116,"Phase2",1,1,5,0,0.591,278
"1761",11,91,"Phase1",1,1,2,0,1.962,6
"1762",11,102,"Phase1",1,1,3,0,6.288,7
"1763",11,50,"Phase1",1,1,2,1,2.762,8
"1764",11,92,"Phase1",1,1,3,0,4.612,9
"1765",11,100,"Phase1",1,1,3,0,4.527,10
"1766",11,96,"Phase1",1,1,2,0,2.955,11
"1767",11,114,"Phase1",1,1,5,0,1.945,12
"1768",11,28,"Phase1",1,1,4,1,2.169,13
"1769",11,93,"Phase1",1,1,5,0,1.54,14
"1770",11,99,"Phase1",1,1,3,0,1.614,15
"1771",11,132,"Phase1",1,1,2,0,1.49,16
"1772",11,47,"Phase1",1,1,3,1,6.047,17
"1773",11,108,"Phase1",1,1,3,0,1.892,18
"1774",11,34,"Phase1",1,1,3,1,4.266,19
"1775",11,38,"Phase1",1,1,2,1,1.082,20
"1776",11,106,"Phase1",1,1,4,0,5.073,21
"1777",11,24,"Phase1",1,1,4,1,1.688,22
"1778",11,86,"Phase1",1,1,2,1,2.884,23
"1779",11,56,"Phase1",1,1,4,1,4.55,24
"1780",11,111,"Phase1",1,1,3,0,1.757,25
"1781",11,89,"Phase1",1,1,3,0,0.735,26
"1782",11,112,"Phase1",1,1,5,0,2.843,27
"1783",11,49,"Phase1",1,1,3,1,1.774,28
"1784",11,90,"Phase1",1,1,2,0,1.635,29
"1785",11,73,"Phase1",1,1,5,1,5.153,30
"1786",11,54,"Phase1",1,1,3,1,3.303,31
"1787",11,10,"Phase1",1,1,4,1,1.842,32
"1788",11,121,"Phase1",1,1,4,0,4.397,33
"1789",11,130,"Phase1",1,1,4,0,5.95,34
"1790",11,110,"Phase1",1,1,3,0,3.353,35
"1791",11,98,"Phase1",1,1,2,0,1.372,36
"1792",11,131,"Phase1",1,1,3,0,4.8,37
"1793",11,113,"Phase1",1,1,4,0,2.183,38
"1794",11,126,"Phase1",1,1,5,0,4.214,39
"1795",11,94,"Phase1",1,1,3,0,1.894,40
"1796",11,129,"Phase1",1,1,3,0,4.651,41
"1797",11,123,"Phase1",1,1,5,0,1.976,42
"1798",11,109,"Phase1",1,1,3,0,1.759,43
"1799",11,9,"Phase1",1,1,3,1,3.812,44
"1800",11,59,"Phase1",1,1,2,1,1.58,45
"1801",11,124,"Phase1",1,1,3,0,4.77,46
"1802",11,79,"Phase1",1,1,4,1,7.995,47
"1803",11,3,"Phase1",1,1,3,1,3.085,48
"1804",11,71,"Phase1",1,1,4,1,2.476,49
"1805",11,81,"Phase1",1,1,3,1,2.342,50
"1806",11,101,"Phase1",1,1,1,0,1.384,51
"1807",11,19,"Phase1",1,1,2,1,2.433,52
"1808",11,42,"Phase1",1,1,4,1,3.581,53
"1809",11,128,"Phase1",1,1,4,0,3.809,54
"1810",11,48,"Phase1",1,1,4,1,1.772,55
"1811",11,127,"Phase1",1,1,3,0,1.723,56
"1812",11,80,"Phase1",1,1,4,1,1.384,57
"1813",11,14,"Phase1",1,1,3,1,3.22,58
"1814",11,117,"Phase1",1,1,4,0,3.585,59
"1815",11,6,"Phase1",1,1,4,1,0.544,60
"1816",11,35,"Phase1",1,1,4,1,4.04,61
"1817",11,63,"Phase1",1,1,3,1,1.458,62
"1818",11,103,"Phase1",1,1,3,0,1.15,63
"1819",11,70,"Phase1",1,1,4,1,1.224,64
"1820",11,104,"Phase1",1,1,3,0,1.137,65
"1821",11,97,"Phase1",1,1,4,0,4.834,66
"1822",11,27,"Phase1",1,1,3,1,2.199,67
"1823",11,115,"Phase1",1,1,3,0,10.647,68
"1824",11,118,"Phase1",1,1,4,0,2.999,69
"1825",11,120,"Phase1",1,1,3,0,3.109,70
"1826",11,107,"Phase1",1,1,3,0,3.532,71
"1827",11,8,"Phase1",1,1,4,1,3.297,72
"1828",11,11,"Phase1",1,1,4,1,2.999,73
"1829",11,125,"Phase1",1,1,4,0,4.811,74
"1830",11,30,"Phase1",1,1,3,1,2.952,75
"1831",11,64,"Phase1",1,1,3,1,1.703,76
"1832",11,16,"Phase1",1,1,3,1,1.064,77
"1833",11,21,"Phase1",1,1,4,1,3.58,78
"1834",11,84,"Phase1",1,1,3,1,1.125,79
"1835",11,40,"Phase1",1,1,2,1,0.734,80
"1836",11,22,"Phase1",1,1,3,1,2.287,81
"1837",11,26,"Phase1",1,1,3,1,2.854,82
"1838",11,1,"Phase1",1,1,3,1,3.059,83
"1839",11,69,"Phase1",1,1,4,1,5.408,84
"1840",11,82,"Phase1",1,1,3,1,3.526,85
"1841",11,66,"Phase1",1,1,4,1,2.792,86
"1842",11,119,"Phase1",1,1,3,0,4.437,87
"1843",11,116,"Phase1",1,1,4,0,0.768,88
"1844",11,122,"Phase1",1,1,3,0,4.591,89
"1845",11,95,"Phase1",1,1,2,0,3.013,90
"1846",11,31,"Phase1",1,1,5,1,2.704,91
"1847",11,105,"Phase1",1,1,4,0,1.13,92
"1848",11,67,"Phase1",1,1,4,1,3.373,93
"1849",11,80,"Phase2",1,1,4,1,2.266,191
"1850",11,53,"Phase2",1,1,3,0,1.584,192
"1851",11,3,"Phase2",1,1,3,1,1.708,193
"1852",11,14,"Phase2",1,1,3,1,1.097,194
"1853",11,45,"Phase2",1,1,3,0,2.046,195
"1854",11,11,"Phase2",1,1,3,1,0.757,196
"1855",11,16,"Phase2",1,1,3,1,2.223,197
"1856",11,88,"Phase2",1,1,4,0,1.771,198
"1857",11,57,"Phase2",1,1,3,0,1.147,199
"1858",11,56,"Phase2",1,1,4,1,0.689,200
"1859",11,76,"Phase2",1,1,3,0,0.612,201
"1860",11,59,"Phase2",1,1,3,1,0.566,202
"1861",11,72,"Phase2",1,1,3,0,1.037,203
"1862",11,50,"Phase2",1,1,3,1,0.607,204
"1863",11,31,"Phase2",1,1,4,1,1.739,205
"1864",11,75,"Phase2",1,1,4,0,3.819,206
"1865",11,54,"Phase2",1,1,3,1,0.582,207
"1866",11,2,"Phase2",1,1,3,0,1.659,208
"1867",11,27,"Phase2",1,1,3,1,0.513,209
"1868",11,40,"Phase2",1,1,2,1,0.814,210
"1869",11,48,"Phase2",1,1,3,1,0.493,211
"1870",11,69,"Phase2",1,1,3,1,0.74,212
"1871",11,22,"Phase2",1,1,3,1,0.65,213
"1872",11,77,"Phase2",1,1,3,0,4.201,214
"1873",11,6,"Phase2",1,1,4,1,0.656,215
"1874",11,44,"Phase2",1,1,4,0,0.647,216
"1875",11,43,"Phase2",1,1,3,0,1.385,217
"1876",11,84,"Phase2",1,1,3,1,2.351,218
"1877",11,66,"Phase2",1,1,4,1,1.546,219
"1878",11,30,"Phase2",1,1,3,1,0.831,220
"1879",11,65,"Phase2",1,1,3,0,1.409,221
"1880",11,41,"Phase2",1,1,4,0,2.22,222
"1881",11,28,"Phase2",1,1,4,1,1.058,223
"1882",11,71,"Phase2",1,1,3,1,0.663,224
"1883",11,60,"Phase2",1,1,3,0,2.439,225
"1884",11,49,"Phase2",1,1,3,1,0.512,226
"1885",11,35,"Phase2",1,1,4,1,0.483,227
"1886",11,4,"Phase2",1,1,3,0,0.482,228
"1887",11,67,"Phase2",1,1,4,1,0.481,229
"1888",11,87,"Phase2",1,1,4,0,0.758,230
"1889",11,46,"Phase2",1,1,3,0,1.372,231
"1890",11,12,"Phase2",1,1,4,0,5.437,232
"1891",11,36,"Phase2",1,1,3,0,0.783,233
"1892",11,18,"Phase2",1,1,4,0,1.596,234
"1893",11,23,"Phase2",1,1,3,0,1.321,235
"1894",11,38,"Phase2",1,1,3,1,0.506,236
"1895",11,19,"Phase2",1,1,2,1,1.269,237
"1896",11,24,"Phase2",1,1,3,1,0.493,238
"1897",11,68,"Phase2",1,1,4,0,2.547,239
"1898",11,55,"Phase2",1,1,4,0,1.095,240
"1899",11,7,"Phase2",1,1,3,0,3.445,241
"1900",11,47,"Phase2",1,1,4,1,1.901,242
"1901",11,83,"Phase2",1,1,3,0,5.804,243
"1902",11,29,"Phase2",1,1,4,0,1.22,244
"1903",11,26,"Phase2",1,1,4,1,0.462,245
"1904",11,74,"Phase2",1,1,4,0,2.835,246
"1905",11,5,"Phase2",1,1,4,0,1.149,247
"1906",11,79,"Phase2",1,1,4,1,6.129,248
"1907",11,70,"Phase2",1,1,4,1,0.615,249
"1908",11,15,"Phase2",1,1,3,0,1.522,250
"1909",11,20,"Phase2",1,1,4,0,6.108,251
"1910",11,63,"Phase2",1,1,3,1,0.532,252
"1911",11,81,"Phase2",1,1,3,1,0.495,253
"1912",11,62,"Phase2",1,1,4,0,1.248,254
"1913",11,1,"Phase2",1,1,4,1,0.475,255
"1914",11,64,"Phase2",1,1,3,1,0.699,256
"1915",11,82,"Phase2",1,1,3,1,0.467,257
"1916",11,17,"Phase2",1,1,4,0,3.031,258
"1917",11,13,"Phase2",1,1,4,0,0.881,259
"1918",11,85,"Phase2",1,1,4,0,1.241,260
"1919",11,73,"Phase2",1,1,4,1,0.555,261
"1920",11,61,"Phase2",1,1,4,0,1.745,262
"1921",11,32,"Phase2",1,1,3,0,1.974,263
"1922",11,33,"Phase2",1,1,3,0,3.023,264
"1923",11,21,"Phase2",1,1,4,1,1.807,265
"1924",11,34,"Phase2",1,1,3,1,0.954,266
"1925",11,8,"Phase2",1,1,4,1,0.457,267
"1926",11,52,"Phase2",1,1,3,0,2.333,268
"1927",11,39,"Phase2",1,1,3,0,0.912,269
"1928",11,37,"Phase2",1,1,4,0,2.501,270
"1929",11,78,"Phase2",1,1,3,0,3.548,271
"1930",11,51,"Phase2",1,1,3,0,1.4,272
"1931",11,9,"Phase2",1,1,3,1,0.484,273
"1932",11,42,"Phase2",1,1,4,1,0.553,274
"1933",11,10,"Phase2",1,1,3,1,0.505,275
"1934",11,25,"Phase2",1,1,4,0,1.282,276
"1935",11,58,"Phase2",1,1,4,0,1.05,277
"1936",11,86,"Phase2",1,1,2,1,1.188,278
"1937",12,131,"Phase1",1,1,5,1,2.566,6
"1938",12,45,"Phase1",1,1,3,0,17.065,7
"1939",12,110,"Phase1",1,1,2,1,5.578,8
"1940",12,122,"Phase1",1,1,4,1,3.774,9
"1941",12,60,"Phase1",1,1,5,0,2.969,10
"1942",12,57,"Phase1",1,1,4,0,3.35,11
"1943",12,104,"Phase1",1,1,5,1,4.92,12
"1944",12,76,"Phase1",1,1,3,0,2.802,13
"1945",12,112,"Phase1",1,1,5,1,2.588,14
"1946",12,100,"Phase1",1,1,5,1,38.453,15
"1947",12,108,"Phase1",1,1,5,1,23.149,16
"1948",12,106,"Phase1",1,1,5,1,13.37,17
"1949",12,33,"Phase1",1,1,4,0,3.412,18
"1950",12,43,"Phase1",1,1,3,0,11.406,19
"1951",12,52,"Phase1",1,1,5,0,5.892,20
"1952",12,132,"Phase1",1,1,3,1,1.142,21
"1953",12,111,"Phase1",1,1,3,1,17.81,22
"1954",12,128,"Phase1",1,1,5,1,8.664,23
"1955",12,130,"Phase1",1,1,5,1,2.581,24
"1956",12,102,"Phase1",1,1,5,1,22.668,25
"1957",12,12,"Phase1",1,1,5,0,14.273,26
"1958",12,127,"Phase1",1,1,3,1,23.765,27
"1959",12,55,"Phase1",1,1,4,0,3.661,28
"1960",12,97,"Phase1",1,1,6,1,4.811,29
"1961",12,5,"Phase1",1,1,2,0,6.318,30
"1962",12,116,"Phase1",1,1,5,1,24.341,31
"1963",12,107,"Phase1",1,1,3,1,3.057,32
"1964",12,77,"Phase1",1,1,3,0,2.513,33
"1965",12,39,"Phase1",1,1,3,0,1.828,34
"1966",12,103,"Phase1",1,1,4,1,2.392,35
"1967",12,7,"Phase1",1,1,2,0,5.458,36
"1968",12,119,"Phase1",1,1,3,1,22.117,37
"1969",12,62,"Phase1",1,1,2,0,3.843,38
"1970",12,118,"Phase1",1,1,5,1,1.184,39
"1971",12,126,"Phase1",1,1,5,1,4.019,40
"1972",12,36,"Phase1",1,1,4,0,1.827,41
"1973",12,83,"Phase1",1,1,6,0,1.531,42
"1974",12,101,"Phase1",1,1,4,1,22.161,43
"1975",12,65,"Phase1",1,1,4,0,2.026,44
"1976",12,85,"Phase1",1,1,5,0,11.114,45
"1977",12,117,"Phase1",1,1,4,1,2.777,46
"1978",12,123,"Phase1",1,1,5,1,9.433,47
"1979",12,58,"Phase1",1,1,2,0,4.237,48
"1980",12,13,"Phase1",1,1,5,0,3.142,49
"1981",12,75,"Phase1",1,1,4,0,3.665,50
"1982",12,93,"Phase1",1,1,2,1,3.251,51
"1983",12,115,"Phase1",1,1,3,1,3.998,52
"1984",12,105,"Phase1",1,1,3,1,23.305,53
"1985",12,46,"Phase1",1,1,3,0,5.688,54
"1986",12,41,"Phase1",1,1,5,0,9.67,55
"1987",12,95,"Phase1",1,1,5,1,14.01,56
"1988",12,51,"Phase1",1,1,4,0,2.482,57
"1989",12,61,"Phase1",1,1,3,0,6.435,58
"1990",12,129,"Phase1",1,1,4,1,7.272,59
"1991",12,20,"Phase1",1,1,2,0,29.789,60
"1992",12,44,"Phase1",1,1,3,0,0.915,61
"1993",12,113,"Phase1",1,1,6,1,2.489,62
"1994",12,18,"Phase1",1,1,1,0,4.747,63
"1995",12,114,"Phase1",1,1,2,1,7.052,64
"1996",12,15,"Phase1",1,1,4,0,4.028,65
"1997",12,17,"Phase1",1,1,4,0,5.878,66
"1998",12,37,"Phase1",1,1,5,0,3.587,67
"1999",12,25,"Phase1",1,1,6,0,14.403,68
"2000",12,88,"Phase1",1,1,5,0,2.942,69
"2001",12,99,"Phase1",1,1,3,1,4.631,70
"2002",12,2,"Phase1",1,1,5,0,9.42,71
"2003",12,92,"Phase1",1,1,5,1,4.287,72
"2004",12,90,"Phase1",1,1,5,1,3.553,73
"2005",12,4,"Phase1",1,1,3,0,2.275,74
"2006",12,96,"Phase1",1,1,4,1,2.157,75
"2007",12,29,"Phase1",1,1,5,0,2.367,76
"2008",12,109,"Phase1",1,1,6,1,2.92,77
"2009",12,120,"Phase1",1,1,4,1,2.854,78
"2010",12,32,"Phase1",1,1,2,0,4.954,79
"2011",12,98,"Phase1",1,1,4,1,3.667,80
"2012",12,74,"Phase1",1,1,6,0,1.347,81
"2013",12,23,"Phase1",1,1,5,0,3.506,82
"2014",12,91,"Phase1",1,1,4,1,7.979,83
"2015",12,121,"Phase1",1,1,3,1,4.34,84
"2016",12,72,"Phase1",1,1,5,0,2.613,85
"2017",12,94,"Phase1",1,1,5,1,2.515,86
"2018",12,125,"Phase1",1,1,4,1,2.679,87
"2019",12,78,"Phase1",1,1,5,0,5.229,88
"2020",12,87,"Phase1",1,1,3,0,8.043,89
"2021",12,68,"Phase1",1,1,3,0,3.97,90
"2022",12,89,"Phase1",1,1,3,1,4.615,91
"2023",12,53,"Phase1",1,1,1,0,8.339,92
"2024",12,124,"Phase1",1,1,4,1,3.83,93
"2025",12,27,"Phase2",1,1,4,0,2.862,191
"2026",12,109,"Phase2",1,1,6,1,1.423,192
"2027",12,129,"Phase2",1,1,5,1,2.741,193
"2028",12,131,"Phase2",1,1,5,1,2.583,194
"2029",12,113,"Phase2",1,1,6,1,1.096,195
"2030",12,90,"Phase2",1,1,4,1,2.573,196
"2031",12,82,"Phase2",1,1,4,0,2.759,197
"2032",12,80,"Phase2",1,1,5,0,1.226,198
"2033",12,117,"Phase2",1,1,4,1,2.796,199
"2034",12,101,"Phase2",1,1,4,1,7.759,200
"2035",12,69,"Phase2",1,1,5,0,1.522,201
"2036",12,123,"Phase2",1,1,5,1,0.66,202
"2037",12,105,"Phase2",1,1,3,1,1.884,203
"2038",12,93,"Phase2",1,1,3,1,5.093,204
"2039",12,26,"Phase2",1,1,5,0,3.314,205
"2040",12,8,"Phase2",1,1,3,0,2.67,206
"2041",12,96,"Phase2",1,1,5,1,0.769,207
"2042",12,24,"Phase2",1,1,2,0,2.625,208
"2043",12,86,"Phase2",1,1,6,0,1.037,209
"2044",12,67,"Phase2",1,1,4,0,3.963,210
"2045",12,47,"Phase2",1,1,2,0,5.428,211
"2046",12,97,"Phase2",1,1,6,1,3.706,212
"2047",12,128,"Phase2",1,1,5,1,4.171,213
"2048",12,95,"Phase2",1,1,5,1,6.764,214
"2049",12,79,"Phase2",1,1,4,0,2.715,215
"2050",12,121,"Phase2",1,1,4,1,2.821,216
"2051",12,106,"Phase2",1,1,4,1,4.217,217
"2052",12,115,"Phase2",1,1,3,1,4.438,218
"2053",12,21,"Phase2",1,1,5,0,4.084,219
"2054",12,116,"Phase2",1,1,5,1,1.275,220
"2055",12,120,"Phase2",1,1,5,1,4.963,221
"2056",12,81,"Phase2",1,1,5,0,8.695,222
"2057",12,108,"Phase2",1,1,5,1,2.918,223
"2058",12,59,"Phase2",1,1,4,0,1.882,224
"2059",12,118,"Phase2",1,1,6,1,1.117,225
"2060",12,11,"Phase2",1,1,5,0,2.028,226
"2061",12,99,"Phase2",1,1,2,1,1.291,227
"2062",12,48,"Phase2",1,1,4,0,5.31,228
"2063",12,10,"Phase2",1,1,5,0,6.408,229
"2064",12,132,"Phase2",1,1,3,1,1.823,230
"2065",12,34,"Phase2",1,1,5,0,8.476,231
"2066",12,16,"Phase2",1,1,2,0,3.927,232
"2067",12,38,"Phase2",1,1,3,0,2.787,233
"2068",12,119,"Phase2",1,1,3,1,3.765,234
"2069",12,122,"Phase2",1,1,4,1,6.045,235
"2070",12,1,"Phase2",1,1,6,0,1.973,236
"2071",12,104,"Phase2",1,1,5,1,0.674,237
"2072",12,56,"Phase2",1,1,4,0,5.77,238
"2073",12,73,"Phase2",1,1,5,0,2.998,239
"2074",12,103,"Phase2",1,1,3,1,0.738,240
"2075",12,70,"Phase2",1,1,2,0,1.379,241
"2076",12,110,"Phase2",1,1,3,1,0.747,242
"2077",12,14,"Phase2",1,1,4,0,3.781,243
"2078",12,130,"Phase2",1,1,6,1,0.839,244
"2079",12,102,"Phase2",1,1,5,1,4.546,245
"2080",12,63,"Phase2",1,1,3,0,4.539,246
"2081",12,28,"Phase2",1,1,3,0,4.958,247
"2082",12,6,"Phase2",1,1,5,0,1.601,248
"2083",12,3,"Phase2",1,1,3,0,4.916,249
"2084",12,94,"Phase2",1,1,5,1,0.665,250
"2085",12,98,"Phase2",1,1,3,1,2.079,251
"2086",12,114,"Phase2",1,1,3,1,1.021,252
"2087",12,92,"Phase2",1,1,4,1,0.951,253
"2088",12,124,"Phase2",1,1,4,1,1.519,254
"2089",12,40,"Phase2",1,1,5,0,3.395,255
"2090",12,54,"Phase2",1,1,4,0,0.553,256
"2091",12,127,"Phase2",1,1,4,1,2.215,257
"2092",12,91,"Phase2",1,1,4,1,0.943,258
"2093",12,42,"Phase2",1,1,5,0,2.043,259
"2094",12,125,"Phase2",1,1,5,1,2.377,260
"2095",12,49,"Phase2",1,1,4,0,2.248,261
"2096",12,9,"Phase2",1,1,3,0,2.78,262
"2097",12,100,"Phase2",1,1,5,1,1.074,263
"2098",12,31,"Phase2",1,1,5,0,1.572,264
"2099",12,22,"Phase2",1,1,4,0,3.128,265
"2100",12,126,"Phase2",1,1,5,1,0.809,266
"2101",12,35,"Phase2",1,1,5,0,1.558,267
"2102",12,19,"Phase2",1,1,5,0,1.597,268
"2103",12,111,"Phase2",1,1,3,1,1.042,269
"2104",12,84,"Phase2",1,1,4,0,2.086,270
"2105",12,30,"Phase2",1,1,4,0,3.984,271
"2106",12,66,"Phase2",1,1,3,0,1.749,272
"2107",12,50,"Phase2",1,1,4,0,2.22,273
"2108",12,107,"Phase2",1,1,5,1,3.197,274
"2109",12,71,"Phase2",1,1,4,0,1.62,275
"2110",12,89,"Phase2",1,1,3,1,1.202,276
"2111",12,64,"Phase2",1,1,5,0,4.086,277
"2112",12,112,"Phase2",1,1,5,1,0.799,278
"2113",13,6,"Phase1",1,1,4,0,1.599,6
"2114",13,66,"Phase1",1,1,5,0,7.661,7
"2115",13,48,"Phase1",1,1,1,0,4.865,8
"2116",13,9,"Phase1",1,1,4,0,6.236,9
"2117",13,31,"Phase1",1,1,6,0,1.184,10
"2118",13,44,"Phase1",1,1,2,1,4.574,11
"2119",13,82,"Phase1",1,1,2,0,11.43,12
"2120",13,78,"Phase1",1,1,5,1,1.417,13
"2121",13,37,"Phase1",1,1,4,1,0.862,14
"2122",13,77,"Phase1",1,1,3,1,4.931,15
"2123",13,36,"Phase1",1,1,5,1,8.304,16
"2124",13,79,"Phase1",1,1,6,0,2.251,17
"2125",13,85,"Phase1",1,1,5,1,1.21,18
"2126",13,84,"Phase1",1,1,1,0,3.522,19
"2127",13,76,"Phase1",1,1,2,1,2.003,20
"2128",13,62,"Phase1",1,1,2,1,3.18,21
"2129",13,72,"Phase1",1,1,6,1,8.717,22
"2130",13,55,"Phase1",1,1,3,1,1.859,23
"2131",13,15,"Phase1",1,1,1,1,4.064,24
"2132",13,19,"Phase1",1,1,1,0,5.331,25
"2133",13,20,"Phase1",1,1,1,1,3.263,26
"2134",13,30,"Phase1",1,1,1,0,5.892,27
"2135",13,74,"Phase1",1,1,6,1,2.095,28
"2136",13,26,"Phase1",1,1,5,0,1.011,29
"2137",13,70,"Phase1",1,1,6,0,5.706,30
"2138",13,73,"Phase1",1,1,6,0,4.512,31
"2139",13,56,"Phase1",1,1,6,0,2.77,32
"2140",13,59,"Phase1",1,1,1,0,0.969,33
"2141",13,25,"Phase1",1,1,6,1,0.979,34
"2142",13,10,"Phase1",1,1,2,0,1.124,35
"2143",13,17,"Phase1",1,1,2,1,5.395,36
"2144",13,33,"Phase1",1,1,5,1,3.614,37
"2145",13,13,"Phase1",1,1,5,1,0.882,38
"2146",13,23,"Phase1",1,1,2,1,1.673,39
"2147",13,45,"Phase1",1,1,1,1,2.164,40
"2148",13,80,"Phase1",1,1,6,0,0.785,41
"2149",13,51,"Phase1",1,1,1,1,3.607,42
"2150",13,7,"Phase1",1,1,1,1,2.345,43
"2151",13,47,"Phase1",1,1,1,0,3.869,44
"2152",13,61,"Phase1",1,1,1,1,2.013,45
"2153",13,83,"Phase1",1,1,2,1,1.913,46
"2154",13,86,"Phase1",1,1,6,0,1.901,47
"2155",13,11,"Phase1",1,1,5,0,2.515,48
"2156",13,71,"Phase1",1,1,6,0,3.833,49
"2157",13,40,"Phase1",1,1,6,0,0.776,50
"2158",13,14,"Phase1",1,1,2,0,0.981,51
"2159",13,54,"Phase1",1,1,5,0,1.417,52
"2160",13,42,"Phase1",1,1,1,0,5.934,53
"2161",13,63,"Phase1",1,1,5,0,5.565,54
"2162",13,38,"Phase1",1,1,2,0,2.275,55
"2163",13,43,"Phase1",1,1,1,1,2.513,56
"2164",13,52,"Phase1",1,1,6,1,1.364,57
"2165",13,27,"Phase1",1,1,6,0,0.935,58
"2166",13,67,"Phase1",1,1,2,0,4.322,59
"2167",13,18,"Phase1",1,1,1,1,4.769,60
"2168",13,29,"Phase1",1,1,5,1,4.455,61
"2169",13,65,"Phase1",1,1,1,1,4.217,62
"2170",13,81,"Phase1",1,1,2,0,1.556,63
"2171",13,8,"Phase1",1,1,6,0,1.812,64
"2172",13,35,"Phase1",1,1,1,0,6.221,65
"2173",13,21,"Phase1",1,1,1,0,1.295,66
"2174",13,28,"Phase1",1,1,6,0,3.429,67
"2175",13,16,"Phase1",1,1,1,0,1.418,68
"2176",13,2,"Phase1",1,1,3,1,7.197,69
"2177",13,34,"Phase1",1,1,1,0,4.512,70
"2178",13,4,"Phase1",1,1,2,1,1.016,71
"2179",13,49,"Phase1",1,1,5,0,3.335,72
"2180",13,1,"Phase1",1,1,1,0,1.584,73
"2181",13,50,"Phase1",1,1,6,0,1.481,74
"2182",13,22,"Phase1",1,1,2,0,0.982,75
"2183",13,88,"Phase1",1,1,6,1,0.553,76
"2184",13,87,"Phase1",1,1,6,1,0.681,77
"2185",13,46,"Phase1",1,1,1,1,0.798,78
"2186",13,53,"Phase1",1,1,2,1,1.112,79
"2187",13,39,"Phase1",1,1,5,1,3.769,80
"2188",13,3,"Phase1",1,1,5,0,6.088,81
"2189",13,5,"Phase1",1,1,5,1,4.903,82
"2190",13,64,"Phase1",1,1,1,0,2.774,83
"2191",13,32,"Phase1",1,1,1,1,3.559,84
"2192",13,69,"Phase1",1,1,6,0,2.941,85
"2193",13,24,"Phase1",1,1,1,0,1.447,86
"2194",13,68,"Phase1",1,1,5,1,2.301,87
"2195",13,57,"Phase1",1,1,2,1,1.643,88
"2196",13,75,"Phase1",1,1,1,1,3.731,89
"2197",13,41,"Phase1",1,1,5,1,1.173,90
"2198",13,60,"Phase1",1,1,6,1,4.796,91
"2199",13,58,"Phase1",1,1,1,1,2.643,92
"2200",13,12,"Phase1",1,1,2,1,3.185,93
"2201",13,20,"Phase2",1,1,5,1,6.098,191
"2202",13,18,"Phase2",1,1,1,1,3.022,192
"2203",13,98,"Phase2",1,1,5,0,4.97,193
"2204",13,93,"Phase2",1,1,6,0,1,194
"2205",13,15,"Phase2",1,1,1,1,0.708,195
"2206",13,89,"Phase2",1,1,2,0,2.517,196
"2207",13,7,"Phase2",1,1,1,1,0.9,197
"2208",13,129,"Phase2",1,1,5,0,1.348,198
"2209",13,108,"Phase2",1,1,2,0,1.751,199
"2210",13,77,"Phase2",1,1,2,1,0.678,200
"2211",13,85,"Phase2",1,1,5,1,0.888,201
"2212",13,126,"Phase2",1,1,2,0,1.553,202
"2213",13,58,"Phase2",1,1,1,1,0.707,203
"2214",13,94,"Phase2",1,1,4,0,1.101,204
"2215",13,17,"Phase2",1,1,5,1,0.81,205
"2216",13,33,"Phase2",1,1,5,1,0.559,206
"2217",13,110,"Phase2",1,1,3,0,1.119,207
"2218",13,13,"Phase2",1,1,5,1,0.732,208
"2219",13,109,"Phase2",1,1,6,0,0.75,209
"2220",13,75,"Phase2",1,1,1,1,2.662,210
"2221",13,12,"Phase2",1,1,5,1,1.032,211
"2222",13,23,"Phase2",1,1,2,1,0.68,212
"2223",13,99,"Phase2",1,1,2,0,1.863,213
"2224",13,128,"Phase2",1,1,2,0,1.832,214
"2225",13,51,"Phase2",1,1,1,1,0.672,215
"2226",13,95,"Phase2",1,1,5,0,8.727,216
"2227",13,43,"Phase2",1,1,5,1,0.605,217
"2228",13,41,"Phase2",1,1,5,1,1.178,218
"2229",13,78,"Phase2",1,1,5,1,0.449,219
"2230",13,25,"Phase2",1,1,5,1,0.676,220
"2231",13,102,"Phase2",1,1,5,0,0.483,221
"2232",13,101,"Phase2",1,1,4,0,3.414,222
"2233",13,125,"Phase2",1,1,5,0,1.523,223
"2234",13,119,"Phase2",1,1,2,0,1.639,224
"2235",13,88,"Phase2",1,1,6,1,0.801,225
"2236",13,104,"Phase2",1,1,5,0,2.175,226
"2237",13,116,"Phase2",1,1,4,0,0.945,227
"2238",13,52,"Phase2",1,1,5,1,2.593,228
"2239",13,83,"Phase2",1,1,5,1,0.817,229
"2240",13,96,"Phase2",1,1,2,0,1.509,230
"2241",13,87,"Phase2",1,1,5,1,0.418,231
"2242",13,132,"Phase2",1,1,5,0,0.888,232
"2243",13,2,"Phase2",1,1,2,1,1.623,233
"2244",13,60,"Phase2",1,1,5,1,0.585,234
"2245",13,72,"Phase2",1,1,6,1,0.743,235
"2246",13,91,"Phase2",1,1,3,0,3.179,236
"2247",13,57,"Phase2",1,1,5,1,2.983,237
"2248",13,121,"Phase2",1,1,2,0,0.711,238
"2249",13,115,"Phase2",1,1,2,0,1.117,239
"2250",13,61,"Phase2",1,1,2,1,0.948,240
"2251",13,130,"Phase2",1,1,2,0,0.695,241
"2252",13,127,"Phase2",1,1,5,0,2.291,242
"2253",13,122,"Phase2",1,1,2,0,3.537,243
"2254",13,106,"Phase2",1,1,2,0,1.574,244
"2255",13,90,"Phase2",1,1,2,0,0.53,245
"2256",13,5,"Phase2",1,1,3,1,0.54,246
"2257",13,65,"Phase2",1,1,2,1,0.649,247
"2258",13,4,"Phase2",1,1,2,1,0.647,248
"2259",13,117,"Phase2",1,1,3,0,2.605,249
"2260",13,124,"Phase2",1,1,5,0,1.354,250
"2261",13,39,"Phase2",1,1,2,1,2.428,251
"2262",13,113,"Phase2",1,1,5,0,0.541,252
"2263",13,118,"Phase2",1,1,6,0,1.681,253
"2264",13,114,"Phase2",1,1,5,0,0.666,254
"2265",13,92,"Phase2",1,1,2,0,0.93,255
"2266",13,111,"Phase2",1,1,2,0,1.011,256
"2267",13,62,"Phase2",1,1,2,1,0.648,257
"2268",13,74,"Phase2",1,1,5,1,0.761,258
"2269",13,123,"Phase2",1,1,2,0,0.862,259
"2270",13,53,"Phase2",1,1,2,1,0.566,260
"2271",13,55,"Phase2",1,1,2,1,0.776,261
"2272",13,68,"Phase2",1,1,2,1,0.69,262
"2273",13,45,"Phase2",1,1,1,1,0.977,263
"2274",13,112,"Phase2",1,1,4,0,0.867,264
"2275",13,100,"Phase2",1,1,2,0,0.575,265
"2276",13,76,"Phase2",1,1,2,1,0.717,266
"2277",13,46,"Phase2",1,1,1,1,0.673,267
"2278",13,36,"Phase2",1,1,2,1,0.683,268
"2279",13,103,"Phase2",1,1,2,0,1.491,269
"2280",13,97,"Phase2",1,1,5,0,0.499,270
"2281",13,37,"Phase2",1,1,4,1,1.502,271
"2282",13,120,"Phase2",1,1,4,0,1.683,272
"2283",13,105,"Phase2",1,1,1,0,2.899,273
"2284",13,32,"Phase2",1,1,1,1,0.772,274
"2285",13,131,"Phase2",1,1,2,0,0.779,275
"2286",13,107,"Phase2",1,1,2,0,2.046,276
"2287",13,29,"Phase2",1,1,2,1,0.562,277
"2288",13,44,"Phase2",1,1,2,1,1.488,278
"2289",14,70,"Phase1",1,1,2,1,2.333,6
"2290",14,38,"Phase1",1,1,2,1,2.357,7
"2291",14,100,"Phase1",1,1,3,0,1.527,8
"2292",14,107,"Phase1",1,1,5,0,0.826,9
"2293",14,112,"Phase1",1,1,5,0,1.813,10
"2294",14,40,"Phase1",1,1,4,1,2.485,11
"2295",14,94,"Phase1",1,1,5,0,2.292,12
"2296",14,96,"Phase1",1,1,2,0,1.037,13
"2297",14,34,"Phase1",1,1,3,1,3.995,14
"2298",14,103,"Phase1",1,1,5,0,1.022,15
"2299",14,97,"Phase1",1,1,4,0,2.318,16
"2300",14,98,"Phase1",1,1,3,0,1.449,17
"2301",14,115,"Phase1",1,1,4,0,1.83,18
"2302",14,42,"Phase1",1,1,5,1,2.896,19
"2303",14,49,"Phase1",1,1,4,1,2.895,20
"2304",14,102,"Phase1",1,1,5,0,1.187,21
"2305",14,108,"Phase1",1,1,4,0,1.249,22
"2306",14,35,"Phase1",1,1,5,1,1.616,23
"2307",14,59,"Phase1",1,1,4,1,1.416,24
"2308",14,28,"Phase1",1,1,5,1,1.998,25
"2309",14,117,"Phase1",1,1,4,0,2.567,26
"2310",14,93,"Phase1",1,1,4,0,1.629,27
"2311",14,114,"Phase1",1,1,5,0,1.006,28
"2312",14,31,"Phase1",1,1,5,1,2.143,29
"2313",14,105,"Phase1",1,1,3,0,3.009,30
"2314",14,63,"Phase1",1,1,4,1,1.165,31
"2315",14,119,"Phase1",1,1,3,0,1.172,32
"2316",14,80,"Phase1",1,1,5,1,0.628,33
"2317",14,90,"Phase1",1,1,4,0,1.099,34
"2318",14,30,"Phase1",1,1,4,1,3.487,35
"2319",14,122,"Phase1",1,1,5,0,0.734,36
"2320",14,99,"Phase1",1,1,5,0,2.566,37
"2321",14,129,"Phase1",1,1,4,0,0.667,38
"2322",14,10,"Phase1",1,1,2,1,0.581,39
"2323",14,54,"Phase1",1,1,5,1,0.512,40
"2324",14,11,"Phase1",1,1,4,1,0.81,41
"2325",14,124,"Phase1",1,1,4,0,3.963,42
"2326",14,95,"Phase1",1,1,3,0,5.583,43
"2327",14,84,"Phase1",1,1,4,1,1.338,44
"2328",14,3,"Phase1",1,1,5,1,1.28,45
"2329",14,111,"Phase1",1,1,2,0,0.607,46
"2330",14,19,"Phase1",1,1,3,1,1.544,47
"2331",14,106,"Phase1",1,1,3,0,2.893,48
"2332",14,128,"Phase1",1,1,4,0,1.206,49
"2333",14,1,"Phase1",1,1,5,1,0.67,50
"2334",14,126,"Phase1",1,1,3,0,5.346,51
"2335",14,125,"Phase1",1,1,4,0,3.861,52
"2336",14,89,"Phase1",1,1,4,0,1.31,53
"2337",14,21,"Phase1",1,1,5,1,1.955,54
"2338",14,79,"Phase1",1,1,3,1,1.495,55
"2339",14,69,"Phase1",1,1,4,1,0.493,56
"2340",14,113,"Phase1",1,1,5,0,0.621,57
"2341",14,131,"Phase1",1,1,4,0,0.584,58
"2342",14,22,"Phase1",1,1,4,1,0.667,59
"2343",14,26,"Phase1",1,1,3,1,1.098,60
"2344",14,64,"Phase1",1,1,3,1,0.515,61
"2345",14,24,"Phase1",1,1,5,1,0.708,62
"2346",14,130,"Phase1",1,1,4,0,0.543,63
"2347",14,110,"Phase1",1,1,3,0,0.891,64
"2348",14,132,"Phase1",1,1,4,0,1.085,65
"2349",14,81,"Phase1",1,1,4,1,1.852,66
"2350",14,104,"Phase1",1,1,2,0,0.816,67
"2351",14,14,"Phase1",1,1,3,1,1.186,68
"2352",14,71,"Phase1",1,1,5,1,0.843,69
"2353",14,67,"Phase1",1,1,4,1,1.876,70
"2354",14,50,"Phase1",1,1,3,1,0.851,71
"2355",14,123,"Phase1",1,1,5,0,0.601,72
"2356",14,9,"Phase1",1,1,4,1,1.626,73
"2357",14,8,"Phase1",1,1,3,1,1.022,74
"2358",14,16,"Phase1",1,1,5,1,0.651,75
"2359",14,121,"Phase1",1,1,3,0,0.743,76
"2360",14,66,"Phase1",1,1,4,1,3.795,77
"2361",14,56,"Phase1",1,1,3,1,1.157,78
"2362",14,101,"Phase1",1,1,5,0,0.488,79
"2363",14,109,"Phase1",1,1,6,0,0.873,80
"2364",14,6,"Phase1",1,1,5,1,0.716,81
"2365",14,73,"Phase1",1,1,6,1,0.77,82
"2366",14,86,"Phase1",1,1,5,1,0.833,83
"2367",14,82,"Phase1",1,1,3,1,0.91,84
"2368",14,48,"Phase1",1,1,5,1,0.689,85
"2369",14,27,"Phase1",1,1,5,1,1.12,86
"2370",14,116,"Phase1",1,1,4,0,0.823,87
"2371",14,91,"Phase1",1,1,4,0,0.839,88
"2372",14,118,"Phase1",1,1,5,0,1.24,89
"2373",14,47,"Phase1",1,1,3,1,0.654,90
"2374",14,92,"Phase1",1,1,2,0,0.901,91
"2375",14,127,"Phase1",1,1,5,0,0.553,92
"2376",14,120,"Phase1",1,1,4,0,1.444,93
"2377",14,69,"Phase2",1,1,4,1,1.668,191
"2378",14,13,"Phase2",1,1,4,0,0.946,192
"2379",14,33,"Phase2",1,1,1,0,0.579,193
"2380",14,47,"Phase2",1,1,2,1,0.575,194
"2381",14,78,"Phase2",1,1,4,0,2.483,195
"2382",14,64,"Phase2",1,1,4,1,0.539,196
"2383",14,48,"Phase2",1,1,5,1,0.627,197
"2384",14,81,"Phase2",1,1,3,1,3.061,198
"2385",14,49,"Phase2",1,1,4,1,0.473,199
"2386",14,60,"Phase2",1,1,2,0,0.526,200
"2387",14,84,"Phase2",1,1,3,1,0.86,201
"2388",14,67,"Phase2",1,1,4,1,0.524,202
"2389",14,27,"Phase2",1,1,5,1,0.53,203
"2390",14,70,"Phase2",1,1,2,1,0.637,204
"2391",14,54,"Phase2",1,1,5,1,0.635,205
"2392",14,7,"Phase2",1,1,3,0,0.442,206
"2393",14,6,"Phase2",1,1,4,1,0.552,207
"2394",14,10,"Phase2",1,1,2,1,0.513,208
"2395",14,17,"Phase2",1,1,4,0,0.499,209
"2396",14,76,"Phase2",1,1,2,0,0.488,210
"2397",14,16,"Phase2",1,1,4,1,0.466,211
"2398",14,8,"Phase2",1,1,2,1,3.315,212
"2399",14,12,"Phase2",1,1,3,0,1.653,213
"2400",14,73,"Phase2",1,1,6,1,0.903,214
"2401",14,22,"Phase2",1,1,4,1,0.44,215
"2402",14,82,"Phase2",1,1,3,1,0.549,216
"2403",14,40,"Phase2",1,1,4,1,0.702,217
"2404",14,75,"Phase2",1,1,3,0,7.668,218
"2405",14,42,"Phase2",1,1,3,1,0.73,219
"2406",14,21,"Phase2",1,1,4,1,0.485,220
"2407",14,45,"Phase2",1,1,3,0,1.926,221
"2408",14,28,"Phase2",1,1,5,1,0.574,222
"2409",14,77,"Phase2",1,1,4,0,1.473,223
"2410",14,57,"Phase2",1,1,2,0,1.333,224
"2411",14,15,"Phase2",1,1,3,0,0.672,225
"2412",14,71,"Phase2",1,1,5,1,0.912,226
"2413",14,56,"Phase2",1,1,3,1,0.499,227
"2414",14,34,"Phase2",1,1,2,1,0.495,228
"2415",14,46,"Phase2",1,1,4,0,2.496,229
"2416",14,72,"Phase2",1,1,3,0,1.679,230
"2417",14,31,"Phase2",1,1,4,1,0.533,231
"2418",14,79,"Phase2",1,1,2,1,0.56,232
"2419",14,25,"Phase2",1,1,4,0,5.429,233
"2420",14,80,"Phase2",1,1,5,1,0.739,234
"2421",14,26,"Phase2",1,1,4,1,0.777,235
"2422",14,61,"Phase2",1,1,2,0,0.739,236
"2423",14,43,"Phase2",1,1,6,0,1.628,237
"2424",14,55,"Phase2",1,1,3,0,0.645,238
"2425",14,3,"Phase2",1,1,4,1,0.506,239
"2426",14,29,"Phase2",1,1,4,0,1.115,240
"2427",14,85,"Phase2",1,1,3,0,2.204,241
"2428",14,37,"Phase2",1,1,3,0,1.066,242
"2429",14,38,"Phase2",1,1,3,1,0.564,243
"2430",14,41,"Phase2",1,1,3,0,1.691,244
"2431",14,35,"Phase2",1,1,4,1,0.82,245
"2432",14,65,"Phase2",1,1,3,0,2.395,246
"2433",14,30,"Phase2",1,1,3,1,0.932,247
"2434",14,5,"Phase2",1,1,3,0,2.498,248
"2435",14,2,"Phase2",1,1,2,0,0.666,249
"2436",14,50,"Phase2",1,1,3,1,0.526,250
"2437",14,83,"Phase2",1,1,5,0,1.591,251
"2438",14,51,"Phase2",1,1,6,0,0.932,252
"2439",14,4,"Phase2",1,1,3,0,0.753,253
"2440",14,14,"Phase2",1,1,3,1,0.596,254
"2441",14,59,"Phase2",1,1,3,1,0.703,255
"2442",14,18,"Phase2",1,1,5,0,1.172,256
"2443",14,36,"Phase2",1,1,5,0,2.514,257
"2444",14,20,"Phase2",1,1,4,0,0.796,258
"2445",14,87,"Phase2",1,1,3,0,2.656,259
"2446",14,63,"Phase2",1,1,4,1,0.636,260
"2447",14,53,"Phase2",1,1,5,0,1.666,261
"2448",14,52,"Phase2",1,1,3,0,0.484,262
"2449",14,62,"Phase2",1,1,3,0,2.353,263
"2450",14,58,"Phase2",1,1,2,0,0.785,264
"2451",14,44,"Phase2",1,1,3,0,0.678,265
"2452",14,86,"Phase2",1,1,4,1,0.535,266
"2453",14,19,"Phase2",1,1,3,1,0.607,267
"2454",14,88,"Phase2",1,1,3,0,1.071,268
"2455",14,1,"Phase2",1,1,5,1,0.627,269
"2456",14,74,"Phase2",1,1,4,0,1.637,270
"2457",14,39,"Phase2",1,1,2,0,1.062,271
"2458",14,9,"Phase2",1,1,4,1,1.714,272
"2459",14,68,"Phase2",1,1,5,0,1.059,273
"2460",14,11,"Phase2",1,1,4,1,0.486,274
"2461",14,24,"Phase2",1,1,3,1,0.651,275
"2462",14,66,"Phase2",1,1,3,1,1.288,276
"2463",14,23,"Phase2",1,1,3,0,1.642,277
"2464",14,32,"Phase2",1,1,5,0,0.769,278
"2465",15,62,"Phase1",1,1,5,0,1.646,6
"2466",15,2,"Phase1",1,1,1,0,7.516,7
"2467",15,118,"Phase1",1,1,5,1,1.587,8
"2468",15,114,"Phase1",1,1,4,1,2.005,9
"2469",15,126,"Phase1",1,1,3,1,2.588,10
"2470",15,99,"Phase1",1,1,3,1,3.181,11
"2471",15,107,"Phase1",1,1,4,1,4.299,12
"2472",15,44,"Phase1",1,1,4,0,6.914,13
"2473",15,5,"Phase1",1,1,3,0,3.372,14
"2474",15,77,"Phase1",1,1,2,0,2.033,15
"2475",15,123,"Phase1",1,1,2,1,0.864,16
"2476",15,60,"Phase1",1,1,4,0,2.385,17
"2477",15,7,"Phase1",1,1,4,0,2.317,18
"2478",15,87,"Phase1",1,1,2,0,2.467,19
"2479",15,116,"Phase1",1,1,4,1,1.888,20
"2480",15,65,"Phase1",1,1,3,0,6.774,21
"2481",15,13,"Phase1",1,1,3,0,2.094,22
"2482",15,109,"Phase1",1,1,2,1,2.424,23
"2483",15,85,"Phase1",1,1,2,0,7.79,24
"2484",15,128,"Phase1",1,1,4,1,12.622,25
"2485",15,90,"Phase1",1,1,5,1,1.014,26
"2486",15,68,"Phase1",1,1,5,0,5.074,27
"2487",15,93,"Phase1",1,1,6,1,4.362,28
"2488",15,101,"Phase1",1,1,4,1,3.038,29
"2489",15,57,"Phase1",1,1,4,0,7.607,30
"2490",15,103,"Phase1",1,1,4,1,2.004,31
"2491",15,105,"Phase1",1,1,2,1,1.118,32
"2492",15,33,"Phase1",1,1,3,0,2.539,33
"2493",15,23,"Phase1",1,1,2,0,2.835,34
"2494",15,51,"Phase1",1,1,5,0,1.376,35
"2495",15,25,"Phase1",1,1,5,0,0.853,36
"2496",15,55,"Phase1",1,1,4,0,1.598,37
"2497",15,131,"Phase1",1,1,4,1,0.96,38
"2498",15,112,"Phase1",1,1,4,1,2.828,39
"2499",15,20,"Phase1",1,1,4,0,4.835,40
"2500",15,94,"Phase1",1,1,5,1,7.618,41
"2501",15,120,"Phase1",1,1,3,1,5.858,42
"2502",15,92,"Phase1",1,1,4,1,5.032,43
"2503",15,46,"Phase1",1,1,5,0,1.268,44
"2504",15,58,"Phase1",1,1,2,0,1.528,45
"2505",15,45,"Phase1",1,1,2,0,1.478,46
"2506",15,76,"Phase1",1,1,3,0,2.034,47
"2507",15,132,"Phase1",1,1,3,1,2.048,48
"2508",15,78,"Phase1",1,1,4,0,2.535,49
"2509",15,29,"Phase1",1,1,3,0,2.583,50
"2510",15,18,"Phase1",1,1,4,0,4.774,51
"2511",15,122,"Phase1",1,1,4,1,1.088,52
"2512",15,125,"Phase1",1,1,4,1,1.878,53
"2513",15,75,"Phase1",1,1,3,0,1.058,54
"2514",15,88,"Phase1",1,1,3,0,4.763,55
"2515",15,74,"Phase1",1,1,3,0,0.945,56
"2516",15,127,"Phase1",1,1,3,1,1.801,57
"2517",15,41,"Phase1",1,1,5,0,1.358,58
"2518",15,12,"Phase1",1,1,4,0,0.916,59
"2519",15,113,"Phase1",1,1,4,1,1.609,60
"2520",15,39,"Phase1",1,1,4,0,0.856,61
"2521",15,117,"Phase1",1,1,4,1,2.605,62
"2522",15,17,"Phase1",1,1,5,0,0.754,63
"2523",15,121,"Phase1",1,1,3,1,2.387,64
"2524",15,37,"Phase1",1,1,3,0,11.488,65
"2525",15,119,"Phase1",1,1,2,1,14.042,66
"2526",15,124,"Phase1",1,1,3,1,2.371,67
"2527",15,4,"Phase1",1,1,4,0,2.948,68
"2528",15,43,"Phase1",1,1,3,0,8.911,69
"2529",15,61,"Phase1",1,1,3,0,0.765,70
"2530",15,108,"Phase1",1,1,4,1,6.706,71
"2531",15,100,"Phase1",1,1,3,1,2.82,72
"2532",15,111,"Phase1",1,1,3,1,0.751,73
"2533",15,53,"Phase1",1,1,3,0,3.391,74
"2534",15,91,"Phase1",1,1,2,1,1.351,75
"2535",15,106,"Phase1",1,1,3,1,6.995,76
"2536",15,36,"Phase1",1,1,4,0,1.07,77
"2537",15,129,"Phase1",1,1,4,1,3.6,78
"2538",15,89,"Phase1",1,1,4,1,1.229,79
"2539",15,97,"Phase1",1,1,4,1,0.548,80
"2540",15,130,"Phase1",1,1,4,1,0.605,81
"2541",15,15,"Phase1",1,1,3,0,1.396,82
"2542",15,115,"Phase1",1,1,2,1,3.795,83
"2543",15,95,"Phase1",1,1,4,1,10.966,84
"2544",15,72,"Phase1",1,1,5,0,3.592,85
"2545",15,52,"Phase1",1,1,3,0,5.326,86
"2546",15,110,"Phase1",1,1,3,1,1.4,87
"2547",15,32,"Phase1",1,1,5,0,6.362,88
"2548",15,96,"Phase1",1,1,6,1,0.697,89
"2549",15,83,"Phase1",1,1,4,0,11.044,90
"2550",15,98,"Phase1",1,1,3,1,0.885,91
"2551",15,104,"Phase1",1,1,4,1,2.176,92
"2552",15,102,"Phase1",1,1,4,1,0.734,93
"2553",15,49,"Phase2",1,1,3,0,5.647,191
"2554",15,70,"Phase2",1,1,3,0,1.699,192
"2555",15,42,"Phase2",1,1,4,0,5.731,193
"2556",15,122,"Phase2",1,1,5,1,0.635,194
"2557",15,107,"Phase2",1,1,4,1,0.732,195
"2558",15,79,"Phase2",1,1,4,0,0.579,196
"2559",15,63,"Phase2",1,1,2,0,0.863,197
"2560",15,116,"Phase2",1,1,4,1,0.498,198
"2561",15,89,"Phase2",1,1,4,1,0.455,199
"2562",15,128,"Phase2",1,1,4,1,0.532,200
"2563",15,22,"Phase2",1,1,3,0,1.52,201
"2564",15,131,"Phase2",1,1,4,1,0.953,202
"2565",15,50,"Phase2",1,1,2,0,4.131,203
"2566",15,38,"Phase2",1,1,4,0,0.492,204
"2567",15,115,"Phase2",1,1,3,1,2.101,205
"2568",15,106,"Phase2",1,1,4,1,0.521,206
"2569",15,34,"Phase2",1,1,4,0,0.557,207
"2570",15,118,"Phase2",1,1,4,1,0.54,208
"2571",15,97,"Phase2",1,1,3,1,0.935,209
"2572",15,100,"Phase2",1,1,3,1,0.436,210
"2573",15,91,"Phase2",1,1,2,1,0.662,211
"2574",15,129,"Phase2",1,1,3,1,1.606,212
"2575",15,112,"Phase2",1,1,3,1,2.934,213
"2576",15,67,"Phase2",1,1,4,0,5.478,214
"2577",15,3,"Phase2",1,1,4,0,4.124,215
"2578",15,31,"Phase2",1,1,4,0,0.693,216
"2579",15,126,"Phase2",1,1,3,1,1.485,217
"2580",15,99,"Phase2",1,1,3,1,1.648,218
"2581",15,48,"Phase2",1,1,3,0,1.621,219
"2582",15,101,"Phase2",1,1,4,1,0.537,220
"2583",15,113,"Phase2",1,1,3,1,0.583,221
"2584",15,117,"Phase2",1,1,4,1,0.577,222
"2585",15,19,"Phase2",1,1,2,0,1.83,223
"2586",15,120,"Phase2",1,1,3,1,0.541,224
"2587",15,92,"Phase2",1,1,4,1,0.995,225
"2588",15,64,"Phase2",1,1,4,0,5.275,226
"2589",15,104,"Phase2",1,1,4,1,0.575,227
"2590",15,103,"Phase2",1,1,4,1,0.695,228
"2591",15,96,"Phase2",1,1,6,1,0.923,229
