"","subject","statement_identifier","procedure_identifier","within_identifier","between_identifier","response","repeated","rt","trial"
"1",555415,"321091",1,1,"different",6,1,5.271,3
"2",555415,"321092",1,1,"different",2,1,5.054,25
"3",555415,"321093",1,1,"different",3,1,3.016,90
"4",555415,"321094",1,1,"different",2,1,2.377,94
"5",555415,"321095",1,1,"different",6,1,3.118,106
"6",555415,"321096",1,1,"different",6,1,4.59,118
"7",555415,"321097",1,1,"different",6,1,2.702,20
"8",555415,"321098",1,1,"different",6,1,3.224,82
"9",555415,"321099",1,1,"different",6,1,2.574,65
"10",555415,"321100",1,1,"different",6,1,3.889,8
"11",555415,"321101",1,1,"different",4,1,3.081,16
"12",555415,"321102",1,1,"different",6,1,3.042,24
"13",555415,"321103",1,1,"different",2,1,3.176,37
"14",555415,"321104",1,1,"different",6,1,2.545,76
"15",555415,"321105",1,1,"different",6,1,2.769,64
"16",555415,"321106",1,1,"different",3,1,2.76,78
"17",555415,"321107",1,1,"different",6,1,2.597,26
"18",555415,"321108",1,1,"different",3,1,2.984,97
"19",555415,"321109",1,1,"different",3,1,2.713,91
"20",555415,"321110",1,1,"different",6,1,2.736,57
"21",555415,"321111",1,1,"different",3,1,3.433,58
"22",555415,"321112",1,1,"different",6,1,2.65,67
"23",555415,"321113",1,1,"different",2,1,2.744,116
"24",555415,"321114",1,1,"different",6,1,2.97,28
"25",555415,"321115",1,1,"different",5,1,2.935,88
"26",555415,"321116",1,1,"different",6,1,2.956,22
"27",555415,"321117",1,1,"different",4,1,3.217,102
"28",555415,"321118",1,1,"different",6,1,2.863,86
"29",555415,"321119",1,1,"different",2,1,4.077,80
"30",555415,"321120",1,1,"different",6,1,3.4,105
"31",555415,"511061",1,1,"different",6,1,3.543,108
"32",555415,"511062",1,1,"different",6,1,2.857,48
"33",555415,"511063",1,1,"different",6,1,3.208,34
"34",555415,"511064",1,1,"different",6,1,2.856,49
"35",555415,"511065",1,1,"different",6,1,2.501,66
"36",555415,"511066",1,1,"different",6,1,2.19,27
"37",555415,"511067",1,1,"different",6,1,2.825,31
"38",555415,"511068",1,1,"different",6,1,2.284,54
"39",555415,"511069",1,1,"different",6,1,2.188,55
"40",555415,"511070",1,1,"different",5,1,5.978,2
"41",555415,"511071",1,1,"different",5,1,6.142,6
"42",555415,"511072",1,1,"different",3,1,3.278,95
"43",555415,"511073",1,1,"different",6,1,2.891,93
"44",555415,"511074",1,1,"different",6,1,2.115,46
"45",555415,"511075",1,1,"different",6,1,2.136,104
"46",555415,"511076",1,1,"different",6,1,2.259,53
"47",555415,"511077",1,1,"different",4,1,9.147,1
"48",555415,"511078",1,1,"different",6,1,3.062,117
"49",555415,"511079",1,1,"different",6,1,2.562,99
"50",555415,"511080",1,1,"different",6,1,2.232,11
"51",555415,"511081",1,1,"different",6,1,4.079,119
"52",555415,"511082",1,1,"different",6,1,4.859,61
"53",555415,"511083",1,1,"different",6,1,4.064,59
"54",555415,"511084",1,1,"different",6,1,2.33,107
"55",555415,"511085",1,1,"different",6,1,2.85,98
"56",555415,"511086",1,1,"different",2,1,2.687,30
"57",555415,"511087",1,1,"different",6,1,2.343,4
"58",555415,"511088",1,1,"different",5,1,5.349,85
"59",555415,"511089",1,1,"different",5,1,3.459,10
"60",555415,"511090",1,1,"different",2,1,6.595,112
"61",555432,"221031",1,1,"different",5,1,4.291,96
"62",555432,"221032",1,1,"different",5,1,5.293,91
"63",555432,"221033",1,1,"different",5,1,5.435,27
"64",555432,"221034",1,1,"different",6,1,2.734,29
"65",555432,"221035",1,1,"different",3,1,2.82,93
"66",555432,"221036",1,1,"different",6,1,3.243,37
"67",555432,"221037",1,1,"different",6,1,6.233,3
"68",555432,"221038",1,1,"different",6,1,4.474,85
"69",555432,"221039",1,1,"different",5,1,4.303,56
"70",555432,"221040",1,1,"different",3,1,3.45,57
"71",555432,"221041",1,1,"different",5,1,4.615,19
"72",555432,"221042",1,1,"different",6,1,3.879,44
"73",555432,"221043",1,1,"different",6,1,5.945,105
"74",555432,"221044",1,1,"different",6,1,3.227,43
"75",555432,"221045",1,1,"different",2,1,3.053,64
"76",555432,"221046",1,1,"different",3,1,3.014,120
"77",555432,"221047",1,1,"different",5,1,2.919,48
"78",555432,"221048",1,1,"different",6,1,4.53,15
"79",555432,"221049",1,1,"different",6,1,3.825,41
"80",555432,"221050",1,1,"different",6,1,3.299,97
"81",555432,"221051",1,1,"different",6,1,3.122,82
"82",555432,"221052",1,1,"different",6,1,4.274,107
"83",555432,"221053",1,1,"different",6,1,3.698,26
"84",555432,"221054",1,1,"different",6,1,3.824,58
"85",555432,"221055",1,1,"different",6,1,4.154,50
"86",555432,"221056",1,1,"different",6,1,3.272,6
"87",555432,"221057",1,1,"different",6,1,3.547,40
"88",555432,"221058",1,1,"different",6,1,4.346,109
"89",555432,"221059",1,1,"different",6,1,4.922,30
"90",555432,"221060",1,1,"different",6,1,3.659,35
"91",555432,"411001",1,1,"different",6,1,4.06,14
"92",555432,"411002",1,1,"different",6,1,3.273,99
"93",555432,"411003",1,1,"different",6,1,3.893,113
"94",555432,"411004",1,1,"different",4,1,4.01,45
"95",555432,"411005",1,1,"different",6,1,3.31,100
"96",555432,"411006",1,1,"different",4,1,4.387,74
"97",555432,"411007",1,1,"different",3,1,4.068,38
"98",555432,"411008",1,1,"different",6,1,3.591,24
"99",555432,"411009",1,1,"different",6,1,4.168,55
"100",555432,"411010",1,1,"different",6,1,2.656,95
"101",555432,"411011",1,1,"different",5,1,2.655,115
"102",555432,"411012",1,1,"different",6,1,3.863,36
"103",555432,"411013",1,1,"different",6,1,5.505,70
"104",555432,"411014",1,1,"different",6,1,3.144,10
"105",555432,"411015",1,1,"different",5,1,2.93,111
"106",555432,"411016",1,1,"different",6,1,4.044,67
"107",555432,"411017",1,1,"different",6,1,2.887,110
"108",555432,"411018",1,1,"different",6,1,2.494,71
"109",555432,"411019",1,1,"different",6,1,3.583,21
"110",555432,"411020",1,1,"different",4,1,5.163,33
"111",555432,"411021",1,1,"different",6,1,4.19,17
"112",555432,"411022",1,1,"different",6,1,4.804,7
"113",555432,"411023",1,1,"different",6,1,4.445,25
"114",555432,"411024",1,1,"different",5,1,3.496,102
"115",555432,"411025",1,1,"different",6,1,4.029,87
"116",555432,"411026",1,1,"different",6,1,3.222,73
"117",555432,"411027",1,1,"different",6,1,2.783,77
"118",555432,"411028",1,1,"different",4,1,5.647,4
"119",555432,"411029",1,1,"different",3,1,3.359,59
"120",555432,"411030",1,1,"different",6,1,6.386,39
"121",555437,"211001",1,1,"different",6,1,3.045,13
"122",555437,"211002",1,1,"different",1,1,4.891,102
"123",555437,"211003",1,1,"different",6,1,3.692,109
"124",555437,"211004",1,1,"different",2,1,4.199,14
"125",555437,"211005",1,1,"different",6,1,4.231,100
"126",555437,"211006",1,1,"different",1,1,2.879,23
"127",555437,"211007",1,1,"different",1,1,3.745,7
"128",555437,"211008",1,1,"different",1,1,5.202,4
"129",555437,"211009",1,1,"different",6,1,3.97,6
"130",555437,"211010",1,1,"different",6,1,4.729,117
"131",555437,"211011",1,1,"different",1,1,2.944,62
"132",555437,"211012",1,1,"different",1,1,3.707,16
"133",555437,"211013",1,1,"different",1,1,7.013,30
"134",555437,"211014",1,1,"different",2,1,4.257,3
"135",555437,"211015",1,1,"different",6,1,4.557,24
"136",555437,"211016",1,1,"different",1,1,4.587,47
"137",555437,"211017",1,1,"different",1,1,3.621,86
"138",555437,"211018",1,1,"different",6,1,4.194,115
"139",555437,"211019",1,1,"different",1,1,5.896,70
"140",555437,"211020",1,1,"different",1,1,NA,11
"141",555437,"211021",1,1,"different",6,1,3.838,54
"142",555437,"211022",1,1,"different",6,1,4.688,45
"143",555437,"211023",1,1,"different",1,1,2.783,90
"144",555437,"211024",1,1,"different",1,1,3.564,29
"145",555437,"211025",1,1,"different",1,1,4.339,15
"146",555437,"211026",1,1,"different",1,1,2.998,113
"147",555437,"211027",1,1,"different",1,1,3.31,39
"148",555437,"211028",1,1,"different",1,1,3.549,93
"149",555437,"211029",1,1,"different",1,1,7.775,20
"150",555437,"211030",1,1,"different",1,1,3.555,94
"151",555437,"421031",1,1,"different",1,1,3.585,84
"152",555437,"421032",1,1,"different",6,1,3.018,99
"153",555437,"421033",1,1,"different",3,1,6.26,1
"154",555437,"421034",1,1,"different",6,1,4.485,60
"155",555437,"421035",1,1,"different",1,1,3.196,59
"156",555437,"421036",1,1,"different",6,1,4.864,26
"157",555437,"421037",1,1,"different",1,1,3.25,72
"158",555437,"421038",1,1,"different",1,1,3.024,88
"159",555437,"421039",1,1,"different",1,1,2.83,83
"160",555437,"421040",1,1,"different",1,1,3.678,85
"161",555437,"421041",1,1,"different",1,1,4.308,21
"162",555437,"421042",1,1,"different",1,1,3.981,114
"163",555437,"421043",1,1,"different",1,1,4.554,68
"164",555437,"421044",1,1,"different",6,1,3.224,106
"165",555437,"421045",1,1,"different",1,1,3.29,53
"166",555437,"421046",1,1,"different",1,1,3.562,35
"167",555437,"421047",1,1,"different",1,1,4.316,19
"168",555437,"421048",1,1,"different",1,1,5.116,49
"169",555437,"421049",1,1,"different",NA,1,NA,36
"170",555437,"421050",1,1,"different",1,1,3.648,66
"171",555437,"421051",1,1,"different",6,1,3.981,75
"172",555437,"421052",1,1,"different",1,1,3.699,87
"173",555437,"421053",1,1,"different",6,1,4.403,104
"174",555437,"421054",1,1,"different",1,1,4.356,50
"175",555437,"421055",1,1,"different",6,1,3.177,32
"176",555437,"421056",1,1,"different",1,1,2.731,64
"177",555437,"421057",1,1,"different",6,1,4.458,119
"178",555437,"421058",1,1,"different",6,1,3.783,116
"179",555437,"421059",1,1,"different",1,1,3.852,80
"180",555437,"421060",1,1,"different",6,1,3.371,33
"181",555441,"311061",1,1,"different",2,1,0.972,93
"182",555441,"311062",1,1,"different",4,1,2.251,12
"183",555441,"311063",1,1,"different",4,1,3.835,11
"184",555441,"311064",1,1,"different",6,1,3.393,7
"185",555441,"311065",1,1,"different",5,1,1.086,97
"186",555441,"311066",1,1,"different",3,1,1.241,119
"187",555441,"311067",1,1,"different",4,1,2.817,45
"188",555441,"311068",1,1,"different",6,1,4.726,31
"189",555441,"311069",1,1,"different",6,1,2.565,21
"190",555441,"311070",1,1,"different",5,1,3.265,50
"191",555441,"311071",1,1,"different",NA,1,NA,3
"192",555441,"311072",1,1,"different",5,1,1.65,73
"193",555441,"311073",1,1,"different",4,1,1.306,63
"194",555441,"311074",1,1,"different",6,1,2.345,34
"195",555441,"311075",1,1,"different",6,1,2.38,32
"196",555441,"311076",1,1,"different",2,1,1.976,75
"197",555441,"311077",1,1,"different",3,1,2.037,42
"198",555441,"311078",1,1,"different",4,1,1.153,86
"199",555441,"311079",1,1,"different",3,1,1.261,58
"200",555441,"311080",1,1,"different",4,1,0.952,106
"201",555441,"311081",1,1,"different",6,1,3.278,44
"202",555441,"311082",1,1,"different",2,1,4.161,33
"203",555441,"311083",1,1,"different",6,1,1.469,103
"204",555441,"311084",1,1,"different",2,1,1.294,79
"205",555441,"311085",1,1,"different",6,1,3.218,20
"206",555441,"311086",1,1,"different",5,1,1.21,120
"207",555441,"311087",1,1,"different",4,1,1.224,64
"208",555441,"311088",1,1,"different",1,1,1.727,112
"209",555441,"311089",1,1,"different",1,1,4.828,4
"210",555441,"311090",1,1,"different",5,1,1.544,104
"211",555441,"521091",1,1,"different",NA,1,NA,1
"212",555441,"521092",1,1,"different",2,1,1.085,105
"213",555441,"521093",1,1,"different",1,1,0.916,99
"214",555441,"521094",1,1,"different",6,1,1.355,90
"215",555441,"521095",1,1,"different",1,1,4.828,6
"216",555441,"521096",1,1,"different",3,1,1.234,38
"217",555441,"521097",1,1,"different",4,1,1.62,62
"218",555441,"521098",1,1,"different",2,1,3.091,46
"219",555441,"521099",1,1,"different",3,1,3.515,27
"220",555441,"521100",1,1,"different",6,1,1.749,117
"221",555441,"521101",1,1,"different",3,1,1.497,100
"222",555441,"521102",1,1,"different",5,1,1.908,68
"223",555441,"521103",1,1,"different",2,1,3.127,26
"224",555441,"521104",1,1,"different",4,1,1.592,85
"225",555441,"521105",1,1,"different",2,1,1.443,70
"226",555441,"521106",1,1,"different",6,1,2.625,56
"227",555441,"521107",1,1,"different",4,1,1.177,96
"228",555441,"521108",1,1,"different",3,1,1.32,39
"229",555441,"521109",1,1,"different",5,1,5.64,24
"230",555441,"521110",1,1,"different",4,1,1.005,95
"231",555441,"521111",1,1,"different",5,1,1.693,87
"232",555441,"521112",1,1,"different",5,1,2.327,83
"233",555441,"521113",1,1,"different",4,1,2.084,91
"234",555441,"521114",1,1,"different",5,1,1.482,77
"235",555441,"521115",1,1,"different",3,1,4.13,18
"236",555441,"521116",1,1,"different",2,1,7.014,15
"237",555441,"521117",1,1,"different",4,1,1.352,57
"238",555441,"521118",1,1,"different",4,1,1.081,71
"239",555441,"521119",1,1,"different",3,1,1.644,92
"240",555441,"521120",1,1,"different",5,1,1.346,109
"241",555452,"321091",1,1,"same",6,1,4.666,112
"242",555452,"321092",1,1,"same",5,1,3.085,88
"243",555452,"321093",1,1,"same",6,1,2.787,109
"244",555452,"321094",1,1,"same",6,1,3.839,29
"245",555452,"321095",1,1,"same",6,1,3.076,115
"246",555452,"321096",1,1,"same",6,1,4.525,8
"247",555452,"321097",1,1,"same",6,1,4.615,25
"248",555452,"321098",1,1,"same",6,1,3.969,40
"249",555452,"321099",1,1,"same",6,1,3.437,62
"250",555452,"321100",1,1,"same",6,1,6.85,87
"251",555452,"321101",1,1,"same",6,1,5.526,36
"252",555452,"321102",1,1,"same",6,1,4.853,16
"253",555452,"321103",1,1,"same",6,1,4.126,17
"254",555452,"321104",1,1,"same",6,1,3.272,114
"255",555452,"321105",1,1,"same",6,1,4.199,13
"256",555452,"321106",1,1,"same",6,1,5.869,102
"257",555452,"321107",1,1,"same",6,1,3.524,53
"258",555452,"321108",1,1,"same",6,1,5.034,2
"259",555452,"321109",1,1,"same",6,1,5.043,91
"260",555452,"321110",1,1,"same",1,1,7.177,14
"261",555452,"321111",1,1,"same",6,1,5.226,37
"262",555452,"321112",1,1,"same",6,1,3.11,77
"263",555452,"321113",1,1,"same",2,1,3.437,98
"264",555452,"321114",1,1,"same",6,1,7.706,63
"265",555452,"321115",1,1,"same",6,1,3.274,43
"266",555452,"321116",1,1,"same",6,1,6.462,3
"267",555452,"321117",1,1,"same",6,1,5.958,28
"268",555452,"321118",1,1,"same",5,1,4.922,92
"269",555452,"321119",1,1,"same",6,1,4.344,97
"270",555452,"321120",1,1,"same",6,1,3.873,57
"271",555452,"511061",1,1,"same",3,1,4.972,100
"272",555452,"511062",1,1,"same",6,1,3.873,80
"273",555452,"511063",1,1,"same",6,1,3.123,54
"274",555452,"511064",1,1,"same",6,1,5.246,12
"275",555452,"511065",1,1,"same",6,1,4.485,66
"276",555452,"511066",1,1,"same",6,1,2.8,110
"277",555452,"511067",1,1,"same",6,1,4.029,64
"278",555452,"511068",1,1,"same",6,1,4.045,45
"279",555452,"511069",1,1,"same",6,1,5.177,27
"280",555452,"511070",1,1,"same",6,1,3.25,11
"281",555452,"511071",1,1,"same",4,1,8.484,72
"282",555452,"511072",1,1,"same",6,1,3.894,81
"283",555452,"511073",1,1,"same",6,1,3.689,39
"284",555452,"511074",1,1,"same",6,1,4.088,24
"285",555452,"511075",1,1,"same",6,1,5.407,105
"286",555452,"511076",1,1,"same",6,1,3.535,73
"287",555452,"511077",1,1,"same",6,1,3.509,19
"288",555452,"511078",1,1,"same",6,1,3.626,108
"289",555452,"511079",1,1,"same",6,1,3.197,52
"290",555452,"511080",1,1,"same",6,1,3.191,20
"291",555452,"511081",1,1,"same",6,1,4.237,15
"292",555452,"511082",1,1,"same",2,1,3.855,119
"293",555452,"511083",1,1,"same",6,1,5.812,99
"294",555452,"511084",1,1,"same",4,1,8.694,18
"295",555452,"511085",1,1,"same",6,1,5.211,6
"296",555452,"511086",1,1,"same",6,1,4.395,21
"297",555452,"511087",1,1,"same",6,1,3.842,51
"298",555452,"511088",1,1,"same",6,1,4.548,59
"299",555452,"511089",1,1,"same",6,1,3.254,94
"300",555452,"511090",1,1,"same",6,1,4.258,78
"301",555591,"311061",1,1,"same",NA,1,NA,1
"302",555591,"311062",1,1,"same",6,1,4.642,47
"303",555591,"311063",1,1,"same",1,1,6.25,59
"304",555591,"311064",1,1,"same",1,1,8.655,5
"305",555591,"311065",1,1,"same",6,1,3.352,42
"306",555591,"311066",1,1,"same",6,1,6.685,82
"307",555591,"311067",1,1,"same",6,1,4.109,56
"308",555591,"311068",1,1,"same",6,1,4.17,70
"309",555591,"311069",1,1,"same",6,1,36.768,102
"310",555591,"311070",1,1,"same",6,1,22.354,78
"311",555591,"311071",1,1,"same",6,1,3.861,88
"312",555591,"311072",1,1,"same",6,1,34.786,83
"313",555591,"311073",1,1,"same",1,1,4.588,106
"314",555591,"311074",1,1,"same",6,1,5.077,65
"315",555591,"311075",1,1,"same",6,1,3.415,40
"316",555591,"311076",1,1,"same",6,1,3.235,87
"317",555591,"311077",1,1,"same",1,1,NA,95
"318",555591,"311078",1,1,"same",6,1,4.114,91
"319",555591,"311079",1,1,"same",6,1,3.608,86
"320",555591,"311080",1,1,"same",6,1,37.539,98
"321",555591,"311081",1,1,"same",6,1,6.064,111
"322",555591,"311082",1,1,"same",6,1,5.084,41
"323",555591,"311083",1,1,"same",6,1,4.016,23
"324",555591,"311084",1,1,"same",6,1,6.184,9
"325",555591,"311085",1,1,"same",1,1,38.141,112
"326",555591,"311086",1,1,"same",6,1,5.069,16
"327",555591,"311087",1,1,"same",6,1,56.991,81
"328",555591,"311088",1,1,"same",6,1,3.366,35
"329",555591,"311089",1,1,"same",6,1,8.409,116
"330",555591,"311090",1,1,"same",1,1,12.139,75
"331",555591,"521091",1,1,"same",1,1,5.113,26
"332",555591,"521092",1,1,"same",6,1,5.245,63
"333",555591,"521093",1,1,"same",1,1,5.673,37
"334",555591,"521094",1,1,"same",1,1,3.477,44
"335",555591,"521095",1,1,"same",6,1,4.76,34
"336",555591,"521096",1,1,"same",1,1,5.893,3
"337",555591,"521097",1,1,"same",6,1,4.034,54
"338",555591,"521098",1,1,"same",6,1,3.751,36
"339",555591,"521099",1,1,"same",6,1,4.917,20
"340",555591,"521100",1,1,"same",1,1,3.273,99
"341",555591,"521101",1,1,"same",1,1,4.759,8
"342",555591,"521102",1,1,"same",6,1,4.15,119
"343",555591,"521103",1,1,"same",6,1,3.53,39
"344",555591,"521104",1,1,"same",6,1,3.271,46
"345",555591,"521105",1,1,"same",6,1,5.113,76
"346",555591,"521106",1,1,"same",1,1,6.425,93
"347",555591,"521107",1,1,"same",6,1,54.33,101
"348",555591,"521108",1,1,"same",6,1,3.667,14
"349",555591,"521109",1,1,"same",6,1,5.122,104
"350",555591,"521110",1,1,"same",1,1,6.263,90
"351",555591,"521111",1,1,"same",1,1,4.385,96
"352",555591,"521112",1,1,"same",6,1,5.05,55
"353",555591,"521113",1,1,"same",1,1,4.838,22
"354",555591,"521114",1,1,"same",6,1,5.839,10
"355",555591,"521115",1,1,"same",6,1,3.609,15
"356",555591,"521116",1,1,"same",6,1,3.926,103
"357",555591,"521117",1,1,"same",6,1,4.954,13
"358",555591,"521118",1,1,"same",6,1,4.209,51
"359",555591,"521119",1,1,"same",1,1,4.551,113
"360",555591,"521120",1,1,"same",6,1,6.896,45
"361",555593,"211001",1,1,"same",6,1,5.309,18
"362",555593,"211002",1,1,"same",4,1,4.34,117
"363",555593,"211003",1,1,"same",6,1,4.558,24
"364",555593,"211004",1,1,"same",4,1,4.634,111
"365",555593,"211005",1,1,"same",6,1,5.1,3
"366",555593,"211006",1,1,"same",5,1,5.413,13
"367",555593,"211007",1,1,"same",6,1,7.263,82
"368",555593,"211008",1,1,"same",5,1,4.1,46
"369",555593,"211009",1,1,"same",6,1,4.038,40
"370",555593,"211010",1,1,"same",6,1,4.222,23
"371",555593,"211011",1,1,"same",3,1,7.201,120
"372",555593,"211012",1,1,"same",4,1,3.265,101
"373",555593,"211013",1,1,"same",6,1,4.743,17
"374",555593,"211014",1,1,"same",6,1,3.435,56
"375",555593,"211015",1,1,"same",3,1,4.585,25
"376",555593,"211016",1,1,"same",6,1,4.154,49
"377",555593,"211017",1,1,"same",6,1,5.808,6
"378",555593,"211018",1,1,"same",5,1,4.656,77
"379",555593,"211019",1,1,"same",6,1,4.826,51
"380",555593,"211020",1,1,"same",4,1,4.084,103
"381",555593,"211021",1,1,"same",6,1,5.887,64
"382",555593,"211022",1,1,"same",4,1,5.256,83
"383",555593,"211023",1,1,"same",4,1,4.733,89
"384",555593,"211024",1,1,"same",6,1,5.971,63
"385",555593,"211025",1,1,"same",6,1,7.342,7
"386",555593,"211026",1,1,"same",4,1,5.612,32
"387",555593,"211027",1,1,"same",6,1,3.908,52
"388",555593,"211028",1,1,"same",6,1,4.529,74
"389",555593,"211029",1,1,"same",3,1,5.063,81
"390",555593,"211030",1,1,"same",2,1,5.895,115
"391",555593,"421031",1,1,"same",6,1,3.294,97
"392",555593,"421032",1,1,"same",1,1,5.463,104
"393",555593,"421033",1,1,"same",4,1,4.539,68
"394",555593,"421034",1,1,"same",6,1,3.777,10
"395",555593,"421035",1,1,"same",4,1,5.023,31
"396",555593,"421036",1,1,"same",4,1,4.187,59
"397",555593,"421037",1,1,"same",6,1,4.457,54
"398",555593,"421038",1,1,"same",6,1,4.618,66
"399",555593,"421039",1,1,"same",3,1,3.929,99
"400",555593,"421040",1,1,"same",6,1,5.671,85
"401",555593,"421041",1,1,"same",6,1,4.616,39
"402",555593,"421042",1,1,"same",4,1,4.227,69
"403",555593,"421043",1,1,"same",6,1,4.565,19
"404",555593,"421044",1,1,"same",6,1,4.998,14
"405",555593,"421045",1,1,"same",6,1,4.049,26
"406",555593,"421046",1,1,"same",6,1,4.832,57
"407",555593,"421047",1,1,"same",6,1,4.202,102
"408",555593,"421048",1,1,"same",5,1,3.674,33
"409",555593,"421049",1,1,"same",4,1,6.208,116
"410",555593,"421050",1,1,"same",2,1,NA,21
"411",555593,"421051",1,1,"same",6,1,5.561,71
"412",555593,"421052",1,1,"same",1,1,7.9,119
"413",555593,"421053",1,1,"same",6,1,3.765,35
"414",555593,"421054",1,1,"same",6,1,4.379,47
"415",555593,"421055",1,1,"same",3,1,3.207,109
"416",555593,"421056",1,1,"same",4,1,3.415,44
"417",555593,"421057",1,1,"same",3,1,4.125,75
"418",555593,"421058",1,1,"same",3,1,8.89,58
"419",555593,"421059",1,1,"same",4,1,4.805,88
"420",555593,"421060",1,1,"same",6,1,4.817,11
"421",555915,"221031",1,1,"same",4,1,3.958,106
"422",555915,"221032",1,1,"same",6,1,4.55,93
"423",555915,"221033",1,1,"same",3,1,8.009,109
"424",555915,"221034",1,1,"same",2,1,4.065,79
"425",555915,"221035",1,1,"same",2,1,3.281,11
"426",555915,"221036",1,1,"same",2,1,6.358,111
"427",555915,"221037",1,1,"same",4,1,5.224,48
"428",555915,"221038",1,1,"same",3,1,3.627,18
"429",555915,"221039",1,1,"same",5,1,5.099,13
"430",555915,"221040",1,1,"same",3,1,7.825,65
"431",555915,"221041",1,1,"same",5,1,4.181,5
"432",555915,"221042",1,1,"same",2,1,7.53,78
"433",555915,"221043",1,1,"same",3,1,3.065,59
"434",555915,"221044",1,1,"same",1,1,3.972,81
"435",555915,"221045",1,1,"same",5,1,3.164,85
"436",555915,"221046",1,1,"same",2,1,4.268,88
"437",555915,"221047",1,1,"same",5,1,2.512,97
"438",555915,"221048",1,1,"same",5,1,4.509,3
"439",555915,"221049",1,1,"same",5,1,3.11,4
"440",555915,"221050",1,1,"same",6,1,4.769,100
"441",555915,"221051",1,1,"same",2,1,4.32,101
"442",555915,"221052",1,1,"same",2,1,4.363,84
"443",555915,"221053",1,1,"same",4,1,6.846,20
"444",555915,"221054",1,1,"same",4,1,4.637,37
"445",555915,"221055",1,1,"same",6,1,4.26,62
"446",555915,"221056",1,1,"same",5,1,7.84,112
"447",555915,"221057",1,1,"same",5,1,6.175,89
"448",555915,"221058",1,1,"same",1,1,4.351,17
"449",555915,"221059",1,1,"same",6,1,2.955,120
"450",555915,"221060",1,1,"same",5,1,5.929,39
"451",555915,"411001",1,1,"same",5,1,3.18,96
"452",555915,"411002",1,1,"same",6,1,4.851,35
"453",555915,"411003",1,1,"same",2,1,3.926,58
"454",555915,"411004",1,1,"same",5,1,3.388,115
"455",555915,"411005",1,1,"same",1,1,2.87,75
"456",555915,"411006",1,1,"same",5,1,4.697,114
"457",555915,"411007",1,1,"same",5,1,5.786,76
"458",555915,"411008",1,1,"same",4,1,9.275,119
"459",555915,"411009",1,1,"same",3,1,3.395,103
"460",555915,"411010",1,1,"same",5,1,NA,27
"461",555915,"411011",1,1,"same",3,1,5.247,117
"462",555915,"411012",1,1,"same",1,1,5.686,60
"463",555915,"411013",1,1,"same",4,1,7.096,19
"464",555915,"411014",1,1,"same",4,1,3.1,50
"465",555915,"411015",1,1,"same",5,1,4.28,29
"466",555915,"411016",1,1,"same",2,1,4.254,67
"467",555915,"411017",1,1,"same",6,1,4.397,94
"468",555915,"411018",1,1,"same",6,1,6.328,64
"469",555915,"411019",1,1,"same",2,1,5.595,42
"470",555915,"411020",1,1,"same",3,1,4.395,63
"471",555915,"411021",1,1,"same",5,1,5.047,49
"472",555915,"411022",1,1,"same",2,1,3.151,105
"473",555915,"411023",1,1,"same",2,1,6.042,47
"474",555915,"411024",1,1,"same",4,1,5.681,32
"475",555915,"411025",1,1,"same",5,1,4.442,55
"476",555915,"411026",1,1,"same",3,1,5.397,61
"477",555915,"411027",1,1,"same",1,1,4.565,23
"478",555915,"411028",1,1,"same",1,1,6.613,26
"479",555915,"411029",1,1,"same",4,1,6.904,54
"480",555915,"411030",1,1,"same",1,1,3.905,25
"481",555964,"311061",1,1,"different",6,1,3.254,39
"482",555964,"311062",1,1,"different",1,1,2.708,93
"483",555964,"311063",1,1,"different",6,1,4.216,19
"484",555964,"311064",1,1,"different",6,1,3.01,46
"485",555964,"311065",1,1,"different",6,1,3.623,72
"486",555964,"311066",1,1,"different",1,1,3.671,77
"487",555964,"311067",1,1,"different",6,1,2.941,90
"488",555964,"311068",1,1,"different",6,1,2.685,85
"489",555964,"311069",1,1,"different",6,1,4.371,53
"490",555964,"311070",1,1,"different",6,1,2.614,16
"491",555964,"311071",1,1,"different",1,1,6.378,5
"492",555964,"311072",1,1,"different",1,1,2.966,79
"493",555964,"311073",1,1,"different",6,1,3.626,120
"494",555964,"311074",1,1,"different",6,1,2.246,58
"495",555964,"311075",1,1,"different",6,1,2.327,78
"496",555964,"311076",1,1,"different",6,1,2.138,112
"497",555964,"311077",1,1,"different",6,1,3.246,109
"498",555964,"311078",1,1,"different",1,1,4.55,84
"499",555964,"311079",1,1,"different",6,1,2.476,74
"500",555964,"311080",1,1,"different",6,1,1.78,118
"501",555964,"311081",1,1,"different",6,1,2.528,47
"502",555964,"311082",1,1,"different",6,1,5.878,9
"503",555964,"311083",1,1,"different",6,1,3.848,104
"504",555964,"311084",1,1,"different",5,1,5.313,114
"505",555964,"311085",1,1,"different",6,1,4.853,22
"506",555964,"311086",1,1,"different",6,1,3.45,36
"507",555964,"311087",1,1,"different",5,1,6.042,12
"508",555964,"311088",1,1,"different",6,1,2.329,21
"509",555964,"311089",1,1,"different",6,1,4.112,99
"510",555964,"311090",1,1,"different",1,1,3.714,95
"511",555964,"521091",1,1,"different",6,1,3.695,23
"512",555964,"521092",1,1,"different",1,1,4.376,32
"513",555964,"521093",1,1,"different",6,1,4.117,65
"514",555964,"521094",1,1,"different",2,1,3.428,75
"515",555964,"521095",1,1,"different",6,1,4.259,80
"516",555964,"521096",1,1,"different",2,1,4.886,62
"517",555964,"521097",1,1,"different",6,1,6.346,71
"518",555964,"521098",1,1,"different",6,1,3.161,7
"519",555964,"521099",1,1,"different",6,1,4.6,14
"520",555964,"521100",1,1,"different",2,1,4.512,82
"521",555964,"521101",1,1,"different",6,1,3.482,55
"522",555964,"521102",1,1,"different",6,1,3.361,108
"523",555964,"521103",1,1,"different",6,1,3.09,45
"524",555964,"521104",1,1,"different",6,1,2.516,91
"525",555964,"521105",1,1,"different",6,1,4.722,116
"526",555964,"521106",1,1,"different",6,1,4.247,61
"527",555964,"521107",1,1,"different",6,1,2.835,26
"528",555964,"521108",1,1,"different",6,1,2.845,110
"529",555964,"521109",1,1,"different",6,1,3.509,119
"530",555964,"521110",1,1,"different",6,1,2.853,49
"531",555964,"521111",1,1,"different",2,1,4.207,18
"532",555964,"521112",1,1,"different",6,1,5.003,37
"533",555964,"521113",1,1,"different",6,1,6.238,117
"534",555964,"521114",1,1,"different",1,1,3.783,57
"535",555964,"521115",1,1,"different",6,1,3.553,30
"536",555964,"521116",1,1,"different",6,1,3.227,52
"537",555964,"521117",1,1,"different",5,1,4.614,64
"538",555964,"521118",1,1,"different",NA,1,NA,1
"539",555964,"521119",1,1,"different",1,1,5.343,89
"540",555964,"521120",1,1,"different",5,1,4.021,111
"541",555997,"211001",1,1,"different",6,1,6.8,23
"542",555997,"211002",1,1,"different",6,1,5.421,15
"543",555997,"211003",1,1,"different",6,1,3.996,27
"544",555997,"211004",1,1,"different",6,1,4.225,101
"545",555997,"211005",1,1,"different",6,1,6.266,113
"546",555997,"211006",1,1,"different",6,1,3.888,98
"547",555997,"211007",1,1,"different",6,1,5.274,66
"548",555997,"211008",1,1,"different",6,1,5.489,35
"549",555997,"211009",1,1,"different",6,1,4.563,47
"550",555997,"211010",1,1,"different",6,1,5.383,8
"551",555997,"211011",1,1,"different",6,1,4.4,86
"552",555997,"211012",1,1,"different",6,1,4.801,70
"553",555997,"211013",1,1,"different",6,1,4.306,87
"554",555997,"211014",1,1,"different",6,1,3.572,7
"555",555997,"211015",1,1,"different",6,1,5.782,79
"556",555997,"211016",1,1,"different",NA,1,NA,1
"557",555997,"211017",1,1,"different",6,1,4.76,63
"558",555997,"211018",1,1,"different",6,1,4.386,42
"559",555997,"211019",1,1,"different",6,1,6.22,84
"560",555997,"211020",1,1,"different",6,1,7.526,110
"561",555997,"211021",1,1,"different",NA,1,NA,2
"562",555997,"211022",1,1,"different",6,1,4.48,11
"563",555997,"211023",1,1,"different",6,1,6.37,20
"564",555997,"211024",1,1,"different",6,1,4.936,74
"565",555997,"211025",1,1,"different",6,1,5.324,51
"566",555997,"211026",1,1,"different",6,1,3.777,107
"567",555997,"211027",1,1,"different",1,1,9.083,108
"568",555997,"211028",1,1,"different",6,1,3.467,12
"569",555997,"211029",1,1,"different",6,1,7.991,109
"570",555997,"211030",1,1,"different",6,1,4.452,105
"571",555997,"421031",1,1,"different",6,1,6.921,114
"572",555997,"421032",1,1,"different",6,1,4.483,46
"573",555997,"421033",1,1,"different",6,1,5.761,31
"574",555997,"421034",1,1,"different",6,1,3.871,6
"575",555997,"421035",1,1,"different",6,1,3.824,91
"576",555997,"421036",1,1,"different",6,1,7.528,4
"577",555997,"421037",1,1,"different",6,1,3.67,75
"578",555997,"421038",1,1,"different",6,1,4.816,28
"579",555997,"421039",1,1,"different",6,1,4.477,55
"580",555997,"421040",1,1,"different",6,1,5.335,89
"581",555997,"421041",1,1,"different",6,1,5.89,59
"582",555997,"421042",1,1,"different",6,1,4.058,19
"583",555997,"421043",1,1,"different",1,1,7.445,64
"584",555997,"421044",1,1,"different",6,1,4.851,68
"585",555997,"421045",1,1,"different",6,1,4.118,37
"586",555997,"421046",1,1,"different",1,1,5.791,57
"587",555997,"421047",1,1,"different",6,1,3.709,118
"588",555997,"421048",1,1,"different",6,1,6.249,93
"589",555997,"421049",1,1,"different",6,1,4.406,26
"590",555997,"421050",1,1,"different",6,1,4.359,82
"591",555997,"421051",1,1,"different",6,1,4.148,52
"592",555997,"421052",1,1,"different",6,1,4.602,88
"593",555997,"421053",1,1,"different",6,1,4.792,24
"594",555997,"421054",1,1,"different",6,1,4.746,119
"595",555997,"421055",1,1,"different",6,1,3.597,120
"596",555997,"421056",1,1,"different",6,1,4.66,44
"597",555997,"421057",1,1,"different",6,1,5.317,62
"598",555997,"421058",1,1,"different",6,1,4.247,56
"599",555997,"421059",1,1,"different",2,1,8.842,14
"600",555997,"421060",1,1,"different",6,1,5.108,5
"601",556127,"321091",1,1,"same",6,1,3.959,54
"602",556127,"321092",1,1,"same",2,1,2.324,87
"603",556127,"321093",1,1,"same",6,1,4.3,45
"604",556127,"321094",1,1,"same",6,1,3.273,28
"605",556127,"321095",1,1,"same",6,1,2.202,86
"606",556127,"321096",1,1,"same",3,1,4.422,7
"607",556127,"321097",1,1,"same",6,1,3.186,27
"608",556127,"321098",1,1,"same",6,1,2.317,5
"609",556127,"321099",1,1,"same",6,1,2.23,36
"610",556127,"321100",1,1,"same",6,1,NA,63
"611",556127,"321101",1,1,"same",6,1,2.675,10
"612",556127,"321102",1,1,"same",2,1,2.41,118
"613",556127,"321103",1,1,"same",6,1,2.395,120
"614",556127,"321104",1,1,"same",6,1,7.801,1
"615",556127,"321105",1,1,"same",6,1,2.686,93
"616",556127,"321106",1,1,"same",6,1,2.768,96
"617",556127,"321107",1,1,"same",6,1,3.567,60
"618",556127,"321108",1,1,"same",6,1,2.296,34
"619",556127,"321109",1,1,"same",6,1,5.97,32
"620",556127,"321110",1,1,"same",6,1,2.247,116
"621",556127,"321111",1,1,"same",5,1,3.508,17
"622",556127,"321112",1,1,"same",6,1,3.361,117
"623",556127,"321113",1,1,"same",2,1,2.124,85
"624",556127,"321114",1,1,"same",6,1,3.552,39
"625",556127,"321115",1,1,"same",2,1,2.784,56
"626",556127,"321116",1,1,"same",6,1,4.117,33
"627",556127,"321117",1,1,"same",6,1,3.96,30
"628",556127,"321118",1,1,"same",6,1,2.564,104
"629",556127,"321119",1,1,"same",2,1,3.154,37
"630",556127,"321120",1,1,"same",6,1,3.906,61
"631",556127,"511061",1,1,"same",6,1,3.113,25
"632",556127,"511062",1,1,"same",2,1,2.805,105
"633",556127,"511063",1,1,"same",3,1,3.072,71
"634",556127,"511064",1,1,"same",6,1,2.733,78
"635",556127,"511065",1,1,"same",6,1,2.202,74
"636",556127,"511066",1,1,"same",6,1,2.668,3
"637",556127,"511067",1,1,"same",6,1,2.276,57
"638",556127,"511068",1,1,"same",6,1,3.521,52
"639",556127,"511069",1,1,"same",3,1,1.917,113
"640",556127,"511070",1,1,"same",6,1,4.452,4
"641",556127,"511071",1,1,"same",6,1,2.762,107
"642",556127,"511072",1,1,"same",6,1,3.256,41
"643",556127,"511073",1,1,"same",3,1,2.67,112
"644",556127,"511074",1,1,"same",6,1,4.158,31
"645",556127,"511075",1,1,"same",4,1,4.743,16
"646",556127,"511076",1,1,"same",6,1,2.529,35
"647",556127,"511077",1,1,"same",3,1,2.477,58
"648",556127,"511078",1,1,"same",6,1,3.782,102
"649",556127,"511079",1,1,"same",6,1,2.536,51
"650",556127,"511080",1,1,"same",6,1,1.804,79
"651",556127,"511081",1,1,"same",6,1,2.19,111
"652",556127,"511082",1,1,"same",6,1,3.845,19
"653",556127,"511083",1,1,"same",6,1,2.48,22
"654",556127,"511084",1,1,"same",3,1,2.365,88
"655",556127,"511085",1,1,"same",6,1,2.656,98
"656",556127,"511086",1,1,"same",6,1,2.835,43
"657",556127,"511087",1,1,"same",6,1,2.483,69
"658",556127,"511088",1,1,"same",6,1,2.577,26
"659",556127,"511089",1,1,"same",2,1,6.645,18
"660",556127,"511090",1,1,"same",2,1,2.889,55
"661",556139,"211001",1,1,"same",6,1,3.751,83
"662",556139,"211002",1,1,"same",6,1,7.917,2
"663",556139,"211003",1,1,"same",6,1,2.812,20
"664",556139,"211004",1,1,"same",3,1,1.871,54
"665",556139,"211005",1,1,"same",6,1,2.316,72
"666",556139,"211006",1,1,"same",3,1,3.917,74
"667",556139,"211007",1,1,"same",3,1,2.059,65
"668",556139,"211008",1,1,"same",3,1,6.657,34
"669",556139,"211009",1,1,"same",6,1,3.198,22
"670",556139,"211010",1,1,"same",6,1,2.413,113
"671",556139,"211011",1,1,"same",3,1,2.204,46
"672",556139,"211012",1,1,"same",6,1,3.747,23
"673",556139,"211013",1,1,"same",1,1,6.393,11
"674",556139,"211014",1,1,"same",6,1,2.84,31
"675",556139,"211015",1,1,"same",6,1,2.291,104
"676",556139,"211016",1,1,"same",6,1,2.243,44
"677",556139,"211017",1,1,"same",6,1,2.312,112
"678",556139,"211018",1,1,"same",6,1,3.36,32
"679",556139,"211019",1,1,"same",6,1,4.54,81
"680",556139,"211020",1,1,"same",1,1,5.234,6
"681",556139,"211021",1,1,"same",6,1,2.181,76
"682",556139,"211022",1,1,"same",6,1,7.321,42
"683",556139,"211023",1,1,"same",3,1,2.371,75
"684",556139,"211024",1,1,"same",6,1,3.497,80
"685",556139,"211025",1,1,"same",3,1,1.5,87
"686",556139,"211026",1,1,"same",3,1,3.083,103
"687",556139,"211027",1,1,"same",6,1,2.836,5
"688",556139,"211028",1,1,"same",6,1,2.632,97
"689",556139,"211029",1,1,"same",6,1,4.702,9
"690",556139,"211030",1,1,"same",6,1,3.717,62
"691",556139,"421031",1,1,"same",6,1,3.222,26
"692",556139,"421032",1,1,"same",6,1,2.099,61
"693",556139,"421033",1,1,"same",6,1,2.555,60
"694",556139,"421034",1,1,"same",6,1,3.589,99
"695",556139,"421035",1,1,"same",6,1,2.711,69
"696",556139,"421036",1,1,"same",3,1,3.773,120
"697",556139,"421037",1,1,"same",6,1,2.361,43
"698",556139,"421038",1,1,"same",6,1,4.403,70
"699",556139,"421039",1,1,"same",6,1,2.493,73
"700",556139,"421040",1,1,"same",3,1,3.658,90
"701",556139,"421041",1,1,"same",3,1,1.846,55
"702",556139,"421042",1,1,"same",3,1,2.587,52
"703",556139,"421043",1,1,"same",3,1,3.797,36
"704",556139,"421044",1,1,"same",6,1,2.372,98
"705",556139,"421045",1,1,"same",6,1,2.023,106
"706",556139,"421046",1,1,"same",1,1,3.321,41
"707",556139,"421047",1,1,"same",NA,1,NA,38
"708",556139,"421048",1,1,"same",6,1,2.395,116
"709",556139,"421049",1,1,"same",2,1,3.117,78
"710",556139,"421050",1,1,"same",6,1,4.597,82
"711",556139,"421051",1,1,"same",1,1,5.159,58
"712",556139,"421052",1,1,"same",6,1,4.453,12
"713",556139,"421053",1,1,"same",6,1,4.099,24
"714",556139,"421054",1,1,"same",6,1,2.497,92
"715",556139,"421055",1,1,"same",6,1,2.614,68
"716",556139,"421056",1,1,"same",3,1,2.604,64
"717",556139,"421057",1,1,"same",6,1,3.516,19
"718",556139,"421058",1,1,"same",6,1,2.127,88
"719",556139,"421059",1,1,"same",6,1,4.416,15
"720",556139,"421060",1,1,"same",NA,1,NA,1
"721",556141,"221031",1,1,"same",6,1,3.691,92
"722",556141,"221032",1,1,"same",6,1,2.684,117
"723",556141,"221033",1,1,"same",5,1,3.535,31
"724",556141,"221034",1,1,"same",6,1,4.589,24
"725",556141,"221035",1,1,"same",6,1,3.221,26
"726",556141,"221036",1,1,"same",6,1,4.24,25
"727",556141,"221037",1,1,"same",6,1,4.583,16
"728",556141,"221038",1,1,"same",6,1,4.101,27
"729",556141,"221039",1,1,"same",6,1,3.178,47
"730",556141,"221040",1,1,"same",6,1,3.633,13
"731",556141,"221041",1,1,"same",6,1,3.656,76
"732",556141,"221042",1,1,"same",6,1,3.905,102
"733",556141,"221043",1,1,"same",1,1,4.782,88
"734",556141,"221044",1,1,"same",6,1,4.953,104
"735",556141,"221045",1,1,"same",6,1,2.825,103
"736",556141,"221046",1,1,"same",6,1,3.439,96
"737",556141,"221047",1,1,"same",6,1,3.057,109
"738",556141,"221048",1,1,"same",6,1,4.785,61
"739",556141,"221049",1,1,"same",6,1,3.083,74
"740",556141,"221050",1,1,"same",6,1,7.891,48
"741",556141,"221051",1,1,"same",6,1,3.832,33
"742",556141,"221052",1,1,"same",6,1,3.291,105
"743",556141,"221053",1,1,"same",6,1,3.939,38
"744",556141,"221054",1,1,"same",3,1,4.241,110
"745",556141,"221055",1,1,"same",6,1,3.358,115
"746",556141,"221056",1,1,"same",6,1,3.443,56
"747",556141,"221057",1,1,"same",6,1,7.793,45
"748",556141,"221058",1,1,"same",6,1,2.867,43
"749",556141,"221059",1,1,"same",6,1,7.97,6
"750",556141,"221060",1,1,"same",6,1,3.316,72
"751",556141,"411001",1,1,"same",6,1,2.836,95
"752",556141,"411002",1,1,"same",6,1,3.526,90
"753",556141,"411003",1,1,"same",6,1,4.241,19
"754",556141,"411004",1,1,"same",5,1,4.459,35
"755",556141,"411005",1,1,"same",2,1,4.399,12
"756",556141,"411006",1,1,"same",6,1,4.203,83
"757",556141,"411007",1,1,"same",6,1,8.883,17
"758",556141,"411008",1,1,"same",6,1,2.968,106
"759",556141,"411009",1,1,"same",6,1,3.153,93
"760",556141,"411010",1,1,"same",6,1,2.966,63
"761",556141,"411011",1,1,"same",6,1,3.958,15
"762",556141,"411012",1,1,"same",6,1,5.643,99
"763",556141,"411013",1,1,"same",6,1,3.189,73
"764",556141,"411014",1,1,"same",6,1,3.789,34
"765",556141,"411015",1,1,"same",6,1,3.808,18
"766",556141,"411016",1,1,"same",6,1,4.475,7
"767",556141,"411017",1,1,"same",6,1,5.285,97
"768",556141,"411018",1,1,"same",6,1,9.348,20
"769",556141,"411019",1,1,"same",6,1,3.524,71
"770",556141,"411020",1,1,"same",2,1,3.625,55
"771",556141,"411021",1,1,"same",6,1,3.136,69
"772",556141,"411022",1,1,"same",6,1,3.361,60
"773",556141,"411023",1,1,"same",6,1,3.418,46
"774",556141,"411024",1,1,"same",6,1,3.389,80
"775",556141,"411025",1,1,"same",1,1,5.39,32
"776",556141,"411026",1,1,"same",6,1,3.825,22
"777",556141,"411027",1,1,"same",6,1,3.6,82
"778",556141,"411028",1,1,"same",6,1,4.791,3
"779",556141,"411029",1,1,"same",3,1,3.753,62
"780",556141,"411030",1,1,"same",6,1,3.47,57
"781",556220,"221031",1,1,"different",4,1,4.171,93
"782",556220,"221032",1,1,"different",1,1,4.435,70
"783",556220,"221033",1,1,"different",6,1,3.191,52
"784",556220,"221034",1,1,"different",6,1,2.913,68
"785",556220,"221035",1,1,"different",4,1,4.162,65
"786",556220,"221036",1,1,"different",5,1,5.159,38
"787",556220,"221037",1,1,"different",6,1,3.855,80
"788",556220,"221038",1,1,"different",6,1,4.417,86
"789",556220,"221039",1,1,"different",5,1,4.466,92
"790",556220,"221040",1,1,"different",5,1,4.082,18
"791",556220,"221041",1,1,"different",4,1,5.261,108
"792",556220,"221042",1,1,"different",1,1,4.301,12
"793",556220,"221043",1,1,"different",5,1,5.379,73
"794",556220,"221044",1,1,"different",6,1,3.619,55
"795",556220,"221045",1,1,"different",6,1,4.803,26
"796",556220,"221046",1,1,"different",2,1,4.868,30
"797",556220,"221047",1,1,"different",6,1,4.56,118
"798",556220,"221048",1,1,"different",4,1,6.242,62
"799",556220,"221049",1,1,"different",6,1,3.433,94
"800",556220,"221050",1,1,"different",6,1,5.252,76
"801",556220,"221051",1,1,"different",6,1,3.663,16
"802",556220,"221052",1,1,"different",6,1,3.551,35
"803",556220,"221053",1,1,"different",6,1,4.365,5
"804",556220,"221054",1,1,"different",6,1,3.789,77
"805",556220,"221055",1,1,"different",6,1,4.386,4
"806",556220,"221056",1,1,"different",6,1,4.205,42
"807",556220,"221057",1,1,"different",6,1,5.801,91
"808",556220,"221058",1,1,"different",6,1,2.916,109
"809",556220,"221059",1,1,"different",6,1,4.594,116
"810",556220,"221060",1,1,"different",5,1,5.852,56
"811",556220,"411001",1,1,"different",6,1,3.566,75
"812",556220,"411002",1,1,"different",6,1,4.223,99
"813",556220,"411003",1,1,"different",5,1,5.956,20
"814",556220,"411004",1,1,"different",5,1,3.759,104
"815",556220,"411005",1,1,"different",6,1,3.094,120
"816",556220,"411006",1,1,"different",6,1,3.604,46
"817",556220,"411007",1,1,"different",4,1,5.645,119
"818",556220,"411008",1,1,"different",5,1,5.039,102
"819",556220,"411009",1,1,"different",6,1,4.966,67
"820",556220,"411010",1,1,"different",6,1,3.198,19
"821",556220,"411011",1,1,"different",6,1,4.901,78
"822",556220,"411012",1,1,"different",6,1,4.121,88
"823",556220,"411013",1,1,"different",5,1,5.751,41
"824",556220,"411014",1,1,"different",6,1,3.663,114
"825",556220,"411015",1,1,"different",5,1,4.483,44
"826",556220,"411016",1,1,"different",6,1,9.29,1
"827",556220,"411017",1,1,"different",6,1,6.035,71
"828",556220,"411018",1,1,"different",6,1,3.869,105
"829",556220,"411019",1,1,"different",5,1,4.396,34
"830",556220,"411020",1,1,"different",6,1,5.314,49
"831",556220,"411021",1,1,"different",6,1,4.106,84
"832",556220,"411022",1,1,"different",6,1,3.131,106
"833",556220,"411023",1,1,"different",5,1,4.813,117
"834",556220,"411024",1,1,"different",2,1,3.848,22
"835",556220,"411025",1,1,"different",4,1,4.396,87
"836",556220,"411026",1,1,"different",1,1,4.501,13
"837",556220,"411027",1,1,"different",6,1,3.337,113
"838",556220,"411028",1,1,"different",6,1,4.084,43
"839",556220,"411029",1,1,"different",1,1,3.996,8
"840",556220,"411030",1,1,"different",6,1,4.621,90
"841",556242,"321091",1,1,"different",6,1,6.254,28
"842",556242,"321092",1,1,"different",4,1,5.532,111
"843",556242,"321093",1,1,"different",4,1,2.06,107
"844",556242,"321094",1,1,"different",5,1,3.125,64
"845",556242,"321095",1,1,"different",5,1,4.329,59
"846",556242,"321096",1,1,"different",5,1,8.983,34
"847",556242,"321097",1,1,"different",5,1,2.856,3
"848",556242,"321098",1,1,"different",6,1,2.774,56
"849",556242,"321099",1,1,"different",3,1,3.126,51
"850",556242,"321100",1,1,"different",4,1,7.626,92
"851",556242,"321101",1,1,"different",5,1,3.052,18
"852",556242,"321102",1,1,"different",6,1,3.417,90
"853",556242,"321103",1,1,"different",3,1,2.789,89
"854",556242,"321104",1,1,"different",2,1,4.604,47
"855",556242,"321105",1,1,"different",6,1,4.928,73
"856",556242,"321106",1,1,"different",4,1,2.109,100
"857",556242,"321107",1,1,"different",6,1,2.312,54
"858",556242,"321108",1,1,"different",6,1,7.04,12
"859",556242,"321109",1,1,"different",4,1,2.116,113
"860",556242,"321110",1,1,"different",2,1,2.981,83
"861",556242,"321111",1,1,"different",3,1,6.31,94
"862",556242,"321112",1,1,"different",6,1,2.654,43
"863",556242,"321113",1,1,"different",4,1,2.853,72
"864",556242,"321114",1,1,"different",6,1,2.873,55
"865",556242,"321115",1,1,"different",6,1,2.721,29
"866",556242,"321116",1,1,"different",5,1,3.782,119
"867",556242,"321117",1,1,"different",6,1,3.538,71
"868",556242,"321118",1,1,"different",6,1,2.639,52
"869",556242,"321119",1,1,"different",6,1,3.063,58
"870",556242,"321120",1,1,"different",2,1,5.202,9
"871",556242,"511061",1,1,"different",6,1,2.864,66
"872",556242,"511062",1,1,"different",6,1,3.101,117
"873",556242,"511063",1,1,"different",6,1,4.99,48
"874",556242,"511064",1,1,"different",4,1,5.328,70
"875",556242,"511065",1,1,"different",2,1,2.355,108
"876",556242,"511066",1,1,"different",6,1,2.911,23
"877",556242,"511067",1,1,"different",4,1,1.836,105
"878",556242,"511068",1,1,"different",6,1,2.787,21
"879",556242,"511069",1,1,"different",6,1,2.902,82
"880",556242,"511070",1,1,"different",6,1,2.42,27
"881",556242,"511071",1,1,"different",6,1,2.777,37
"882",556242,"511072",1,1,"different",2,1,6.807,114
"883",556242,"511073",1,1,"different",4,1,2.171,76
"884",556242,"511074",1,1,"different",6,1,2.058,75
"885",556242,"511075",1,1,"different",6,1,2.576,39
"886",556242,"511076",1,1,"different",4,1,4.49,102
"887",556242,"511077",1,1,"different",2,1,5.065,98
"888",556242,"511078",1,1,"different",6,1,3.95,8
"889",556242,"511079",1,1,"different",6,1,2.861,104
"890",556242,"511080",1,1,"different",6,1,3.277,49
"891",556242,"511081",1,1,"different",6,1,5.763,84
"892",556242,"511082",1,1,"different",2,1,1.026,115
"893",556242,"511083",1,1,"different",6,1,2.573,62
"894",556242,"511084",1,1,"different",3,1,5.225,85
"895",556242,"511085",1,1,"different",4,1,4.682,50
"896",556242,"511086",1,1,"different",2,1,2.555,120
"897",556242,"511087",1,1,"different",5,1,2.66,99
"898",556242,"511088",1,1,"different",6,1,5.079,60
"899",556242,"511089",1,1,"different",3,1,2.927,67
"900",556242,"511090",1,1,"different",3,1,2.512,77
"901",556332,"311061",1,1,"same",2,1,5.886,87
"902",556332,"311062",1,1,"same",4,1,5.132,98
"903",556332,"311063",1,1,"same",4,1,4.492,89
"904",556332,"311064",1,1,"same",5,1,3.357,65
"905",556332,"311065",1,1,"same",3,1,4.817,25
"906",556332,"311066",1,1,"same",4,1,3.981,19
"907",556332,"311067",1,1,"same",3,1,3.937,59
"908",556332,"311068",1,1,"same",4,1,2.357,84
"909",556332,"311069",1,1,"same",6,1,3.787,28
"910",556332,"311070",1,1,"same",5,1,2.733,44
"911",556332,"311071",1,1,"same",4,1,4.344,37
"912",556332,"311072",1,1,"same",4,1,9.296,57
"913",556332,"311073",1,1,"same",4,1,6.328,67
"914",556332,"311074",1,1,"same",4,1,3.445,58
"915",556332,"311075",1,1,"same",4,1,3.616,71
"916",556332,"311076",1,1,"same",3,1,5.528,21
"917",556332,"311077",1,1,"same",5,1,2.537,14
"918",556332,"311078",1,1,"same",3,1,3.542,109
"919",556332,"311079",1,1,"same",4,1,4.121,31
"920",556332,"311080",1,1,"same",4,1,2.452,90
"921",556332,"311081",1,1,"same",5,1,2.721,56
"922",556332,"311082",1,1,"same",6,1,7.766,7
"923",556332,"311083",1,1,"same",4,1,6.133,81
"924",556332,"311084",1,1,"same",5,1,3.816,119
"925",556332,"311085",1,1,"same",6,1,4.224,48
"926",556332,"311086",1,1,"same",1,1,4.935,113
"927",556332,"311087",1,1,"same",4,1,4.222,36
"928",556332,"311088",1,1,"same",2,1,5.761,64
"929",556332,"311089",1,1,"same",4,1,5.529,61
"930",556332,"311090",1,1,"same",4,1,7.114,8
"931",556332,"521091",1,1,"same",5,1,2.918,13
"932",556332,"521092",1,1,"same",5,1,4.544,11
"933",556332,"521093",1,1,"same",4,1,4.575,30
"934",556332,"521094",1,1,"same",4,1,3.148,100
"935",556332,"521095",1,1,"same",1,1,2.889,106
"936",556332,"521096",1,1,"same",1,1,5.273,96
"937",556332,"521097",1,1,"same",1,1,2.958,112
"938",556332,"521098",1,1,"same",6,1,4.605,45
"939",556332,"521099",1,1,"same",5,1,5.609,82
"940",556332,"521100",1,1,"same",4,1,5.184,18
"941",556332,"521101",1,1,"same",4,1,7.257,40
"942",556332,"521102",1,1,"same",5,1,4.006,54
"943",556332,"521103",1,1,"same",2,1,6.519,23
"944",556332,"521104",1,1,"same",6,1,4.583,107
"945",556332,"521105",1,1,"same",5,1,2.43,17
"946",556332,"521106",1,1,"same",5,1,3.382,69
"947",556332,"521107",1,1,"same",5,1,5.993,20
"948",556332,"521108",1,1,"same",5,1,3.922,29
"949",556332,"521109",1,1,"same",4,1,6.982,80
"950",556332,"521110",1,1,"same",1,1,8.314,101
"951",556332,"521111",1,1,"same",1,1,4.563,103
"952",556332,"521112",1,1,"same",4,1,4.047,60
"953",556332,"521113",1,1,"same",5,1,4.275,32
"954",556332,"521114",1,1,"same",3,1,5.5,77
"955",556332,"521115",1,1,"same",3,1,6.23,47
"956",556332,"521116",1,1,"same",3,1,3.909,74
"957",556332,"521117",1,1,"same",4,1,5.781,73
"958",556332,"521118",1,1,"same",4,1,4.31,72
"959",556332,"521119",1,1,"same",2,1,5.327,24
"960",556332,"521120",1,1,"same",3,1,5.441,99
"961",556579,"211001",1,1,"different",6,1,2.879,101
"962",556579,"211002",1,1,"different",2,1,3.173,56
"963",556579,"211003",1,1,"different",3,1,3.814,59
"964",556579,"211004",1,1,"different",3,1,2.543,107
"965",556579,"211005",1,1,"different",1,1,2.957,86
"966",556579,"211006",1,1,"different",2,1,4.35,66
"967",556579,"211007",1,1,"different",2,1,3.479,89
"968",556579,"211008",1,1,"different",3,1,4.179,39
"969",556579,"211009",1,1,"different",1,1,3.884,3
"970",556579,"211010",1,1,"different",2,1,5.684,68
"971",556579,"211011",1,1,"different",5,1,3.563,48
"972",556579,"211012",1,1,"different",1,1,3.556,115
"973",556579,"211013",1,1,"different",3,1,5.168,26
"974",556579,"211014",1,1,"different",3,1,3.781,65
"975",556579,"211015",1,1,"different",3,1,6.275,24
"976",556579,"211016",1,1,"different",3,1,3.723,5
"977",556579,"211017",1,1,"different",2,1,5.163,67
"978",556579,"211018",1,1,"different",2,1,5.328,97
"979",556579,"211019",1,1,"different",3,1,3.694,80
"980",556579,"211020",1,1,"different",4,1,5.294,15
"981",556579,"211021",1,1,"different",5,1,6.494,2
"982",556579,"211022",1,1,"different",6,1,2.681,18
"983",556579,"211023",1,1,"different",3,1,5.254,73
"984",556579,"211024",1,1,"different",2,1,3.003,12
"985",556579,"211025",1,1,"different",3,1,3.283,118
"986",556579,"211026",1,1,"different",4,1,3.113,99
"987",556579,"211027",1,1,"different",4,1,6.625,74
"988",556579,"211028",1,1,"different",5,1,4.496,11
"989",556579,"211029",1,1,"different",1,1,3.825,7
"990",556579,"211030",1,1,"different",6,1,5.748,114
"991",556579,"421031",1,1,"different",6,1,2.549,63
"992",556579,"421032",1,1,"different",6,1,2.632,110
"993",556579,"421033",1,1,"different",3,1,2.673,20
"994",556579,"421034",1,1,"different",2,1,3.169,100
"995",556579,"421035",1,1,"different",4,1,2.025,77
"996",556579,"421036",1,1,"different",3,1,5.613,57
"997",556579,"421037",1,1,"different",2,1,5.43,23
"998",556579,"421038",1,1,"different",2,1,3.445,49
"999",556579,"421039",1,1,"different",1,1,2.812,43
"1000",556579,"421040",1,1,"different",2,1,5.497,14
"1001",556579,"421041",1,1,"different",3,1,2.965,47
"1002",556579,"421042",1,1,"different",4,1,3.214,91
"1003",556579,"421043",1,1,"different",6,1,5.618,31
"1004",556579,"421044",1,1,"different",2,1,2.071,83
"1005",556579,"421045",1,1,"different",3,1,2.906,88
"1006",556579,"421046",1,1,"different",3,1,4.617,61
"1007",556579,"421047",1,1,"different",5,1,3.335,95
"1008",556579,"421048",1,1,"different",4,1,3.138,36
"1009",556579,"421049",1,1,"different",2,1,2.345,29
"1010",556579,"421050",1,1,"different",1,1,3.784,9
"1011",556579,"421051",1,1,"different",3,1,4.074,42
"1012",556579,"421052",1,1,"different",1,1,3.381,105
"1013",556579,"421053",1,1,"different",1,1,3.236,98
"1014",556579,"421054",1,1,"different",1,1,4.096,45
"1015",556579,"421055",1,1,"different",6,1,3.338,75
"1016",556579,"421056",1,1,"different",2,1,4.179,82
"1017",556579,"421057",1,1,"different",6,1,5.392,28
"1018",556579,"421058",1,1,"different",1,1,3.766,41
"1019",556579,"421059",1,1,"different",2,1,3.631,120
"1020",556579,"421060",1,1,"different",3,1,4.692,46
"1021",556633,"221031",1,1,"same",4,1,3.574,82
"1022",556633,"221032",1,1,"same",6,1,2.628,113
"1023",556633,"221033",1,1,"same",6,1,3.387,27
"1024",556633,"221034",1,1,"same",6,1,3.153,41
"1025",556633,"221035",1,1,"same",6,1,3.175,47
"1026",556633,"221036",1,1,"same",6,1,3.358,71
"1027",556633,"221037",1,1,"same",6,1,3.294,28
"1028",556633,"221038",1,1,"same",6,1,5.265,3
"1029",556633,"221039",1,1,"same",6,1,3.99,25
"1030",556633,"221040",1,1,"same",6,1,4.241,21
"1031",556633,"221041",1,1,"same",6,1,3.934,40
"1032",556633,"221042",1,1,"same",6,1,3.701,75
"1033",556633,"221043",1,1,"same",2,1,5.52,49
"1034",556633,"221044",1,1,"same",6,1,2.789,55
"1035",556633,"221045",1,1,"same",6,1,3.622,16
"1036",556633,"221046",1,1,"same",6,1,3.137,66
"1037",556633,"221047",1,1,"same",6,1,3.727,7
"1038",556633,"221048",1,1,"same",6,1,4.244,44
"1039",556633,"221049",1,1,"same",6,1,2.754,104
"1040",556633,"221050",1,1,"same",6,1,3.479,22
"1041",556633,"221051",1,1,"same",6,1,3.337,105
"1042",556633,"221052",1,1,"same",6,1,5.289,50
"1043",556633,"221053",1,1,"same",6,1,3.594,8
"1044",556633,"221054",1,1,"same",6,1,3.928,36
"1045",556633,"221055",1,1,"same",6,1,3.374,53
"1046",556633,"221056",1,1,"same",6,1,3.776,103
"1047",556633,"221057",1,1,"same",6,1,5.051,58
"1048",556633,"221058",1,1,"same",6,1,3.475,14
"1049",556633,"221059",1,1,"same",6,1,3.268,117
"1050",556633,"221060",1,1,"same",6,1,3.027,86
"1051",556633,"411001",1,1,"same",6,1,3.369,4
"1052",556633,"411002",1,1,"same",6,1,3.085,76
"1053",556633,"411003",1,1,"same",6,1,2.813,72
"1054",556633,"411004",1,1,"same",6,1,3.334,92
"1055",556633,"411005",1,1,"same",6,1,3.26,120
"1056",556633,"411006",1,1,"same",6,1,6.255,5
"1057",556633,"411007",1,1,"same",6,1,3.956,57
"1058",556633,"411008",1,1,"same",6,1,3.867,68
"1059",556633,"411009",1,1,"same",6,1,2.806,62
"1060",556633,"411010",1,1,"same",6,1,3.28,114
"1061",556633,"411011",1,1,"same",6,1,2.976,98
"1062",556633,"411012",1,1,"same",6,1,4.795,61
"1063",556633,"411013",1,1,"same",6,1,5.108,70
"1064",556633,"411014",1,1,"same",6,1,3.592,91
"1065",556633,"411015",1,1,"same",6,1,3.126,87
"1066",556633,"411016",1,1,"same",6,1,5.011,26
"1067",556633,"411017",1,1,"same",6,1,2.304,77
"1068",556633,"411018",1,1,"same",6,1,3.116,94
"1069",556633,"411019",1,1,"same",5,1,3.61,119
"1070",556633,"411020",1,1,"same",6,1,3.794,64
"1071",556633,"411021",1,1,"same",6,1,3.577,90
"1072",556633,"411022",1,1,"same",6,1,2.615,81
"1073",556633,"411023",1,1,"same",6,1,4.234,56
"1074",556633,"411024",1,1,"same",6,1,3.624,88
"1075",556633,"411025",1,1,"same",6,1,3.706,9
"1076",556633,"411026",1,1,"same",6,1,3.844,106
"1077",556633,"411027",1,1,"same",6,1,3.982,15
"1078",556633,"411028",1,1,"same",6,1,2.408,101
"1079",556633,"411029",1,1,"same",2,1,4.547,13
"1080",556633,"411030",1,1,"same",NA,1,NA,2
"1081",556780,"321091",1,1,"different",2,1,7.165,45
"1082",556780,"321092",1,1,"different",2,1,6.488,4
"1083",556780,"321093",1,1,"different",3,1,2.966,62
"1084",556780,"321094",1,1,"different",6,1,4.173,94
"1085",556780,"321095",1,1,"different",6,1,2.774,90
"1086",556780,"321096",1,1,"different",6,1,5.565,109
"1087",556780,"321097",1,1,"different",4,1,6.15,37
"1088",556780,"321098",1,1,"different",6,1,4.671,115
"1089",556780,"321099",1,1,"different",6,1,3.612,12
"1090",556780,"321100",1,1,"different",6,1,3.499,89
"1091",556780,"321101",1,1,"different",6,1,4.089,41
"1092",556780,"321102",1,1,"different",6,1,3.618,64
"1093",556780,"321103",1,1,"different",3,1,3.64,50
"1094",556780,"321104",1,1,"different",6,1,2.704,13
"1095",556780,"321105",1,1,"different",3,1,5.129,49
"1096",556780,"321106",1,1,"different",6,1,2.691,95
"1097",556780,"321107",1,1,"different",6,1,4.415,31
"1098",556780,"321108",1,1,"different",3,1,3.533,51
"1099",556780,"321109",1,1,"different",5,1,3.849,72
"1100",556780,"321110",1,1,"different",3,1,4.196,19
"1101",556780,"321111",1,1,"different",4,1,6.473,18
"1102",556780,"321112",1,1,"different",6,1,3.704,87
"1103",556780,"321113",1,1,"different",2,1,2.41,106
"1104",556780,"321114",1,1,"different",6,1,4.079,65
"1105",556780,"321115",1,1,"different",6,1,3.64,10
"1106",556780,"321116",1,1,"different",6,1,4.093,47
"1107",556780,"321117",1,1,"different",5,1,5.919,71
"1108",556780,"321118",1,1,"different",6,1,3.726,42
"1109",556780,"321119",1,1,"different",1,1,5.793,70
"1110",556780,"321120",1,1,"different",6,1,3.394,75
"1111",556780,"511061",1,1,"different",6,1,3.51,38
"1112",556780,"511062",1,1,"different",4,1,5.902,119
"1113",556780,"511063",1,1,"different",3,1,4.491,77
"1114",556780,"511064",1,1,"different",5,1,6.05,83
"1115",556780,"511065",1,1,"different",6,1,4.374,25
"1116",556780,"511066",1,1,"different",6,1,4.157,33
"1117",556780,"511067",1,1,"different",6,1,3.774,101
"1118",556780,"511068",1,1,"different",6,1,4.539,8
"1119",556780,"511069",1,1,"different",6,1,3.097,86
"1120",556780,"511070",1,1,"different",3,1,4.018,78
"1121",556780,"511071",1,1,"different",4,1,4.217,27
"1122",556780,"511072",1,1,"different",2,1,3.337,118
"1123",556780,"511073",1,1,"different",3,1,3.961,59
"1124",556780,"511074",1,1,"different",5,1,4.685,68
"1125",556780,"511075",1,1,"different",6,1,3.26,40
"1126",556780,"511076",1,1,"different",3,1,3.668,54
"1127",556780,"511077",1,1,"different",3,1,3.976,110
"1128",556780,"511078",1,1,"different",2,1,5.656,120
"1129",556780,"511079",1,1,"different",6,1,3,5
"1130",556780,"511080",1,1,"different",1,1,5.216,107
"1131",556780,"511081",1,1,"different",4,1,6.013,21
"1132",556780,"511082",1,1,"different",6,1,3.974,88
"1133",556780,"511083",1,1,"different",6,1,4.438,15
"1134",556780,"511084",1,1,"different",1,1,3.886,6
"1135",556780,"511085",1,1,"different",5,1,5.282,2
"1136",556780,"511086",1,1,"different",2,1,2.129,82
"1137",556780,"511087",1,1,"different",6,1,3.15,14
"1138",556780,"511088",1,1,"different",6,1,5.226,16
"1139",556780,"511089",1,1,"different",6,1,2.526,96
"1140",556780,"511090",1,1,"different",1,1,3.223,117
"1141",557001,"321091",1,1,"same",2,1,2.299,85
"1142",557001,"321092",1,1,"same",1,1,2.693,48
"1143",557001,"321093",1,1,"same",6,1,0.922,63
"1144",557001,"321094",1,1,"same",6,1,4.486,52
"1145",557001,"321095",1,1,"same",4,1,4.066,106
"1146",557001,"321096",1,1,"same",3,1,NA,10
"1147",557001,"321097",1,1,"same",2,1,4.699,45
"1148",557001,"321098",1,1,"same",3,1,4.559,120
"1149",557001,"321099",1,1,"same",4,1,2.945,96
"1150",557001,"321100",1,1,"same",5,1,5.443,16
"1151",557001,"321101",1,1,"same",4,1,2.386,44
"1152",557001,"321102",1,1,"same",5,1,2.87,83
"1153",557001,"321103",1,1,"same",4,1,3.144,15
"1154",557001,"321104",1,1,"same",6,1,2.44,56
"1155",557001,"321105",1,1,"same",3,1,3.276,101
"1156",557001,"321106",1,1,"same",4,1,1.499,103
"1157",557001,"321107",1,1,"same",2,1,5.402,18
"1158",557001,"321108",1,1,"same",4,1,2.048,81
"1159",557001,"321109",1,1,"same",5,1,2.037,34
"1160",557001,"321110",1,1,"same",1,1,3.151,97
"1161",557001,"321111",1,1,"same",4,1,3.256,82
"1162",557001,"321112",1,1,"same",4,1,5.908,37
"1163",557001,"321113",1,1,"same",3,1,1.471,102
"1164",557001,"321114",1,1,"same",6,1,1.577,67
"1165",557001,"321115",1,1,"same",6,1,4.532,33
"1166",557001,"321116",1,1,"same",5,1,5.923,4
"1167",557001,"321117",1,1,"same",5,1,1.393,70
"1168",557001,"321118",1,1,"same",5,1,2.654,75
"1169",557001,"321119",1,1,"same",3,1,3.246,116
"1170",557001,"321120",1,1,"same",3,1,1.84,111
"1171",557001,"511061",1,1,"same",3,1,3.496,118
"1172",557001,"511062",1,1,"same",4,1,5.826,13
"1173",557001,"511063",1,1,"same",4,1,4.505,91
"1174",557001,"511064",1,1,"same",5,1,4.479,36
"1175",557001,"511065",1,1,"same",1,1,2.651,49
"1176",557001,"511066",1,1,"same",1,1,2.628,78
"1177",557001,"511067",1,1,"same",5,1,2.866,41
"1178",557001,"511068",1,1,"same",2,1,3.087,77
"1179",557001,"511069",1,1,"same",6,1,3.633,27
"1180",557001,"511070",1,1,"same",4,1,1.095,62
"1181",557001,"511071",1,1,"same",5,1,3.255,57
"1182",557001,"511072",1,1,"same",2,1,2.634,76
"1183",557001,"511073",1,1,"same",3,1,3.634,3
"1184",557001,"511074",1,1,"same",3,1,2.976,46
"1185",557001,"511075",1,1,"same",5,1,3.682,14
"1186",557001,"511076",1,1,"same",5,1,1.25,117
"1187",557001,"511077",1,1,"same",5,1,1.603,72
"1188",557001,"511078",1,1,"same",5,1,1.999,92
"1189",557001,"511079",1,1,"same",2,1,2.793,2
"1190",557001,"511080",1,1,"same",3,1,2.307,115
"1191",557001,"511081",1,1,"same",2,1,2.301,79
"1192",557001,"511082",1,1,"same",3,1,5.655,31
"1193",557001,"511083",1,1,"same",3,1,6.057,35
"1194",557001,"511084",1,1,"same",5,1,2.333,19
"1195",557001,"511085",1,1,"same",1,1,3.551,73
"1196",557001,"511086",1,1,"same",3,1,2.348,109
"1197",557001,"511087",1,1,"same",2,1,3.484,47
"1198",557001,"511088",1,1,"same",6,1,1.898,89
"1199",557001,"511089",1,1,"same",5,1,2.739,12
"1200",557001,"511090",1,1,"same",NA,1,NA,7
"1201",557017,"311061",1,1,"different",6,1,2.86,107
"1202",557017,"311062",1,1,"different",2,1,4.395,20
"1203",557017,"311063",1,1,"different",5,1,6.899,3
"1204",557017,"311064",1,1,"different",6,1,4.619,82
"1205",557017,"311065",1,1,"different",6,1,2.932,94
"1206",557017,"311066",1,1,"different",5,1,3.887,86
"1207",557017,"311067",1,1,"different",6,1,3.627,103
"1208",557017,"311068",1,1,"different",6,1,2.611,45
"1209",557017,"311069",1,1,"different",6,1,3.384,30
"1210",557017,"311070",1,1,"different",6,1,3.467,85
"1211",557017,"311071",1,1,"different",4,1,3.961,72
"1212",557017,"311072",1,1,"different",6,1,6.314,84
"1213",557017,"311073",1,1,"different",6,1,3.107,98
"1214",557017,"311074",1,1,"different",6,1,2.819,93
"1215",557017,"311075",1,1,"different",5,1,3.676,43
"1216",557017,"311076",1,1,"different",6,1,3.204,80
"1217",557017,"311077",1,1,"different",6,1,2.753,92
"1218",557017,"311078",1,1,"different",1,1,4.625,56
"1219",557017,"311079",1,1,"different",6,1,3.715,19
"1220",557017,"311080",1,1,"different",6,1,6.34,4
"1221",557017,"311081",1,1,"different",6,1,5.146,22
"1222",557017,"311082",1,1,"different",6,1,3.317,76
"1223",557017,"311083",1,1,"different",6,1,3.923,77
"1224",557017,"311084",1,1,"different",5,1,3.609,49
"1225",557017,"311085",1,1,"different",6,1,3.26,35
"1226",557017,"311086",1,1,"different",6,1,3.581,100
"1227",557017,"311087",1,1,"different",6,1,3.403,105
"1228",557017,"311088",1,1,"different",6,1,2.553,81
"1229",557017,"311089",1,1,"different",6,1,4.041,34
"1230",557017,"311090",1,1,"different",2,1,5.241,51
"1231",557017,"521091",1,1,"different",6,1,6.488,74
"1232",557017,"521092",1,1,"different",6,1,5.789,57
"1233",557017,"521093",1,1,"different",3,1,3.312,73
"1234",557017,"521094",1,1,"different",6,1,4.746,65
"1235",557017,"521095",1,1,"different",6,1,4.205,41
"1236",557017,"521096",1,1,"different",6,1,5.816,36
"1237",557017,"521097",1,1,"different",6,1,3.618,66
"1238",557017,"521098",1,1,"different",6,1,3.472,46
"1239",557017,"521099",1,1,"different",6,1,3.933,29
"1240",557017,"521100",1,1,"different",5,1,5.21,25
"1241",557017,"521101",1,1,"different",6,1,3.648,104
"1242",557017,"521102",1,1,"different",6,1,3.495,71
"1243",557017,"521103",1,1,"different",6,1,3.105,87
"1244",557017,"521104",1,1,"different",6,1,3.188,6
"1245",557017,"521105",1,1,"different",4,1,8.371,1
"1246",557017,"521106",1,1,"different",6,1,3.358,68
"1247",557017,"521107",1,1,"different",6,1,3.687,21
"1248",557017,"521108",1,1,"different",3,1,2.879,10
"1249",557017,"521109",1,1,"different",3,1,5.04,110
"1250",557017,"521110",1,1,"different",6,1,3.476,37
"1251",557017,"521111",1,1,"different",5,1,4.35,113
"1252",557017,"521112",1,1,"different",6,1,2.906,118
"1253",557017,"521113",1,1,"different",6,1,5.731,5
"1254",557017,"521114",1,1,"different",6,1,2.96,120
"1255",557017,"521115",1,1,"different",6,1,2.973,32
"1256",557017,"521116",1,1,"different",6,1,3.878,55
"1257",557017,"521117",1,1,"different",3,1,5.134,28
"1258",557017,"521118",1,1,"different",6,1,2.333,116
"1259",557017,"521119",1,1,"different",6,1,3.43,89
"1260",557017,"521120",1,1,"different",6,1,4.34,95
"1261",557278,"311061",1,1,"same",1,1,3.909,113
"1262",557278,"311062",1,1,"same",6,1,4.455,7
"1263",557278,"311063",1,1,"same",6,1,3.6,84
"1264",557278,"311064",1,1,"same",2,1,3.989,86
"1265",557278,"311065",1,1,"same",1,1,4.125,116
"1266",557278,"311066",1,1,"same",1,1,3.461,115
"1267",557278,"311067",1,1,"same",6,1,4.688,88
"1268",557278,"311068",1,1,"same",5,1,5.382,44
"1269",557278,"311069",1,1,"same",6,1,3.434,59
"1270",557278,"311070",1,1,"same",2,1,3.368,109
"1271",557278,"311071",1,1,"same",6,1,3.757,16
"1272",557278,"311072",1,1,"same",6,1,4.627,15
"1273",557278,"311073",1,1,"same",6,1,4.942,32
"1274",557278,"311074",1,1,"same",6,1,4.34,27
"1275",557278,"311075",1,1,"same",1,1,7.179,18
"1276",557278,"311076",1,1,"same",6,1,5.677,1
"1277",557278,"311077",1,1,"same",2,1,8.19,53
"1278",557278,"311078",1,1,"same",6,1,3.362,17
"1279",557278,"311079",1,1,"same",6,1,3.868,65
"1280",557278,"311080",1,1,"same",6,1,2.953,67
"1281",557278,"311081",1,1,"same",5,1,3.9,90
"1282",557278,"311082",1,1,"same",6,1,4.07,38
"1283",557278,"311083",1,1,"same",6,1,8.253,13
"1284",557278,"311084",1,1,"same",6,1,3.527,26
"1285",557278,"311085",1,1,"same",5,1,5.012,118
"1286",557278,"311086",1,1,"same",4,1,5.053,14
"1287",557278,"311087",1,1,"same",6,1,3.52,50
"1288",557278,"311088",1,1,"same",1,1,2.827,99
"1289",557278,"311089",1,1,"same",6,1,3.641,29
"1290",557278,"311090",1,1,"same",6,1,5.545,2
"1291",557278,"521091",1,1,"same",6,1,4.304,28
"1292",557278,"521092",1,1,"same",6,1,4.776,30
"1293",557278,"521093",1,1,"same",2,1,3.694,69
"1294",557278,"521094",1,1,"same",5,1,3.186,89
"1295",557278,"521095",1,1,"same",1,1,4.571,76
"1296",557278,"521096",1,1,"same",5,1,3.729,106
"1297",557278,"521097",1,1,"same",1,1,3.361,73
"1298",557278,"521098",1,1,"same",6,1,4.923,25
"1299",557278,"521099",1,1,"same",1,1,6.707,52
"1300",557278,"521100",1,1,"same",1,1,6.659,6
"1301",557278,"521101",1,1,"same",2,1,5.227,95
"1302",557278,"521102",1,1,"same",5,1,4.074,48
"1303",557278,"521103",1,1,"same",2,1,3.511,91
"1304",557278,"521104",1,1,"same",2,1,5.044,42
"1305",557278,"521105",1,1,"same",6,1,3.509,37
"1306",557278,"521106",1,1,"same",5,1,4.948,111
"1307",557278,"521107",1,1,"same",5,1,3.93,58
"1308",557278,"521108",1,1,"same",1,1,5.13,64
"1309",557278,"521109",1,1,"same",5,1,3.719,120
"1310",557278,"521110",1,1,"same",2,1,4.482,94
"1311",557278,"521111",1,1,"same",5,1,5.155,62
"1312",557278,"521112",1,1,"same",1,1,4.447,68
"1313",557278,"521113",1,1,"same",6,1,3.764,35
"1314",557278,"521114",1,1,"same",1,1,5.031,117
"1315",557278,"521115",1,1,"same",1,1,5.328,101
"1316",557278,"521116",1,1,"same",6,1,3.369,23
"1317",557278,"521117",1,1,"same",2,1,4.852,110
"1318",557278,"521118",1,1,"same",6,1,7.009,12
"1319",557278,"521119",1,1,"same",NA,1,NA,63
"1320",557278,"521120",1,1,"same",6,1,4.219,19
"1321",557302,"221031",1,1,"different",2,1,2.79,32
"1322",557302,"221032",1,1,"different",1,1,3.334,10
"1323",557302,"221033",1,1,"different",4,1,2.646,11
"1324",557302,"221034",1,1,"different",6,1,2.295,20
"1325",557302,"221035",1,1,"different",1,1,1.952,87
"1326",557302,"221036",1,1,"different",6,1,3.594,75
"1327",557302,"221037",1,1,"different",1,1,2.376,113
"1328",557302,"221038",1,1,"different",2,1,4.195,42
"1329",557302,"221039",1,1,"different",6,1,2.407,38
"1330",557302,"221040",1,1,"different",4,1,2.67,71
"1331",557302,"221041",1,1,"different",2,1,1.853,95
"1332",557302,"221042",1,1,"different",6,1,4.259,8
"1333",557302,"221043",1,1,"different",2,1,2.665,108
"1334",557302,"221044",1,1,"different",5,1,2.466,88
"1335",557302,"221045",1,1,"different",1,1,2.499,46
"1336",557302,"221046",1,1,"different",4,1,2.591,2
"1337",557302,"221047",1,1,"different",5,1,1.961,80
"1338",557302,"221048",1,1,"different",6,1,3.313,30
"1339",557302,"221049",1,1,"different",1,1,2.313,63
"1340",557302,"221050",1,1,"different",6,1,3.111,117
"1341",557302,"221051",1,1,"different",5,1,2.453,49
"1342",557302,"221052",1,1,"different",6,1,3.032,51
"1343",557302,"221053",1,1,"different",3,1,2.476,115
"1344",557302,"221054",1,1,"different",6,1,2.98,14
"1345",557302,"221055",1,1,"different",1,1,2.775,78
"1346",557302,"221056",1,1,"different",1,1,2.55,3
"1347",557302,"221057",1,1,"different",6,1,2.804,17
"1348",557302,"221058",1,1,"different",6,1,3.272,5
"1349",557302,"221059",1,1,"different",2,1,2.557,39
"1350",557302,"221060",1,1,"different",2,1,5.795,4
"1351",557302,"411001",1,1,"different",2,1,2.901,9
"1352",557302,"411002",1,1,"different",3,1,2.156,68
"1353",557302,"411003",1,1,"different",6,1,2.518,28
"1354",557302,"411004",1,1,"different",1,1,2.195,41
"1355",557302,"411005",1,1,"different",4,1,4.392,97
"1356",557302,"411006",1,1,"different",1,1,4.41,116
"1357",557302,"411007",1,1,"different",6,1,2.94,57
"1358",557302,"411008",1,1,"different",3,1,2.785,31
"1359",557302,"411009",1,1,"different",1,1,4.557,16
"1360",557302,"411010",1,1,"different",4,1,2.34,33
"1361",557302,"411011",1,1,"different",5,1,2.718,106
"1362",557302,"411012",1,1,"different",2,1,2.698,76
"1363",557302,"411013",1,1,"different",2,1,2.686,48
"1364",557302,"411014",1,1,"different",3,1,2.131,58
"1365",557302,"411015",1,1,"different",1,1,2.461,96
"1366",557302,"411016",1,1,"different",2,1,2.534,114
"1367",557302,"411017",1,1,"different",6,1,3.544,36
"1368",557302,"411018",1,1,"different",5,1,2.302,84
"1369",557302,"411019",1,1,"different",4,1,3.166,86
"1370",557302,"411020",1,1,"different",2,1,3.159,19
"1371",557302,"411021",1,1,"different",3,1,2.52,118
"1372",557302,"411022",1,1,"different",6,1,2.372,120
"1373",557302,"411023",1,1,"different",6,1,2.819,26
"1374",557302,"411024",1,1,"different",1,1,2.671,25
"1375",557302,"411025",1,1,"different",5,1,2.172,45
"1376",557302,"411026",1,1,"different",6,1,2.865,15
"1377",557302,"411027",1,1,"different",6,1,2.657,67
"1378",557302,"411028",1,1,"different",1,1,3.934,53
"1379",557302,"411029",1,1,"different",3,1,2.142,44
"1380",557302,"411030",1,1,"different",1,1,3.154,6
"1381",557389,"211001",1,1,"same",4,1,6.2,96
"1382",557389,"211002",1,1,"same",3,1,6.472,42
"1383",557389,"211003",1,1,"same",1,1,7.994,22
"1384",557389,"211004",1,1,"same",2,1,7.932,61
"1385",557389,"211005",1,1,"same",NA,1,6.44,26
"1386",557389,"211006",1,1,"same",5,1,8.726,6
"1387",557389,"211007",1,1,"same",2,1,7.714,73
"1388",557389,"211008",1,1,"same",2,1,5.462,76
"1389",557389,"211009",1,1,"same",3,1,5.581,15
"1390",557389,"211010",1,1,"same",3,1,6.565,21
"1391",557389,"211011",1,1,"same",5,1,7.763,78
"1392",557389,"211012",1,1,"same",5,1,8.898,60
"1393",557389,"211013",1,1,"same",4,1,5.589,93
"1394",557389,"211014",1,1,"same",2,1,4.927,19
"1395",557389,"211015",1,1,"same",NA,1,NA,108
"1396",557389,"211016",1,1,"same",5,1,7.707,106
"1397",557389,"211017",1,1,"same",5,1,6.597,109
"1398",557389,"211018",1,1,"same",3,1,5.505,46
"1399",557389,"211019",1,1,"same",5,1,6.93,75
"1400",557389,"211020",1,1,"same",3,1,7.412,66
"1401",557389,"211021",1,1,"same",4,1,NA,1
"1402",557389,"211022",1,1,"same",4,1,6.357,82
"1403",557389,"211023",1,1,"same",2,1,6.362,52
"1404",557389,"211024",1,1,"same",4,1,8.244,31
"1405",557389,"211025",1,1,"same",3,1,7.26,5
"1406",557389,"211026",1,1,"same",3,1,NA,112
"1407",557389,"211027",1,1,"same",3,1,5.564,47
"1408",557389,"211028",1,1,"same",1,1,6.545,101
"1409",557389,"211029",1,1,"same",4,1,7.332,62
"1410",557389,"211030",1,1,"same",2,1,6.707,105
"1411",557389,"421031",1,1,"same",3,1,6.178,4
"1412",557389,"421032",1,1,"same",1,1,5.412,30
"1413",557389,"421033",1,1,"same",5,1,8.297,92
"1414",557389,"421034",1,1,"same",3,1,8.146,97
"1415",557389,"421035",1,1,"same",3,1,5.829,74
"1416",557389,"421036",1,1,"same",2,1,8.23,104
"1417",557389,"421037",1,1,"same",3,1,7.959,77
"1418",557389,"421038",1,1,"same",4,1,8.821,13
"1419",557389,"421039",1,1,"same",4,1,6.078,70
"1420",557389,"421040",1,1,"same",2,1,NA,57
"1421",557389,"421041",1,1,"same",2,1,4.948,79
"1422",557389,"421042",1,1,"same",2,1,NA,103
"1423",557389,"421043",1,1,"same",2,1,8.165,48
"1424",557389,"421044",1,1,"same",3,1,4.606,36
"1425",557389,"421045",1,1,"same",3,1,5.249,33
"1426",557389,"421046",1,1,"same",4,1,5.926,118
"1427",557389,"421047",1,1,"same",5,1,6.365,59
"1428",557389,"421048",1,1,"same",2,1,6.457,116
"1429",557389,"421049",1,1,"same",5,1,5.663,56
"1430",557389,"421050",1,1,"same",1,1,7.067,51
"1431",557389,"421051",1,1,"same",1,1,4.59,34
"1432",557389,"421052",1,1,"same",5,1,7.024,39
"1433",557389,"421053",1,1,"same",3,1,8.66,20
"1434",557389,"421054",1,1,"same",3,1,5.815,2
"1435",557389,"421055",1,1,"same",4,1,NA,102
"1436",557389,"421056",1,1,"same",2,1,5.993,90
"1437",557389,"421057",1,1,"same",4,1,NA,85
"1438",557389,"421058",1,1,"same",6,1,4.699,71
"1439",557389,"421059",1,1,"same",1,1,7.695,35
"1440",557389,"421060",1,1,"same",1,1,7.132,110
"1441",557456,"321091",1,1,"different",6,1,4.69,33
"1442",557456,"321092",1,1,"different",5,1,6.896,18
"1443",557456,"321093",1,1,"different",6,1,3.537,104
"1444",557456,"321094",1,1,"different",4,1,3.028,63
"1445",557456,"321095",1,1,"different",6,1,3.659,117
"1446",557456,"321096",1,1,"different",6,1,5.407,14
"1447",557456,"321097",1,1,"different",6,1,3.517,90
"1448",557456,"321098",1,1,"different",6,1,3.203,41
"1449",557456,"321099",1,1,"different",6,1,3.062,73
"1450",557456,"321100",1,1,"different",4,1,8.681,9
"1451",557456,"321101",1,1,"different",6,1,3.574,39
"1452",557456,"321102",1,1,"different",6,1,3.354,34
"1453",557456,"321103",1,1,"different",6,1,3.071,38
"1454",557456,"321104",1,1,"different",6,1,3.308,42
"1455",557456,"321105",1,1,"different",5,1,3.57,96
"1456",557456,"321106",1,1,"different",6,1,3.545,89
"1457",557456,"321107",1,1,"different",6,1,2.75,45
"1458",557456,"321108",1,1,"different",5,1,4.308,5
"1459",557456,"321109",1,1,"different",6,1,3.567,71
"1460",557456,"321110",1,1,"different",6,1,3.062,110
"1461",557456,"321111",1,1,"different",6,1,4.399,87
"1462",557456,"321112",1,1,"different",6,1,3.422,70
"1463",557456,"321113",1,1,"different",5,1,2.639,77
"1464",557456,"321114",1,1,"different",6,1,3.823,91
"1465",557456,"321115",1,1,"different",6,1,3.731,24
"1466",557456,"321116",1,1,"different",1,1,5.448,30
"1467",557456,"321117",1,1,"different",4,1,4.14,32
"1468",557456,"321118",1,1,"different",6,1,4.298,13
"1469",557456,"321119",1,1,"different",5,1,7.492,7
"1470",557456,"321120",1,1,"different",6,1,4.028,61
"1471",557456,"511061",1,1,"different",2,1,3.894,66
"1472",557456,"511062",1,1,"different",5,1,2.968,100
"1473",557456,"511063",1,1,"different",5,1,3.301,97
"1474",557456,"511064",1,1,"different",6,1,3.653,50
"1475",557456,"511065",1,1,"different",6,1,2.472,72
"1476",557456,"511066",1,1,"different",6,1,2.932,113
"1477",557456,"511067",1,1,"different",6,1,3.355,115
"1478",557456,"511068",1,1,"different",6,1,2.858,37
"1479",557456,"511069",1,1,"different",6,1,2.294,114
"1480",557456,"511070",1,1,"different",6,1,2.688,92
"1481",557456,"511071",1,1,"different",4,1,6.093,105
"1482",557456,"511072",1,1,"different",6,1,3.798,83
"1483",557456,"511073",1,1,"different",2,1,5.777,16
"1484",557456,"511074",1,1,"different",6,1,4.851,22
"1485",557456,"511075",1,1,"different",6,1,2.174,119
"1486",557456,"511076",1,1,"different",1,1,4.006,102
"1487",557456,"511077",1,1,"different",6,1,2.791,120
"1488",557456,"511078",1,1,"different",6,1,NA,26
"1489",557456,"511079",1,1,"different",6,1,2.949,52
"1490",557456,"511080",1,1,"different",6,1,2.654,116
"1491",557456,"511081",1,1,"different",6,1,3.415,101
"1492",557456,"511082",1,1,"different",6,1,3.415,78
"1493",557456,"511083",1,1,"different",6,1,2.778,112
"1494",557456,"511084",1,1,"different",6,1,2.266,59
"1495",557456,"511085",1,1,"different",6,1,3.248,56
"1496",557456,"511086",1,1,"different",NA,1,NA,1
"1497",557456,"511087",1,1,"different",6,1,2.914,48
"1498",557456,"511088",1,1,"different",6,1,3.047,60
"1499",557456,"511089",1,1,"different",5,1,6.007,12
"1500",557456,"511090",1,1,"different",4,1,2.668,107
"1501",557743,"221031",1,1,"different",3,1,6.201,104
"1502",557743,"221032",1,1,"different",1,1,4.613,110
"1503",557743,"221033",1,1,"different",6,1,2.578,58
"1504",557743,"221034",1,1,"different",6,1,4.76,2
"1505",557743,"221035",1,1,"different",6,1,4.279,61
"1506",557743,"221036",1,1,"different",6,1,4.186,52
"1507",557743,"221037",1,1,"different",6,1,7.645,12
"1508",557743,"221038",1,1,"different",NA,1,NA,17
"1509",557743,"221039",1,1,"different",6,1,3.579,23
"1510",557743,"221040",1,1,"different",6,1,4.035,75
"1511",557743,"221041",1,1,"different",6,1,4.538,45
"1512",557743,"221042",1,1,"different",6,1,7.613,119
"1513",557743,"221043",1,1,"different",4,1,7.448,10
"1514",557743,"221044",1,1,"different",6,1,2.929,113
"1515",557743,"221045",1,1,"different",6,1,4.076,88
"1516",557743,"221046",1,1,"different",5,1,6.579,40
"1517",557743,"221047",1,1,"different",6,1,4.369,57
"1518",557743,"221048",1,1,"different",6,1,4.681,118
"1519",557743,"221049",1,1,"different",6,1,3.367,72
"1520",557743,"221050",1,1,"different",6,1,5.454,105
"1521",557743,"221051",1,1,"different",6,1,3.491,26
"1522",557743,"221052",1,1,"different",6,1,3.699,74
"1523",557743,"221053",1,1,"different",5,1,NA,111
"1524",557743,"221054",1,1,"different",6,1,4.051,65
"1525",557743,"221055",1,1,"different",6,1,3.986,56
"1526",557743,"221056",1,1,"different",6,1,7.537,8
"1527",557743,"221057",1,1,"different",6,1,4.701,116
"1528",557743,"221058",1,1,"different",6,1,3.451,79
"1529",557743,"221059",1,1,"different",NA,1,NA,48
"1530",557743,"221060",1,1,"different",5,1,9.315,39
"1531",557743,"411001",1,1,"different",6,1,4.197,21
"1532",557743,"411002",1,1,"different",6,1,3.924,98
"1533",557743,"411003",1,1,"different",6,1,3.925,91
"1534",557743,"411004",1,1,"different",2,1,4.161,70
"1535",557743,"411005",1,1,"different",6,1,3.669,13
"1536",557743,"411006",1,1,"different",2,1,8.432,68
"1537",557743,"411007",1,1,"different",6,1,4.608,27
"1538",557743,"411008",1,1,"different",6,1,4.249,83
"1539",557743,"411009",1,1,"different",6,1,4.016,22
"1540",557743,"411010",1,1,"different",6,1,3.286,62
"1541",557743,"411011",1,1,"different",4,1,9.103,9
"1542",557743,"411012",1,1,"different",6,1,5.372,28
"1543",557743,"411013",1,1,"different",2,1,5.757,80
"1544",557743,"411014",1,1,"different",6,1,5.328,42
"1545",557743,"411015",1,1,"different",2,1,6.9,37
"1546",557743,"411016",1,1,"different",6,1,4.214,100
"1547",557743,"411017",1,1,"different",6,1,3.448,94
"1548",557743,"411018",1,1,"different",6,1,5.118,92
"1549",557743,"411019",1,1,"different",2,1,8.534,53
"1550",557743,"411020",1,1,"different",NA,1,NA,54
"1551",557743,"411021",1,1,"different",6,1,3.624,29
"1552",557743,"411022",1,1,"different",6,1,5.496,60
"1553",557743,"411023",1,1,"different",4,1,6.362,47
"1554",557743,"411024",1,1,"different",6,1,4.437,90
"1555",557743,"411025",1,1,"different",2,1,5.365,34
"1556",557743,"411026",1,1,"different",3,1,4.926,87
"1557",557743,"411027",1,1,"different",6,1,4.399,51
"1558",557743,"411028",1,1,"different",1,1,5.636,64
"1559",557743,"411029",1,1,"different",3,1,6.054,30
"1560",557743,"411030",1,1,"different",6,1,5.162,117
"1561",558002,"221031",1,1,"same",6,1,5.32,98
"1562",558002,"221032",1,1,"same",3,1,5.566,67
"1563",558002,"221033",1,1,"same",5,1,6.518,29
"1564",558002,"221034",1,1,"same",3,1,3.909,107
"1565",558002,"221035",1,1,"same",1,1,NA,103
"1566",558002,"221036",1,1,"same",6,1,6.82,43
"1567",558002,"221037",1,1,"same",6,1,3.93,10
"1568",558002,"221038",1,1,"same",6,1,6.349,3
"1569",558002,"221039",1,1,"same",3,1,5.56,48
"1570",558002,"221040",1,1,"same",3,1,4.469,40
"1571",558002,"221041",1,1,"same",3,1,3.95,30
"1572",558002,"221042",1,1,"same",3,1,4.434,75
"1573",558002,"221043",1,1,"same",3,1,8.568,108
"1574",558002,"221044",1,1,"same",3,1,3.184,94
"1575",558002,"221045",1,1,"same",3,1,4.158,38
"1576",558002,"221046",1,1,"same",3,1,7.359,80
"1577",558002,"221047",1,1,"same",3,1,4.498,46
"1578",558002,"221048",1,1,"same",1,1,7.642,83
"1579",558002,"221049",1,1,"same",3,1,3.611,114
"1580",558002,"221050",1,1,"same",6,1,4.034,113
"1581",558002,"221051",1,1,"same",6,1,2.88,11
"1582",558002,"221052",1,1,"same",1,1,6.204,50
"1583",558002,"221053",1,1,"same",3,1,5.323,63
"1584",558002,"221054",1,1,"same",3,1,5.028,39
"1585",558002,"221055",1,1,"same",6,1,4.566,105
"1586",558002,"221056",1,1,"same",3,1,6.259,86
"1587",558002,"221057",1,1,"same",1,1,6.709,58
"1588",558002,"221058",1,1,"same",1,1,3.131,84
"1589",558002,"221059",1,1,"same",2,1,4.646,60
"1590",558002,"221060",1,1,"same",3,1,7.686,104
"1591",558002,"411001",1,1,"same",3,1,6.644,120
"1592",558002,"411002",1,1,"same",NA,1,NA,116
"1593",558002,"411003",1,1,"same",4,1,NA,14
"1594",558002,"411004",1,1,"same",6,1,3.3,17
"1595",558002,"411005",1,1,"same",1,1,2.912,89
"1596",558002,"411006",1,1,"same",3,1,4.099,111
"1597",558002,"411007",1,1,"same",3,1,7.828,32
"1598",558002,"411008",1,1,"same",3,1,4.71,119
"1599",558002,"411009",1,1,"same",4,1,6.309,36
"1600",558002,"411010",1,1,"same",3,1,3.927,45
"1601",558002,"411011",1,1,"same",3,1,4.759,64
"1602",558002,"411012",1,1,"same",6,1,8.437,96
"1603",558002,"411013",1,1,"same",6,1,7.553,78
"1604",558002,"411014",1,1,"same",3,1,4.485,5
"1605",558002,"411015",1,1,"same",2,1,4.705,118
"1606",558002,"411016",1,1,"same",1,1,5.278,57
"1607",558002,"411017",1,1,"same",6,1,2.832,59
"1608",558002,"411018",1,1,"same",6,1,2.985,61
"1609",558002,"411019",1,1,"same",NA,1,NA,90
"1610",558002,"411020",1,1,"same",3,1,7.472,102
"1611",558002,"411021",1,1,"same",3,1,2.799,74
"1612",558002,"411022",1,1,"same",6,1,5.119,22
"1613",558002,"411023",1,1,"same",6,1,5.007,18
"1614",558002,"411024",1,1,"same",3,1,4.449,68
"1615",558002,"411025",1,1,"same",3,1,4.171,24
"1616",558002,"411026",1,1,"same",3,1,4.115,19
"1617",558002,"411027",1,1,"same",6,1,6.89,8
"1618",558002,"411028",1,1,"same",3,1,3.522,76
"1619",558002,"411029",1,1,"same",3,1,6.04,16
"1620",558002,"411030",1,1,"same",6,1,5.578,53
"1621",558112,"211001",1,1,"different",5,1,6.354,29
"1622",558112,"211002",1,1,"different",3,1,5.534,10
"1623",558112,"211003",1,1,"different",5,1,6.699,50
"1624",558112,"211004",1,1,"different",4,1,4.971,31
"1625",558112,"211005",1,1,"different",5,1,5.554,38
"1626",558112,"211006",1,1,"different",1,1,3.939,62
"1627",558112,"211007",1,1,"different",2,1,7.436,85
"1628",558112,"211008",1,1,"different",2,1,7.577,64
"1629",558112,"211009",1,1,"different",6,1,5.148,120
"1630",558112,"211010",1,1,"different",2,1,3.379,53
"1631",558112,"211011",1,1,"different",6,1,7.194,108
"1632",558112,"211012",1,1,"different",2,1,6.141,37
"1633",558112,"211013",1,1,"different",3,1,6.385,87
"1634",558112,"211014",1,1,"different",3,1,8.603,1
"1635",558112,"211015",1,1,"different",3,1,4.115,118
"1636",558112,"211016",1,1,"different",4,1,6.769,104
"1637",558112,"211017",1,1,"different",4,1,6.272,9
"1638",558112,"211018",1,1,"different",5,1,4.521,65
"1639",558112,"211019",1,1,"different",3,1,6.809,18
"1640",558112,"211020",1,1,"different",1,1,4.701,92
"1641",558112,"211021",1,1,"different",4,1,4.184,116
"1642",558112,"211022",1,1,"different",3,1,4.662,39
"1643",558112,"211023",1,1,"different",4,1,7.102,66
"1644",558112,"211024",1,1,"different",1,1,2.7,82
"1645",558112,"211025",1,1,"different",5,1,3.214,8
"1646",558112,"211026",1,1,"different",4,1,4.076,113
"1647",558112,"211027",1,1,"different",3,1,6.393,97
"1648",558112,"211028",1,1,"different",5,1,4.547,13
"1649",558112,"211029",1,1,"different",1,1,5.344,33
"1650",558112,"211030",1,1,"different",5,1,4.931,16
"1651",558112,"421031",1,1,"different",5,1,4.235,15
"1652",558112,"421032",1,1,"different",4,1,3.415,36
"1653",558112,"421033",1,1,"different",1,1,3.052,76
"1654",558112,"421034",1,1,"different",4,1,4.599,77
"1655",558112,"421035",1,1,"different",1,1,3.547,90
"1656",558112,"421036",1,1,"different",1,1,4.96,7
"1657",558112,"421037",1,1,"different",4,1,6.453,45
"1658",558112,"421038",1,1,"different",1,1,8.483,109
"1659",558112,"421039",1,1,"different",4,1,5.765,19
"1660",558112,"421040",1,1,"different",2,1,4.179,44
"1661",558112,"421041",1,1,"different",4,1,5.036,3
"1662",558112,"421042",1,1,"different",4,1,3.421,46
"1663",558112,"421043",1,1,"different",3,1,6.397,5
"1664",558112,"421044",1,1,"different",1,1,3.566,95
"1665",558112,"421045",1,1,"different",4,1,3.782,51
"1666",558112,"421046",1,1,"different",3,1,7.1,35
"1667",558112,"421047",1,1,"different",5,1,3.971,30
"1668",558112,"421048",1,1,"different",4,1,8.325,96
"1669",558112,"421049",1,1,"different",6,1,4.297,43
"1670",558112,"421050",1,1,"different",1,1,4.086,67
"1671",558112,"421051",1,1,"different",1,1,8.739,114
"1672",558112,"421052",1,1,"different",2,1,4.273,6
"1673",558112,"421053",1,1,"different",3,1,4.867,102
"1674",558112,"421054",1,1,"different",2,1,4.308,56
"1675",558112,"421055",1,1,"different",3,1,4.098,99
"1676",558112,"421056",1,1,"different",3,1,5.286,107
"1677",558112,"421057",1,1,"different",1,1,6.584,68
"1678",558112,"421058",1,1,"different",6,1,3.2,47
"1679",558112,"421059",1,1,"different",1,1,7.801,63
"1680",558112,"421060",1,1,"different",2,1,4.194,49
"1681",558392,"321091",1,1,"same",6,1,4.59,80
"1682",558392,"321092",1,1,"same",6,1,4.207,9
"1683",558392,"321093",1,1,"same",6,1,5.526,22
"1684",558392,"321094",1,1,"same",6,1,4.5,101
"1685",558392,"321095",1,1,"same",6,1,4.26,21
"1686",558392,"321096",1,1,"same",5,1,6.934,39
"1687",558392,"321097",1,1,"same",6,1,3.858,44
"1688",558392,"321098",1,1,"same",6,1,4.828,59
"1689",558392,"321099",1,1,"same",6,1,4.125,26
"1690",558392,"321100",1,1,"same",3,1,9.362,89
"1691",558392,"321101",1,1,"same",6,1,3.835,96
"1692",558392,"321102",1,1,"same",6,1,3.764,20
"1693",558392,"321103",1,1,"same",2,1,6.947,98
"1694",558392,"321104",1,1,"same",5,1,8.412,115
"1695",558392,"321105",1,1,"same",6,1,4.562,85
"1696",558392,"321106",1,1,"same",3,1,6.834,45
"1697",558392,"321107",1,1,"same",6,1,4.391,69
"1698",558392,"321108",1,1,"same",6,1,6.106,24
"1699",558392,"321109",1,1,"same",6,1,3.927,35
"1700",558392,"321110",1,1,"same",6,1,6.347,68
"1701",558392,"321111",1,1,"same",6,1,4.02,70
"1702",558392,"321112",1,1,"same",6,1,4.656,41
"1703",558392,"321113",1,1,"same",3,1,7.223,113
"1704",558392,"321114",1,1,"same",6,1,6.458,16
"1705",558392,"321115",1,1,"same",6,1,5.347,106
"1706",558392,"321116",1,1,"same",2,1,6.756,83
"1707",558392,"321117",1,1,"same",5,1,5.824,38
"1708",558392,"321118",1,1,"same",1,1,5.688,91
"1709",558392,"321119",1,1,"same",3,1,6.102,79
"1710",558392,"321120",1,1,"same",6,1,4.56,48
"1711",558392,"511061",1,1,"same",6,1,4.49,7
"1712",558392,"511062",1,1,"same",6,1,7.643,90
"1713",558392,"511063",1,1,"same",6,1,4.26,63
"1714",558392,"511064",1,1,"same",6,1,5.244,51
"1715",558392,"511065",1,1,"same",6,1,5.706,111
"1716",558392,"511066",1,1,"same",6,1,3.673,15
"1717",558392,"511067",1,1,"same",6,1,4.657,12
"1718",558392,"511068",1,1,"same",6,1,5.452,2
"1719",558392,"511069",1,1,"same",6,1,3.664,54
"1720",558392,"511070",1,1,"same",3,1,6.564,118
"1721",558392,"511071",1,1,"same",3,1,7.087,97
"1722",558392,"511072",1,1,"same",6,1,5.353,33
"1723",558392,"511073",1,1,"same",6,1,4.431,53
"1724",558392,"511074",1,1,"same",6,1,NA,62
"1725",558392,"511075",1,1,"same",6,1,4.454,37
"1726",558392,"511076",1,1,"same",5,1,9.003,110
"1727",558392,"511077",1,1,"same",6,1,4.63,109
"1728",558392,"511078",1,1,"same",6,1,5.17,52
"1729",558392,"511079",1,1,"same",6,1,4.987,103
"1730",558392,"511080",1,1,"same",6,1,4.176,67
"1731",558392,"511081",1,1,"same",4,1,7.07,119
"1732",558392,"511082",1,1,"same",6,1,4.368,94
"1733",558392,"511083",1,1,"same",6,1,4.626,102
"1734",558392,"511084",1,1,"same",6,1,4.083,66
"1735",558392,"511085",1,1,"same",6,1,4.371,82
"1736",558392,"511086",1,1,"same",6,1,4.567,72
"1737",558392,"511087",1,1,"same",6,1,3.2,27
"1738",558392,"511088",1,1,"same",6,1,3.828,104
"1739",558392,"511089",1,1,"same",6,1,5.946,93
"1740",558392,"511090",1,1,"same",6,1,4.433,10
"1741",558396,"311061",1,1,"same",3,1,7.404,44
"1742",558396,"311062",1,1,"same",NA,1,NA,96
"1743",558396,"311063",1,1,"same",3,1,4.112,8
"1744",558396,"311064",1,1,"same",3,1,8.869,112
"1745",558396,"311065",1,1,"same",5,1,6.421,104
"1746",558396,"311066",1,1,"same",3,1,4.259,63
"1747",558396,"311067",1,1,"same",5,1,5.899,70
"1748",558396,"311068",1,1,"same",5,1,5.337,102
"1749",558396,"311069",1,1,"same",5,1,6.246,31
"1750",558396,"311070",1,1,"same",2,1,8.796,64
"1751",558396,"311071",1,1,"same",4,1,7.206,24
"1752",558396,"311072",1,1,"same",4,1,8.557,38
"1753",558396,"311073",1,1,"same",3,1,4.945,13
"1754",558396,"311074",1,1,"same",3,1,5.417,46
"1755",558396,"311075",1,1,"same",3,1,7.717,34
"1756",558396,"311076",1,1,"same",3,1,6.081,75
"1757",558396,"311077",1,1,"same",4,1,5.882,35
"1758",558396,"311078",1,1,"same",4,1,NA,93
"1759",558396,"311079",1,1,"same",2,1,7.187,56
"1760",558396,"311080",1,1,"same",4,1,9.125,30
"1761",558396,"311081",1,1,"same",5,1,5.7,11
"1762",558396,"311082",1,1,"same",3,1,NA,55
"1763",558396,"311083",1,1,"same",NA,1,NA,107
"1764",558396,"311084",1,1,"same",4,1,7.219,76
"1765",558396,"311085",1,1,"same",4,1,9.139,78
"1766",558396,"311086",1,1,"same",4,1,4.863,95
"1767",558396,"311087",1,1,"same",4,1,5.807,98
"1768",558396,"311088",1,1,"same",2,1,4.903,53
"1769",558396,"311089",1,1,"same",NA,1,NA,1
"1770",558396,"311090",1,1,"same",3,1,6.761,84
"1771",558396,"521091",1,1,"same",4,1,6.8,80
"1772",558396,"521092",1,1,"same",6,1,6.076,2
"1773",558396,"521093",1,1,"same",4,1,7.618,52
"1774",558396,"521094",1,1,"same",4,1,6.363,82
"1775",558396,"521095",1,1,"same",2,1,5.929,45
"1776",558396,"521096",1,1,"same",3,1,7.205,28
"1777",558396,"521097",1,1,"same",6,1,4.925,16
"1778",558396,"521098",1,1,"same",4,1,6.587,66
"1779",558396,"521099",1,1,"same",4,1,4.715,85
"1780",558396,"521100",1,1,"same",4,1,9.11,14
"1781",558396,"521101",1,1,"same",4,1,7.771,60
"1782",558396,"521102",1,1,"same",5,1,6.088,36
"1783",558396,"521103",1,1,"same",4,1,7.629,58
"1784",558396,"521104",1,1,"same",4,1,8.932,42
"1785",558396,"521105",1,1,"same",NA,1,NA,106
"1786",558396,"521106",1,1,"same",4,1,6.26,47
"1787",558396,"521107",1,1,"same",4,1,6.403,97
"1788",558396,"521108",1,1,"same",2,1,7.289,19
"1789",558396,"521109",1,1,"same",NA,1,NA,92
"1790",558396,"521110",1,1,"same",3,1,6.757,20
"1791",558396,"521111",1,1,"same",NA,1,NA,113
"1792",558396,"521112",1,1,"same",5,1,5.122,37
"1793",558396,"521113",1,1,"same",3,1,6.297,71
"1794",558396,"521114",1,1,"same",4,1,4.628,23
"1795",558396,"521115",1,1,"same",4,1,5.826,86
"1796",558396,"521116",1,1,"same",6,1,5.86,4
"1797",558396,"521117",1,1,"same",4,1,6.597,110
"1798",558396,"521118",1,1,"same",3,1,5.171,27
"1799",558396,"521119",1,1,"same",3,1,8.006,12
"1800",558396,"521120",1,1,"same",3,1,7.128,101
"1801",559168,"311061",1,1,"different",4,1,4.672,73
"1802",559168,"311062",1,1,"different",6,1,3.019,27
"1803",559168,"311063",1,1,"different",6,1,2.7,102
"1804",559168,"311064",1,1,"different",1,1,3.43,12
"1805",559168,"311065",1,1,"different",2,1,3.97,43
"1806",559168,"311066",1,1,"different",1,1,3.496,119
"1807",559168,"311067",1,1,"different",4,1,3.839,17
"1808",559168,"311068",1,1,"different",6,1,2.944,36
"1809",559168,"311069",1,1,"different",6,1,2.637,78
"1810",559168,"311070",1,1,"different",2,1,3.945,116
"1811",559168,"311071",1,1,"different",5,1,3.467,34
"1812",559168,"311072",1,1,"different",6,1,3.676,29
"1813",559168,"311073",1,1,"different",NA,1,NA,1
"1814",559168,"311074",1,1,"different",4,1,2.874,18
"1815",559168,"311075",1,1,"different",6,1,6.99,3
"1816",559168,"311076",1,1,"different",4,1,5.296,83
"1817",559168,"311077",1,1,"different",3,1,3.862,55
"1818",559168,"311078",1,1,"different",6,1,2.763,88
"1819",559168,"311079",1,1,"different",6,1,2.294,87
"1820",559168,"311080",1,1,"different",3,1,3.852,63
"1821",559168,"311081",1,1,"different",6,1,2.371,57
"1822",559168,"311082",1,1,"different",4,1,6.859,37
"1823",559168,"311083",1,1,"different",6,1,2.891,23
"1824",559168,"311084",1,1,"different",2,1,3.263,59
"1825",559168,"311085",1,1,"different",1,1,3.667,61
"1826",559168,"311086",1,1,"different",2,1,5.219,74
"1827",559168,"311087",1,1,"different",6,1,2.964,110
"1828",559168,"311088",1,1,"different",6,1,2.83,10
"1829",559168,"311089",1,1,"different",6,1,3.678,115
"1830",559168,"311090",1,1,"different",5,1,4.76,6
"1831",559168,"521091",1,1,"different",4,1,3.826,79
"1832",559168,"521092",1,1,"different",4,1,3.941,100
"1833",559168,"521093",1,1,"different",4,1,5.137,5
"1834",559168,"521094",1,1,"different",6,1,2.377,82
"1835",559168,"521095",1,1,"different",3,1,5.515,105
"1836",559168,"521096",1,1,"different",4,1,5.411,14
"1837",559168,"521097",1,1,"different",6,1,2.665,84
"1838",559168,"521098",1,1,"different",5,1,2.775,69
"1839",559168,"521099",1,1,"different",4,1,3.952,54
"1840",559168,"521100",1,1,"different",1,1,4.732,91
"1841",559168,"521101",1,1,"different",3,1,3.302,109
"1842",559168,"521102",1,1,"different",1,1,5.219,51
"1843",559168,"521103",1,1,"different",4,1,2.149,41
"1844",559168,"521104",1,1,"different",5,1,2.234,47
"1845",559168,"521105",1,1,"different",3,1,4.08,30
"1846",559168,"521106",1,1,"different",6,1,2.483,85
"1847",559168,"521107",1,1,"different",6,1,3.341,26
"1848",559168,"521108",1,1,"different",1,1,3.331,19
"1849",559168,"521109",1,1,"different",5,1,4.649,76
"1850",559168,"521110",1,1,"different",6,1,4.751,112
"1851",559168,"521111",1,1,"different",1,1,5.257,58
"1852",559168,"521112",1,1,"different",4,1,4.947,32
"1853",559168,"521113",1,1,"different",6,1,2.468,114
"1854",559168,"521114",1,1,"different",4,1,4.896,31
"1855",559168,"521115",1,1,"different",6,1,2.787,99
"1856",559168,"521116",1,1,"different",4,1,2.368,72
"1857",559168,"521117",1,1,"different",5,1,5.924,20
"1858",559168,"521118",1,1,"different",4,1,2.936,65
"1859",559168,"521119",1,1,"different",6,1,2.949,101
"1860",559168,"521120",1,1,"different",3,1,7.25,2
"1861",559494,"211001",1,1,"same",4,1,4.865,18
"1862",559494,"211002",1,1,"same",4,1,3.595,117
"1863",559494,"211003",1,1,"same",2,1,3.063,113
"1864",559494,"211004",1,1,"same",4,1,4.485,98
"1865",559494,"211005",1,1,"same",1,1,3.836,37
"1866",559494,"211006",1,1,"same",4,1,5.505,11
"1867",559494,"211007",1,1,"same",3,1,6.316,116
"1868",559494,"211008",1,1,"same",3,1,7.415,67
"1869",559494,"211009",1,1,"same",2,1,4.41,94
"1870",559494,"211010",1,1,"same",3,1,4.094,43
"1871",559494,"211011",1,1,"same",4,1,5.957,70
"1872",559494,"211012",1,1,"same",5,1,6.04,92
"1873",559494,"211013",1,1,"same",4,1,3.998,55
"1874",559494,"211014",1,1,"same",4,1,2.335,77
"1875",559494,"211015",1,1,"same",4,1,4.015,40
"1876",559494,"211016",1,1,"same",4,1,5.193,65
"1877",559494,"211017",1,1,"same",5,1,3.954,49
"1878",559494,"211018",1,1,"same",3,1,2.908,105
"1879",559494,"211019",1,1,"same",4,1,4.3,85
"1880",559494,"211020",1,1,"same",4,1,5.575,53
"1881",559494,"211021",1,1,"same",4,1,6.536,17
"1882",559494,"211022",1,1,"same",3,1,5.777,86
"1883",559494,"211023",1,1,"same",4,1,5.983,42
"1884",559494,"211024",1,1,"same",3,1,3.191,89
"1885",559494,"211025",1,1,"same",4,1,4.555,52
"1886",559494,"211026",1,1,"same",4,1,3.26,120
"1887",559494,"211027",1,1,"same",3,1,6.778,35
"1888",559494,"211028",1,1,"same",6,1,3.1,57
"1889",559494,"211029",1,1,"same",5,1,4.557,3
"1890",559494,"211030",1,1,"same",5,1,NA,75
"1891",559494,"421031",1,1,"same",5,1,3.016,106
"1892",559494,"421032",1,1,"same",4,1,5.465,25
"1893",559494,"421033",1,1,"same",4,1,2.933,29
"1894",559494,"421034",1,1,"same",4,1,4.513,69
"1895",559494,"421035",1,1,"same",3,1,4.671,110
"1896",559494,"421036",1,1,"same",4,1,6.12,45
"1897",559494,"421037",1,1,"same",5,1,4.761,78
"1898",559494,"421038",1,1,"same",4,1,5.462,47
"1899",559494,"421039",1,1,"same",4,1,5.133,56
"1900",559494,"421040",1,1,"same",4,1,6.615,30
"1901",559494,"421041",1,1,"same",4,1,3.626,72
"1902",559494,"421042",1,1,"same",4,1,4.605,76
"1903",559494,"421043",1,1,"same",3,1,7.656,61
"1904",559494,"421044",1,1,"same",2,1,5.432,8
"1905",559494,"421045",1,1,"same",4,1,4.962,68
"1906",559494,"421046",1,1,"same",4,1,3.823,109
"1907",559494,"421047",1,1,"same",4,1,3.479,102
"1908",559494,"421048",1,1,"same",4,1,5.219,15
"1909",559494,"421049",1,1,"same",4,1,5.359,118
"1910",559494,"421050",1,1,"same",1,1,NA,19
"1911",559494,"421051",1,1,"same",1,1,4.479,97
"1912",559494,"421052",1,1,"same",4,1,6.341,27
"1913",559494,"421053",1,1,"same",3,1,5.602,9
"1914",559494,"421054",1,1,"same",NA,1,NA,1
"1915",559494,"421055",1,1,"same",4,1,4.316,100
"1916",559494,"421056",1,1,"same",3,1,4.175,21
"1917",559494,"421057",1,1,"same",NA,1,NA,32
"1918",559494,"421058",1,1,"same",3,1,4.007,23
"1919",559494,"421059",1,1,"same",3,1,4.324,104
"1920",559494,"421060",1,1,"same",4,1,5.862,96
"1921",559495,"211001",1,1,"same",5,1,1.895,32
"1922",559495,"211002",1,1,"same",6,1,2.112,67
"1923",559495,"211003",1,1,"same",5,1,2.177,13
"1924",559495,"211004",1,1,"same",5,1,3.933,6
"1925",559495,"211005",1,1,"same",5,1,2.127,31
"1926",559495,"211006",1,1,"same",4,1,2.384,111
"1927",559495,"211007",1,1,"same",4,1,1.8,83
"1928",559495,"211008",1,1,"same",5,1,1.881,52
"1929",559495,"211009",1,1,"same",5,1,2.101,104
"1930",559495,"211010",1,1,"same",5,1,2.647,65
"1931",559495,"211011",1,1,"same",5,1,1.99,56
"1932",559495,"211012",1,1,"same",5,1,2.237,42
"1933",559495,"211013",1,1,"same",5,1,3.098,117
"1934",559495,"211014",1,1,"same",5,1,2.03,112
"1935",559495,"211015",1,1,"same",5,1,2.461,24
"1936",559495,"211016",1,1,"same",5,1,2.162,40
"1937",559495,"211017",1,1,"same",5,1,1.652,109
"1938",559495,"211018",1,1,"same",3,1,2.074,22
"1939",559495,"211019",1,1,"same",4,1,3.989,21
"1940",559495,"211020",1,1,"same",3,1,4.734,71
"1941",559495,"211021",1,1,"same",5,1,2.541,70
"1942",559495,"211022",1,1,"same",5,1,1.908,108
"1943",559495,"211023",1,1,"same",4,1,1.917,77
"1944",559495,"211024",1,1,"same",5,1,4.495,4
"1945",559495,"211025",1,1,"same",5,1,2.547,92
"1946",559495,"211026",1,1,"same",5,1,2.074,59
"1947",559495,"211027",1,1,"same",5,1,1.822,105
"1948",559495,"211028",1,1,"same",5,1,1.364,60
"1949",559495,"211029",1,1,"same",5,1,2.108,28
"1950",559495,"211030",1,1,"same",5,1,2.622,119
"1951",559495,"421031",1,1,"same",5,1,2.194,99
"1952",559495,"421032",1,1,"same",5,1,1.61,35
"1953",559495,"421033",1,1,"same",5,1,1.731,76
"1954",559495,"421034",1,1,"same",6,1,2.176,66
"1955",559495,"421035",1,1,"same",5,1,1.673,54
"1956",559495,"421036",1,1,"same",5,1,2.783,10
"1957",559495,"421037",1,1,"same",5,1,2.078,30
"1958",559495,"421038",1,1,"same",5,1,1.79,100
"1959",559495,"421039",1,1,"same",5,1,1.712,110
"1960",559495,"421040",1,1,"same",5,1,1.872,58
"1961",559495,"421041",1,1,"same",5,1,2.487,114
"1962",559495,"421042",1,1,"same",5,1,2.297,39
"1963",559495,"421043",1,1,"same",5,1,2.379,62
"1964",559495,"421044",1,1,"same",5,1,1.571,53
"1965",559495,"421045",1,1,"same",5,1,2.022,88
"1966",559495,"421046",1,1,"same",6,1,1.425,68
"1967",559495,"421047",1,1,"same",5,1,2.057,15
"1968",559495,"421048",1,1,"same",5,1,2.206,44
"1969",559495,"421049",1,1,"same",5,1,1.714,37
"1970",559495,"421050",1,1,"same",5,1,2.485,82
"1971",559495,"421051",1,1,"same",5,1,2.855,98
"1972",559495,"421052",1,1,"same",5,1,2.268,106
"1973",559495,"421053",1,1,"same",5,1,3.022,91
"1974",559495,"421054",1,1,"same",5,1,1.954,38
"1975",559495,"421055",1,1,"same",5,1,1.774,86
"1976",559495,"421056",1,1,"same",5,1,1.996,16
"1977",559495,"421057",1,1,"same",4,1,2.574,73
"1978",559495,"421058",1,1,"same",2,1,2.789,2
"1979",559495,"421059",1,1,"same",5,1,1.615,49
"1980",559495,"421060",1,1,"same",6,1,2.308,69
"1981",559689,"211001",1,1,"different",6,1,2.804,113
"1982",559689,"211002",1,1,"different",6,1,3.329,96
"1983",559689,"211003",1,1,"different",6,1,3.776,6
"1984",559689,"211004",1,1,"different",6,1,2.381,10
"1985",559689,"211005",1,1,"different",4,1,6.724,83
"1986",559689,"211006",1,1,"different",6,1,5.846,53
"1987",559689,"211007",1,1,"different",6,1,4.237,62
"1988",559689,"211008",1,1,"different",6,1,2.928,80
"1989",559689,"211009",1,1,"different",6,1,2.849,92
"1990",559689,"211010",1,1,"different",6,1,2.69,57
"1991",559689,"211011",1,1,"different",6,1,2.872,14
"1992",559689,"211012",1,1,"different",6,1,4.24,55
"1993",559689,"211013",1,1,"different",6,1,4.148,36
"1994",559689,"211014",1,1,"different",6,1,2.417,100
"1995",559689,"211015",1,1,"different",6,1,3.953,52
"1996",559689,"211016",1,1,"different",6,1,2.68,89
"1997",559689,"211017",1,1,"different",6,1,2.393,65
"1998",559689,"211018",1,1,"different",6,1,2.03,98
"1999",559689,"211019",1,1,"different",6,1,3.962,77
"2000",559689,"211020",1,1,"different",6,1,4.905,26
"2001",559689,"211021",1,1,"different",6,1,3.167,72
"2002",559689,"211022",1,1,"different",6,1,2.203,103
"2003",559689,"211023",1,1,"different",6,1,2.893,11
"2004",559689,"211024",1,1,"different",6,1,3.092,101
"2005",559689,"211025",1,1,"different",3,1,3.907,107
"2006",559689,"211026",1,1,"different",5,1,5.964,106
"2007",559689,"211027",1,1,"different",6,1,2.492,88
"2008",559689,"211028",1,1,"different",6,1,2.284,56
"2009",559689,"211029",1,1,"different",6,1,3.891,9
"2010",559689,"211030",1,1,"different",6,1,3.02,109
"2011",559689,"421031",1,1,"different",6,1,2.549,44
"2012",559689,"421032",1,1,"different",6,1,2.317,49
"2013",559689,"421033",1,1,"different",6,1,3.875,94
"2014",559689,"421034",1,1,"different",6,1,2.304,50
"2015",559689,"421035",1,1,"different",6,1,2.395,119
"2016",559689,"421036",1,1,"different",6,1,2.897,105
"2017",559689,"421037",1,1,"different",6,1,3.176,54
"2018",559689,"421038",1,1,"different",6,1,3.617,34
"2019",559689,"421039",1,1,"different",6,1,3.052,43
"2020",559689,"421040",1,1,"different",6,1,3.984,47
"2021",559689,"421041",1,1,"different",6,1,4.01,76
"2022",559689,"421042",1,1,"different",6,1,3.153,69
"2023",559689,"421043",1,1,"different",6,1,4.011,45
"2024",559689,"421044",1,1,"different",6,1,2.579,110
"2025",559689,"421045",1,1,"different",6,1,2.927,97
"2026",559689,"421046",1,1,"different",6,1,3.819,38
"2027",559689,"421047",1,1,"different",6,1,3.388,81
"2028",559689,"421048",1,1,"different",4,1,7.32,112
"2029",559689,"421049",1,1,"different",6,1,3.066,63
"2030",559689,"421050",1,1,"different",5,1,7.01,51
"2031",559689,"421051",1,1,"different",6,1,2.787,86
"2032",559689,"421052",1,1,"different",6,1,3.121,13
"2033",559689,"421053",1,1,"different",6,1,3.201,8
"2034",559689,"421054",1,1,"different",4,1,5.354,46
"2035",559689,"421055",1,1,"different",6,1,3.034,20
"2036",559689,"421056",1,1,"different",6,1,2.91,37
"2037",559689,"421057",1,1,"different",6,1,4.932,40
"2038",559689,"421058",1,1,"different",6,1,3.319,115
"2039",559689,"421059",1,1,"different",4,1,NA,29
"2040",559689,"421060",1,1,"different",6,1,2.569,99
"2041",559792,"321091",1,1,"different",6,1,3.935,111
"2042",559792,"321092",1,1,"different",4,1,5.28,51
