"","subject","statement_identifier","procedure_identifier","within_identifier","between_identifier","response","repeated","rt","trial"
"1",499714,"221031",1,1,"different",5,1,3.933,82
"2",499714,"221032",1,1,"different",5,1,3.262,44
"3",499714,"221033",1,1,"different",3,1,4.501,100
"4",499714,"221034",1,1,"different",4,1,4.173,81
"5",499714,"221035",1,1,"different",4,1,5.216,21
"6",499714,"221036",1,1,"different",5,1,4.248,31
"7",499714,"221037",1,1,"different",1,1,6.09,105
"8",499714,"221038",1,1,"different",2,1,7.973,34
"9",499714,"221039",1,1,"different",2,1,4.053,118
"10",499714,"221040",1,1,"different",2,1,5.226,10
"11",499714,"221041",1,1,"different",5,1,4.18,38
"12",499714,"221042",1,1,"different",5,1,4.834,28
"13",499714,"221043",1,1,"different",2,1,6.417,36
"14",499714,"221044",1,1,"different",2,1,4.731,53
"15",499714,"221045",1,1,"different",4,1,4.792,101
"16",499714,"221046",1,1,"different",4,1,4.338,120
"17",499714,"221047",1,1,"different",2,1,6.889,13
"18",499714,"221048",1,1,"different",3,1,5.355,110
"19",499714,"221049",1,1,"different",4,1,4.486,96
"20",499714,"221050",1,1,"different",6,1,7.511,50
"21",499714,"221051",1,1,"different",2,1,3.717,69
"22",499714,"221052",1,1,"different",3,1,5.707,48
"23",499714,"221053",1,1,"different",1,1,4.184,18
"24",499714,"221054",1,1,"different",3,1,7.185,113
"25",499714,"221055",1,1,"different",4,1,6.296,106
"26",499714,"221056",1,1,"different",5,1,4.324,25
"27",499714,"221057",1,1,"different",2,1,6.877,72
"28",499714,"221058",1,1,"different",2,1,5.073,45
"29",499714,"221059",1,1,"different",4,1,5.317,111
"30",499714,"221060",1,1,"different",4,1,5.778,6
"31",499714,"411001",1,1,"different",3,1,3.971,35
"32",499714,"411002",1,1,"different",3,1,4.808,94
"33",499714,"411003",1,1,"different",4,1,5.437,47
"34",499714,"411004",1,1,"different",4,1,3.925,2
"35",499714,"411005",1,1,"different",2,1,4.177,39
"36",499714,"411006",1,1,"different",1,1,4.622,107
"37",499714,"411007",1,1,"different",1,1,4.152,4
"38",499714,"411008",1,1,"different",2,1,5.233,102
"39",499714,"411009",1,1,"different",3,1,5.315,98
"40",499714,"411010",1,1,"different",3,1,4.921,23
"41",499714,"411011",1,1,"different",6,1,5.332,1
"42",499714,"411012",1,1,"different",2,1,7.889,20
"43",499714,"411013",1,1,"different",1,1,6.264,64
"44",499714,"411014",1,1,"different",2,1,5.011,17
"45",499714,"411015",1,1,"different",4,1,6.06,93
"46",499714,"411016",1,1,"different",4,1,5.066,115
"47",499714,"411017",1,1,"different",3,1,4.171,51
"48",499714,"411018",1,1,"different",4,1,3.837,88
"49",499714,"411019",1,1,"different",3,1,4.972,14
"50",499714,"411020",1,1,"different",2,1,9.315,114
"51",499714,"411021",1,1,"different",5,1,5.118,32
"52",499714,"411022",1,1,"different",4,1,3.663,19
"53",499714,"411023",1,1,"different",6,1,3.726,37
"54",499714,"411024",1,1,"different",3,1,5.604,5
"55",499714,"411025",1,1,"different",4,1,6.462,86
"56",499714,"411026",1,1,"different",4,1,4.307,3
"57",499714,"411027",1,1,"different",1,1,7.61,71
"58",499714,"411028",1,1,"different",3,1,5.589,112
"59",499714,"411029",1,1,"different",2,1,5.168,63
"60",499714,"411030",1,1,"different",1,1,6.891,92
"61",499723,"211001",1,1,"different",2,1,NA,110
"62",499723,"211002",1,1,"different",6,1,7.599,19
"63",499723,"211003",1,1,"different",6,1,3.623,45
"64",499723,"211004",1,1,"different",6,1,3.244,17
"65",499723,"211005",1,1,"different",6,1,3.796,79
"66",499723,"211006",1,1,"different",6,1,4.376,48
"67",499723,"211007",1,1,"different",2,1,5.944,69
"68",499723,"211008",1,1,"different",6,1,5.036,59
"69",499723,"211009",1,1,"different",6,1,3.316,7
"70",499723,"211010",1,1,"different",6,1,6.448,96
"71",499723,"211011",1,1,"different",1,1,8.351,94
"72",499723,"211012",1,1,"different",6,1,5.763,23
"73",499723,"211013",1,1,"different",6,1,6.625,24
"74",499723,"211014",1,1,"different",6,1,3.61,20
"75",499723,"211015",1,1,"different",2,1,8.35,1
"76",499723,"211016",1,1,"different",4,1,4.594,57
"77",499723,"211017",1,1,"different",4,1,6.734,85
"78",499723,"211018",1,1,"different",6,1,5.315,55
"79",499723,"211019",1,1,"different",3,1,5.18,73
"80",499723,"211020",1,1,"different",6,1,4.97,44
"81",499723,"211021",1,1,"different",6,1,5.186,49
"82",499723,"211022",1,1,"different",6,1,4.313,51
"83",499723,"211023",1,1,"different",6,1,6.01,29
"84",499723,"211024",1,1,"different",6,1,4.604,40
"85",499723,"211025",1,1,"different",6,1,5.621,64
"86",499723,"211026",1,1,"different",3,1,5.403,42
"87",499723,"211027",1,1,"different",1,1,4.879,39
"88",499723,"211028",1,1,"different",6,1,4.908,63
"89",499723,"211029",1,1,"different",6,1,4.148,41
"90",499723,"211030",1,1,"different",6,1,5.672,86
"91",499723,"421031",1,1,"different",6,1,3.388,75
"92",499723,"421032",1,1,"different",6,1,3.619,25
"93",499723,"421033",1,1,"different",6,1,3.662,47
"94",499723,"421034",1,1,"different",2,1,8.272,72
"95",499723,"421035",1,1,"different",1,1,4.165,18
"96",499723,"421036",1,1,"different",6,1,6.491,12
"97",499723,"421037",1,1,"different",6,1,5.432,5
"98",499723,"421038",1,1,"different",6,1,NA,3
"99",499723,"421039",1,1,"different",1,1,5.152,109
"100",499723,"421040",1,1,"different",3,1,6.195,104
"101",499723,"421041",1,1,"different",6,1,5.258,67
"102",499723,"421042",1,1,"different",6,1,4.388,56
"103",499723,"421043",1,1,"different",1,1,6.123,36
"104",499723,"421044",1,1,"different",1,1,6.23,92
"105",499723,"421045",1,1,"different",6,1,5.234,83
"106",499723,"421046",1,1,"different",4,1,7.119,43
"107",499723,"421047",1,1,"different",6,1,4.852,6
"108",499723,"421048",1,1,"different",6,1,4.674,9
"109",499723,"421049",1,1,"different",2,1,3.95,60
"110",499723,"421050",1,1,"different",3,1,6.955,53
"111",499723,"421051",1,1,"different",6,1,4.25,46
"112",499723,"421052",1,1,"different",6,1,5.908,91
"113",499723,"421053",1,1,"different",6,1,4.979,82
"114",499723,"421054",1,1,"different",6,1,5.221,13
"115",499723,"421055",1,1,"different",2,1,5.012,111
"116",499723,"421056",1,1,"different",6,1,4.288,50
"117",499723,"421057",1,1,"different",6,1,4.934,16
"118",499723,"421058",1,1,"different",6,1,3.895,84
"119",499723,"421059",1,1,"different",3,1,6.28,2
"120",499723,"421060",1,1,"different",6,1,5.677,71
"121",499733,"310085",1,1,"different",5,1,5.253,60
"122",499733,"311061",1,1,"different",3,1,3.621,34
"123",499733,"311062",1,1,"different",4,1,4.22,6
"124",499733,"311063",1,1,"different",4,1,3.437,30
"125",499733,"311064",1,1,"different",3,1,2.72,81
"126",499733,"311065",1,1,"different",4,1,2.753,51
"127",499733,"311066",1,1,"different",5,1,4.055,56
"128",499733,"311067",1,1,"different",4,1,3.287,74
"129",499733,"311068",1,1,"different",4,1,5.271,93
"130",499733,"311069",1,1,"different",5,1,3.637,26
"131",499733,"311070",1,1,"different",3,1,2.387,23
"132",499733,"311071",1,1,"different",3,1,NA,52
"133",499733,"311072",1,1,"different",5,1,4.119,49
"134",499733,"311073",1,1,"different",3,1,1.97,106
"135",499733,"311074",1,1,"different",3,1,3.821,40
"136",499733,"311075",1,1,"different",3,1,2.921,80
"137",499733,"311076",1,1,"different",2,1,4.62,11
"138",499733,"311077",1,1,"different",5,1,5.771,87
"139",499733,"311078",1,1,"different",3,1,3.104,89
"140",499733,"311079",1,1,"different",3,1,9.037,1
"141",499733,"311080",1,1,"different",3,1,5.653,21
"142",499733,"311081",1,1,"different",3,1,2.82,68
"143",499733,"311082",1,1,"different",4,1,7.554,9
"144",499733,"311083",1,1,"different",3,1,9.304,14
"145",499733,"311084",1,1,"different",3,1,2.321,44
"146",499733,"311086",1,1,"different",3,1,2.387,32
"147",499733,"311087",1,1,"different",3,1,3.654,53
"148",499733,"311088",1,1,"different",3,1,5.338,78
"149",499733,"311089",1,1,"different",4,1,3.704,19
"150",499733,"311090",1,1,"different",3,1,1.603,45
"151",499733,"521091",1,1,"different",4,1,4.87,17
"152",499733,"521092",1,1,"different",2,1,3.654,36
"153",499733,"521093",1,1,"different",2,1,2.904,94
"154",499733,"521094",1,1,"different",3,1,3.138,3
"155",499733,"521095",1,1,"different",4,1,3.554,112
"156",499733,"521096",1,1,"different",3,1,2.221,98
"157",499733,"521097",1,1,"different",3,1,3.587,57
"158",499733,"521098",1,1,"different",3,1,3.838,8
"159",499733,"521099",1,1,"different",5,1,3.287,28
"160",499733,"521100",1,1,"different",3,1,3.172,88
"161",499733,"521101",1,1,"different",4,1,2.271,107
"162",499733,"521102",1,1,"different",3,1,2.654,102
"163",499733,"521103",1,1,"different",3,1,3.121,31
"164",499733,"521104",1,1,"different",4,1,6.171,76
"165",499733,"521105",1,1,"different",3,1,3.355,114
"166",499733,"521106",1,1,"different",3,1,3.254,90
"167",499733,"521107",1,1,"different",3,1,6.304,77
"168",499733,"521108",1,1,"different",3,1,3.22,25
"169",499733,"521109",1,1,"different",4,1,5.103,37
"170",499733,"521110",1,1,"different",3,1,3.753,59
"171",499733,"521111",1,1,"different",3,1,2.955,116
"172",499733,"521112",1,1,"different",5,1,6.803,85
"173",499733,"521113",1,1,"different",5,1,2.67,109
"174",499733,"521114",1,1,"different",5,1,3.554,65
"175",499733,"521115",1,1,"different",3,1,5.404,5
"176",499733,"521116",1,1,"different",3,1,1.805,103
"177",499733,"521117",1,1,"different",3,1,2.505,100
"178",499733,"521118",1,1,"different",4,1,2.954,55
"179",499733,"521119",1,1,"different",3,1,2.404,101
"180",499733,"521120",1,1,"different",3,1,2.388,115
"181",499753,"321091",1,1,"different",5,1,5.752,78
"182",499753,"321092",1,1,"different",6,1,4.346,3
"183",499753,"321093",1,1,"different",6,1,NA,2
"184",499753,"321094",1,1,"different",4,1,3.753,100
"185",499753,"321095",1,1,"different",4,1,5.355,11
"186",499753,"321096",1,1,"different",6,1,7.967,59
"187",499753,"321097",1,1,"different",4,1,5.207,114
"188",499753,"321098",1,1,"different",1,1,7.757,60
"189",499753,"321099",1,1,"different",6,1,5.598,10
"190",499753,"321100",1,1,"different",5,1,6.594,18
"191",499753,"321101",1,1,"different",5,1,4.127,52
"192",499753,"321102",1,1,"different",2,1,4.773,74
"193",499753,"321103",1,1,"different",3,1,4.387,53
"194",499753,"321104",1,1,"different",5,1,6.763,77
"195",499753,"321105",1,1,"different",5,1,4.557,101
"196",499753,"321106",1,1,"different",4,1,5.038,89
"197",499753,"321107",1,1,"different",6,1,4.531,13
"198",499753,"321108",1,1,"different",4,1,5.4,86
"199",499753,"321109",1,1,"different",5,1,3.991,4
"200",499753,"321110",1,1,"different",5,1,3.141,38
"201",499753,"321111",1,1,"different",6,1,5.339,16
"202",499753,"321112",1,1,"different",4,1,4.566,70
"203",499753,"321113",1,1,"different",5,1,4.102,57
"204",499753,"321114",1,1,"different",5,1,4.263,46
"205",499753,"321115",1,1,"different",2,1,6.394,93
"206",499753,"321116",1,1,"different",2,1,5.055,24
"207",499753,"321117",1,1,"different",4,1,5.654,51
"208",499753,"321118",1,1,"different",NA,1,NA,12
"209",499753,"321119",1,1,"different",2,1,7.131,105
"210",499753,"321120",1,1,"different",2,1,4.559,21
"211",499753,"511061",1,1,"different",2,1,8.22,67
"212",499753,"511062",1,1,"different",5,1,3.728,40
"213",499753,"511063",1,1,"different",4,1,3.854,71
"214",499753,"511064",1,1,"different",5,1,7.006,15
"215",499753,"511065",1,1,"different",4,1,NA,104
"216",499753,"511066",1,1,"different",6,1,2.998,31
"217",499753,"511067",1,1,"different",5,1,6.462,75
"218",499753,"511068",1,1,"different",4,1,4.763,30
"219",499753,"511069",1,1,"different",1,1,5.627,94
"220",499753,"511070",1,1,"different",6,1,3.909,55
"221",499753,"511071",1,1,"different",3,1,3.162,64
"222",499753,"511072",1,1,"different",4,1,8.008,22
"223",499753,"511073",1,1,"different",3,1,4.049,97
"224",499753,"511074",1,1,"different",6,1,4.97,14
"225",499753,"511075",1,1,"different",4,1,4.935,32
"226",499753,"511076",1,1,"different",4,1,4.317,27
"227",499753,"511077",1,1,"different",5,1,3.153,62
"228",499753,"511078",1,1,"different",3,1,4.864,68
"229",499753,"511079",1,1,"different",4,1,3.973,87
"230",499753,"511080",1,1,"different",4,1,4.781,17
"231",499753,"511081",1,1,"different",4,1,2.737,88
"232",499753,"511082",1,1,"different",3,1,4.986,108
"233",499753,"511083",1,1,"different",3,1,4.211,45
"234",499753,"511084",1,1,"different",4,1,5.701,98
"235",499753,"511085",1,1,"different",5,1,4.869,26
"236",499753,"511086",1,1,"different",4,1,5.706,28
"237",499753,"511087",1,1,"different",6,1,3.292,7
"238",499753,"511088",1,1,"different",4,1,6.626,63
"239",499753,"511089",1,1,"different",5,1,4.615,48
"240",499753,"511090",1,1,"different",4,1,6.186,36
"241",499765,"211001",1,1,"different",6,1,2.526,101
"242",499765,"211002",1,1,"different",6,1,3.576,32
"243",499765,"211003",1,1,"different",6,1,3.777,102
"244",499765,"211004",1,1,"different",5,1,2.764,59
"245",499765,"211005",1,1,"different",6,1,3.194,31
"246",499765,"211006",1,1,"different",4,1,6.916,14
"247",499765,"211007",1,1,"different",6,1,3.967,85
"248",499765,"211008",1,1,"different",6,1,3.392,79
"249",499765,"211009",1,1,"different",6,1,3.96,38
"250",499765,"211010",1,1,"different",6,1,3.467,16
"251",499765,"211011",1,1,"different",4,1,3.3,20
"252",499765,"211012",1,1,"different",4,1,3.667,120
"253",499765,"211013",1,1,"different",5,1,4.766,24
"254",499765,"211014",1,1,"different",5,1,3.659,58
"255",499765,"211015",1,1,"different",6,1,4.632,81
"256",499765,"211016",1,1,"different",5,1,5.359,27
"257",499765,"211017",1,1,"different",4,1,4.26,110
"258",499765,"211018",1,1,"different",6,1,2.735,22
"259",499765,"211019",1,1,"different",4,1,5.977,44
"260",499765,"211020",1,1,"different",6,1,4.634,13
"261",499765,"211021",1,1,"different",6,1,3.534,90
"262",499765,"211022",1,1,"different",6,1,3.361,87
"263",499765,"211023",1,1,"different",5,1,3.762,105
"264",499765,"211024",1,1,"different",5,1,5.31,72
"265",499765,"211025",1,1,"different",6,1,3.049,7
"266",499765,"211026",1,1,"different",4,1,4.298,3
"267",499765,"211027",1,1,"different",6,1,2.958,23
"268",499765,"211028",1,1,"different",6,1,4.226,74
"269",499765,"211029",1,1,"different",6,1,2.993,100
"270",499765,"211030",1,1,"different",5,1,3.944,106
"271",499765,"421031",1,1,"different",6,1,2.543,25
"272",499765,"421032",1,1,"different",6,1,2.81,84
"273",499765,"421033",1,1,"different",6,1,2.827,42
"274",499765,"421034",1,1,"different",6,1,2.716,111
"275",499765,"421035",1,1,"different",5,1,4.027,48
"276",499765,"421036",1,1,"different",6,1,4.301,78
"277",499765,"421037",1,1,"different",6,1,4.75,34
"278",499765,"421038",1,1,"different",6,1,3.607,70
"279",499765,"421039",1,1,"different",2,1,6.241,11
"280",499765,"421040",1,1,"different",4,1,4.493,116
"281",499765,"421041",1,1,"different",6,1,3.284,89
"282",499765,"421042",1,1,"different",5,1,4.35,109
"283",499765,"421043",1,1,"different",6,1,3.316,51
"284",499765,"421044",1,1,"different",6,1,3.164,10
"285",499765,"421045",1,1,"different",6,1,3.15,35
"286",499765,"421046",1,1,"different",3,1,8.775,1
"287",499765,"421047",1,1,"different",6,1,3.309,96
"288",499765,"421048",1,1,"different",6,1,3.831,15
"289",499765,"421049",1,1,"different",6,1,3.382,9
"290",499765,"421050",1,1,"different",6,1,4.35,50
"291",499765,"421051",1,1,"different",6,1,3.244,65
"292",499765,"421052",1,1,"different",6,1,3.492,49
"293",499765,"421053",1,1,"different",6,1,4.493,6
"294",499765,"421054",1,1,"different",6,1,3.416,40
"295",499765,"421055",1,1,"different",6,1,3.46,67
"296",499765,"421056",1,1,"different",6,1,2.89,26
"297",499765,"421057",1,1,"different",6,1,3.883,41
"298",499765,"421058",1,1,"different",6,1,2.994,91
"299",499765,"421059",1,1,"different",4,1,4.458,108
"300",499765,"421060",1,1,"different",6,1,3.694,47
"301",499826,"310085",1,1,"different",5,1,3.005,33
"302",499826,"311061",1,1,"different",4,1,2.803,8
"303",499826,"311062",1,1,"different",NA,1,NA,7
"304",499826,"311063",1,1,"different",3,1,5.623,27
"305",499826,"311064",1,1,"different",5,1,5.772,53
"306",499826,"311065",1,1,"different",6,1,5.206,56
"307",499826,"311066",1,1,"different",1,1,3.522,66
"308",499826,"311067",1,1,"different",6,1,2.655,60
"309",499826,"311068",1,1,"different",6,1,7.388,103
"310",499826,"311069",1,1,"different",6,1,2.522,85
"311",499826,"311070",1,1,"different",5,1,4.905,6
"312",499826,"311071",1,1,"different",2,1,3.671,52
"313",499826,"311072",1,1,"different",5,1,5.922,13
"314",499826,"311073",1,1,"different",3,1,3.555,117
"315",499826,"311074",1,1,"different",4,1,3.588,94
"316",499826,"311075",1,1,"different",4,1,2.504,23
"317",499826,"311076",1,1,"different",5,1,2.922,86
"318",499826,"311077",1,1,"different",3,1,4.905,97
"319",499826,"311078",1,1,"different",5,1,5.057,65
"320",499826,"311079",1,1,"different",3,1,4.988,62
"321",499826,"311080",1,1,"different",4,1,NA,5
"322",499826,"311081",1,1,"different",5,1,3.423,80
"323",499826,"311082",1,1,"different",4,1,3.172,55
"324",499826,"311083",1,1,"different",3,1,3.687,20
"325",499826,"311084",1,1,"different",2,1,8.021,19
"326",499826,"311086",1,1,"different",4,1,3.921,28
"327",499826,"311087",1,1,"different",3,1,4.338,26
"328",499826,"311088",1,1,"different",5,1,2.038,116
"329",499826,"311089",1,1,"different",5,1,4.022,69
"330",499826,"311090",1,1,"different",3,1,6.706,74
"331",499826,"521091",1,1,"different",4,1,4.055,9
"332",499826,"521092",1,1,"different",4,1,2.637,110
"333",499826,"521093",1,1,"different",3,1,4.89,42
"334",499826,"521094",1,1,"different",3,1,4.305,113
"335",499826,"521095",1,1,"different",3,1,7.106,98
"336",499826,"521096",1,1,"different",4,1,9.289,2
"337",499826,"521097",1,1,"different",4,1,3.405,83
"338",499826,"521098",1,1,"different",4,1,5.638,15
"339",499826,"521099",1,1,"different",4,1,6.372,10
"340",499826,"521100",1,1,"different",6,1,3.09,61
"341",499826,"521101",1,1,"different",2,1,4.773,49
"342",499826,"521102",1,1,"different",3,1,3.955,68
"343",499826,"521103",1,1,"different",3,1,4.439,104
"344",499826,"521104",1,1,"different",3,1,4.938,24
"345",499826,"521105",1,1,"different",4,1,3.156,29
"346",499826,"521106",1,1,"different",4,1,3.52,91
"347",499826,"521107",1,1,"different",4,1,3.339,99
"348",499826,"521108",1,1,"different",2,1,7.222,93
"349",499826,"521109",1,1,"different",4,1,2.221,118
"350",499826,"521110",1,1,"different",5,1,6.039,63
"351",499826,"521111",1,1,"different",5,1,2.287,87
"352",499826,"521112",1,1,"different",4,1,2.571,109
"353",499826,"521113",1,1,"different",4,1,3.089,40
"354",499826,"521114",1,1,"different",5,1,2.89,64
"355",499826,"521115",1,1,"different",4,1,3.154,43
"356",499826,"521116",1,1,"different",1,1,4.639,30
"357",499826,"521117",1,1,"different",4,1,6.306,88
"358",499826,"521118",1,1,"different",5,1,2.64,38
"359",499826,"521119",1,1,"different",4,1,5.288,32
"360",499826,"521120",1,1,"different",3,1,5.273,47
"361",500027,"321091",1,1,"different",6,1,4.177,110
"362",500027,"321092",1,1,"different",6,1,3.563,15
"363",500027,"321093",1,1,"different",5,1,4.485,73
"364",500027,"321094",1,1,"different",6,1,3.256,98
"365",500027,"321095",1,1,"different",1,1,5.362,95
"366",500027,"321096",1,1,"different",5,1,8.204,8
"367",500027,"321097",1,1,"different",3,1,8.142,1
"368",500027,"321098",1,1,"different",5,1,2.534,80
"369",500027,"321099",1,1,"different",1,1,5.3,19
"370",500027,"321100",1,1,"different",5,1,4.682,61
"371",500027,"321101",1,1,"different",6,1,2.294,81
"372",500027,"321102",1,1,"different",6,1,3.817,118
"373",500027,"321103",1,1,"different",6,1,3.329,62
"374",500027,"321104",1,1,"different",6,1,4.65,70
"375",500027,"321105",1,1,"different",6,1,4.351,90
"376",500027,"321106",1,1,"different",2,1,4.059,59
"377",500027,"321107",1,1,"different",5,1,2.798,79
"378",500027,"321108",1,1,"different",5,1,4.172,2
"379",500027,"321109",1,1,"different",5,1,3.235,64
"380",500027,"321110",1,1,"different",5,1,5.326,89
"381",500027,"321111",1,1,"different",6,1,4.018,28
"382",500027,"321112",1,1,"different",6,1,7.389,6
"383",500027,"321113",1,1,"different",6,1,2.978,24
"384",500027,"321114",1,1,"different",6,1,3.34,84
"385",500027,"321115",1,1,"different",6,1,8.021,91
"386",500027,"321116",1,1,"different",5,1,3.987,112
"387",500027,"321117",1,1,"different",5,1,4.145,113
"388",500027,"321118",1,1,"different",6,1,4.003,53
"389",500027,"321119",1,1,"different",4,1,6.061,12
"390",500027,"321120",1,1,"different",6,1,2.846,86
"391",500027,"511061",1,1,"different",5,1,7.51,111
"392",500027,"511062",1,1,"different",5,1,6.306,37
"393",500027,"511063",1,1,"different",5,1,5.458,71
"394",500027,"511064",1,1,"different",3,1,5.295,87
"395",500027,"511065",1,1,"different",6,1,4.055,42
"396",500027,"511066",1,1,"different",6,1,2.886,83
"397",500027,"511067",1,1,"different",6,1,4.795,30
"398",500027,"511068",1,1,"different",6,1,8.543,18
"399",500027,"511069",1,1,"different",3,1,5.939,78
"400",500027,"511070",1,1,"different",4,1,3.12,92
"401",500027,"511071",1,1,"different",5,1,7.802,9
"402",500027,"511072",1,1,"different",1,1,7.042,120
"403",500027,"511073",1,1,"different",5,1,9.421,34
"404",500027,"511074",1,1,"different",6,1,4.943,35
"405",500027,"511075",1,1,"different",2,1,4.327,50
"406",500027,"511076",1,1,"different",6,1,5.127,44
"407",500027,"511077",1,1,"different",6,1,3.628,11
"408",500027,"511078",1,1,"different",2,1,7.382,117
"409",500027,"511079",1,1,"different",6,1,2.98,66
"410",500027,"511080",1,1,"different",6,1,5.184,97
"411",500027,"511081",1,1,"different",6,1,3.883,47
"412",500027,"511082",1,1,"different",6,1,5.321,17
"413",500027,"511083",1,1,"different",5,1,3.953,54
"414",500027,"511084",1,1,"different",6,1,3.804,10
"415",500027,"511085",1,1,"different",6,1,3.733,27
"416",500027,"511086",1,1,"different",6,1,4.811,29
"417",500027,"511087",1,1,"different",6,1,3.734,56
"418",500027,"511088",1,1,"different",5,1,4.266,58
"419",500027,"511089",1,1,"different",6,1,4.311,68
"420",500027,"511090",1,1,"different",4,1,6.528,96
"421",500043,"221031",1,1,"different",5,1,4.481,18
"422",500043,"221032",1,1,"different",6,1,4.376,31
"423",500043,"221033",1,1,"different",6,1,2.81,64
"424",500043,"221034",1,1,"different",6,1,2.514,91
"425",500043,"221035",1,1,"different",4,1,7.549,22
"426",500043,"221036",1,1,"different",6,1,2.217,59
"427",500043,"221037",1,1,"different",6,1,4.585,63
"428",500043,"221038",1,1,"different",6,1,2.398,37
"429",500043,"221039",1,1,"different",6,1,7.122,58
"430",500043,"221040",1,1,"different",4,1,5.005,114
"431",500043,"221041",1,1,"different",4,1,5.561,75
"432",500043,"221042",1,1,"different",5,1,8.878,17
"433",500043,"221043",1,1,"different",6,1,2.931,70
"434",500043,"221044",1,1,"different",6,1,2.738,115
"435",500043,"221045",1,1,"different",6,1,6.223,109
"436",500043,"221046",1,1,"different",6,1,3.915,45
"437",500043,"221047",1,1,"different",6,1,2.839,101
"438",500043,"221048",1,1,"different",6,1,6.964,2
"439",500043,"221049",1,1,"different",6,1,2.102,73
"440",500043,"221050",1,1,"different",6,1,5.803,24
"441",500043,"221051",1,1,"different",NA,1,NA,102
"442",500043,"221052",1,1,"different",6,1,5.61,9
"443",500043,"221053",1,1,"different",6,1,2.98,51
"444",500043,"221054",1,1,"different",6,1,3.514,110
"445",500043,"221055",1,1,"different",6,1,2.398,49
"446",500043,"221056",1,1,"different",6,1,2.458,35
"447",500043,"221057",1,1,"different",6,1,4.353,47
"448",500043,"221058",1,1,"different",6,1,2.823,43
"449",500043,"221059",1,1,"different",4,1,6.11,20
"450",500043,"221060",1,1,"different",6,1,4.03,33
"451",500043,"411001",1,1,"different",6,1,3.167,106
"452",500043,"411002",1,1,"different",5,1,7.599,46
"453",500043,"411003",1,1,"different",6,1,2.725,67
"454",500043,"411004",1,1,"different",5,1,5.1,21
"455",500043,"411005",1,1,"different",6,1,5.12,86
"456",500043,"411006",1,1,"different",6,1,3.508,57
"457",500043,"411007",1,1,"different",6,1,3.17,62
"458",500043,"411008",1,1,"different",6,1,2.431,66
"459",500043,"411009",1,1,"different",6,1,2.404,53
"460",500043,"411010",1,1,"different",6,1,2.952,107
"461",500043,"411011",1,1,"different",6,1,5.015,108
"462",500043,"411012",1,1,"different",6,1,3.994,30
"463",500043,"411013",1,1,"different",6,1,3.628,50
"464",500043,"411014",1,1,"different",6,1,1.995,42
"465",500043,"411015",1,1,"different",6,1,4.451,10
"466",500043,"411016",1,1,"different",6,1,2.88,116
"467",500043,"411017",1,1,"different",6,1,3.993,25
"468",500043,"411018",1,1,"different",6,1,2.481,14
"469",500043,"411019",1,1,"different",6,1,5.2,3
"470",500043,"411020",1,1,"different",6,1,8.652,89
"471",500043,"411021",1,1,"different",6,1,4.335,52
"472",500043,"411022",1,1,"different",6,1,2.129,120
"473",500043,"411023",1,1,"different",6,1,7.883,27
"474",500043,"411024",1,1,"different",6,1,3.942,44
"475",500043,"411025",1,1,"different",6,1,3.062,84
"476",500043,"411026",1,1,"different",6,1,3.992,26
"477",500043,"411027",1,1,"different",6,1,4.357,100
"478",500043,"411028",1,1,"different",6,1,3.145,39
"479",500043,"411029",1,1,"different",4,1,6.473,113
"480",500043,"411030",1,1,"different",4,1,6.73,16
"481",500218,"211001",1,1,"same",5,1,4.765,82
"482",500218,"211002",1,1,"same",4,1,4.497,57
"483",500218,"211003",1,1,"same",5,1,5.352,74
"484",500218,"211004",1,1,"same",4,1,4.539,64
"485",500218,"211005",1,1,"same",1,1,7.087,31
"486",500218,"211006",1,1,"same",5,1,8.968,108
"487",500218,"211007",1,1,"same",5,1,8.413,81
"488",500218,"211008",1,1,"same",2,1,NA,5
"489",500218,"211009",1,1,"same",2,1,4.78,25
"490",500218,"211010",1,1,"same",3,1,NA,11
"491",500218,"211011",1,1,"same",5,1,7.654,120
"492",500218,"211012",1,1,"same",5,1,6.93,22
"493",500218,"211013",1,1,"same",3,1,NA,61
"494",500218,"211014",1,1,"same",4,1,4.616,34
"495",500218,"211015",1,1,"same",3,1,NA,26
"496",500218,"211016",1,1,"same",5,1,5.671,36
"497",500218,"211017",1,1,"same",5,1,7.473,116
"498",500218,"211018",1,1,"same",NA,1,NA,110
"499",500218,"211019",1,1,"same",5,1,5.334,37
"500",500218,"211020",1,1,"same",3,1,6.381,54
"501",500218,"211021",1,1,"same",5,1,8.868,119
"502",500218,"211022",1,1,"same",6,1,3.649,43
"503",500218,"211023",1,1,"same",6,1,6.764,7
"504",500218,"211024",1,1,"same",5,1,8.81,80
"505",500218,"211025",1,1,"same",5,1,6.21,42
"506",500218,"211026",1,1,"same",4,1,4.143,63
"507",500218,"211027",1,1,"same",2,1,7.394,13
"508",500218,"211028",1,1,"same",4,1,6.558,46
"509",500218,"211029",1,1,"same",5,1,5.297,103
"510",500218,"211030",1,1,"same",NA,1,NA,15
"511",500218,"421031",1,1,"same",6,1,5.015,8
"512",500218,"421032",1,1,"same",5,1,3.946,71
"513",500218,"421033",1,1,"same",4,1,5.417,113
"514",500218,"421034",1,1,"same",3,1,5.199,20
"515",500218,"421035",1,1,"same",3,1,6.895,66
"516",500218,"421036",1,1,"same",5,1,6.792,38
"517",500218,"421037",1,1,"same",3,1,5.721,32
"518",500218,"421038",1,1,"same",4,1,NA,76
"519",500218,"421039",1,1,"same",5,1,3.336,56
"520",500218,"421040",1,1,"same",5,1,5.803,77
"521",500218,"421041",1,1,"same",5,1,4.134,55
"522",500218,"421042",1,1,"same",5,1,7.778,89
"523",500218,"421043",1,1,"same",3,1,8.232,100
"524",500218,"421044",1,1,"same",3,1,7.322,47
"525",500218,"421045",1,1,"same",5,1,4.86,40
"526",500218,"421046",1,1,"same",5,1,4.929,84
"527",500218,"421047",1,1,"same",5,1,9.404,23
"528",500218,"421048",1,1,"same",4,1,7.764,21
"529",500218,"421049",1,1,"same",2,1,NA,65
"530",500218,"421050",1,1,"same",NA,1,NA,1
"531",500218,"421051",1,1,"same",4,1,7.449,109
"532",500218,"421052",1,1,"same",3,1,NA,4
"533",500218,"421053",1,1,"same",4,1,6.685,115
"534",500218,"421054",1,1,"same",5,1,7.103,90
"535",500218,"421055",1,1,"same",5,1,5.93,44
"536",500218,"421056",1,1,"same",5,1,6.317,16
"537",500218,"421057",1,1,"same",4,1,NA,78
"538",500218,"421058",1,1,"same",2,1,3.928,105
"539",500218,"421059",1,1,"same",4,1,5.552,49
"540",500218,"421060",1,1,"same",5,1,7.636,87
"541",500291,"310085",1,1,"same",6,1,2.411,47
"542",500291,"311061",1,1,"same",6,1,3.143,65
"543",500291,"311062",1,1,"same",6,1,2.529,84
"544",500291,"311063",1,1,"same",5,1,4.251,8
"545",500291,"311064",1,1,"same",6,1,2.743,23
"546",500291,"311065",1,1,"same",6,1,2.267,40
"547",500291,"311066",1,1,"same",6,1,2.628,75
"548",500291,"311067",1,1,"same",6,1,3.209,10
"549",500291,"311068",1,1,"same",6,1,2.318,89
"550",500291,"311069",1,1,"same",6,1,2.59,44
"551",500291,"311070",1,1,"same",6,1,4.899,57
"552",500291,"311071",1,1,"same",6,1,3.654,109
"553",500291,"311072",1,1,"same",6,1,4.852,27
"554",500291,"311073",1,1,"same",6,1,2.088,115
"555",500291,"311074",1,1,"same",6,1,3.002,6
"556",500291,"311075",1,1,"same",6,1,2.581,76
"557",500291,"311076",1,1,"same",6,1,1.82,37
"558",500291,"311077",1,1,"same",6,1,3.554,16
"559",500291,"311078",1,1,"same",6,1,3.309,67
"560",500291,"311079",1,1,"same",6,1,2.669,61
"561",500291,"311080",1,1,"same",6,1,2.704,114
"562",500291,"311081",1,1,"same",6,1,2.583,119
"563",500291,"311082",1,1,"same",6,1,2.803,102
"564",500291,"311083",1,1,"same",5,1,4.279,80
"565",500291,"311084",1,1,"same",6,1,4.165,98
"566",500291,"311086",1,1,"same",6,1,2.163,30
"567",500291,"311087",1,1,"same",6,1,2.218,101
"568",500291,"311088",1,1,"same",6,1,2.347,15
"569",500291,"311089",1,1,"same",6,1,2.987,42
"570",500291,"311090",1,1,"same",6,1,3.499,60
"571",500291,"521091",1,1,"same",6,1,2.598,29
"572",500291,"521092",1,1,"same",6,1,3.636,43
"573",500291,"521093",1,1,"same",6,1,4.064,31
"574",500291,"521094",1,1,"same",6,1,4.613,38
"575",500291,"521095",1,1,"same",6,1,2.513,22
"576",500291,"521096",1,1,"same",6,1,5.487,96
"577",500291,"521097",1,1,"same",6,1,4.843,2
"578",500291,"521098",1,1,"same",6,1,3.247,99
"579",500291,"521099",1,1,"same",6,1,2.829,69
"580",500291,"521100",1,1,"same",6,1,2.945,112
"581",500291,"521101",1,1,"same",6,1,2.743,14
"582",500291,"521102",1,1,"same",6,1,2.764,77
"583",500291,"521103",1,1,"same",6,1,2.698,68
"584",500291,"521104",1,1,"same",6,1,2.058,32
"585",500291,"521105",1,1,"same",6,1,2.369,49
"586",500291,"521106",1,1,"same",6,1,3.22,24
"587",500291,"521107",1,1,"same",6,1,2.912,19
"588",500291,"521108",1,1,"same",6,1,2.421,79
"589",500291,"521109",1,1,"same",6,1,2.599,66
"590",500291,"521110",1,1,"same",6,1,2.515,54
"591",500291,"521111",1,1,"same",6,1,2.572,74
"592",500291,"521112",1,1,"same",6,1,2.969,113
"593",500291,"521113",1,1,"same",6,1,3.301,94
"594",500291,"521114",1,1,"same",6,1,2.936,48
"595",500291,"521115",1,1,"same",6,1,2.98,41
"596",500291,"521116",1,1,"same",6,1,4.081,104
"597",500291,"521117",1,1,"same",6,1,2.944,21
"598",500291,"521118",1,1,"same",6,1,2.692,55
"599",500291,"521119",1,1,"same",6,1,2.796,111
"600",500291,"521120",1,1,"same",6,1,2.376,52
"601",500788,"321091",1,1,"same",6,1,4.271,114
"602",500788,"321092",1,1,"same",4,1,6.26,42
"603",500788,"321093",1,1,"same",3,1,5.99,25
"604",500788,"321094",1,1,"same",3,1,4.853,92
"605",500788,"321095",1,1,"same",1,1,5.975,60
"606",500788,"321096",1,1,"same",6,1,7.114,80
"607",500788,"321097",1,1,"same",3,1,8.459,5
"608",500788,"321098",1,1,"same",3,1,6.054,104
"609",500788,"321099",1,1,"same",5,1,6.249,75
"610",500788,"321100",1,1,"same",3,1,7.351,74
"611",500788,"321101",1,1,"same",6,1,7.854,77
"612",500788,"321102",1,1,"same",5,1,5.583,118
"613",500788,"321103",1,1,"same",3,1,4.924,95
"614",500788,"321104",1,1,"same",4,1,8.07,3
"615",500788,"321105",1,1,"same",4,1,6.369,108
"616",500788,"321106",1,1,"same",3,1,5.569,39
"617",500788,"321107",1,1,"same",6,1,5.84,54
"618",500788,"321108",1,1,"same",6,1,4.985,111
"619",500788,"321109",1,1,"same",3,1,5.218,91
"620",500788,"321110",1,1,"same",3,1,7.947,89
"621",500788,"321111",1,1,"same",4,1,7.431,36
"622",500788,"321112",1,1,"same",6,1,4.112,31
"623",500788,"321113",1,1,"same",5,1,5.065,15
"624",500788,"321114",1,1,"same",6,1,4.637,10
"625",500788,"321115",1,1,"same",3,1,7.283,100
"626",500788,"321116",1,1,"same",5,1,6.254,44
"627",500788,"321117",1,1,"same",4,1,NA,30
"628",500788,"321118",1,1,"same",6,1,4.668,9
"629",500788,"321119",1,1,"same",3,1,6.456,82
"630",500788,"321120",1,1,"same",2,1,5.399,16
"631",500788,"511061",1,1,"same",2,1,6.441,68
"632",500788,"511062",1,1,"same",2,1,3.744,17
"633",500788,"511063",1,1,"same",3,1,6.357,97
"634",500788,"511064",1,1,"same",5,1,7.723,23
"635",500788,"511065",1,1,"same",6,1,4.401,21
"636",500788,"511066",1,1,"same",6,1,5.919,6
"637",500788,"511067",1,1,"same",6,1,5.865,53
"638",500788,"511068",1,1,"same",4,1,6.045,103
"639",500788,"511069",1,1,"same",1,1,5.276,76
"640",500788,"511070",1,1,"same",5,1,5.628,47
"641",500788,"511071",1,1,"same",3,1,8.658,94
"642",500788,"511072",1,1,"same",6,1,4.583,117
"643",500788,"511073",1,1,"same",3,1,8.639,105
"644",500788,"511074",1,1,"same",2,1,6.537,112
"645",500788,"511075",1,1,"same",6,1,4.025,120
"646",500788,"511076",1,1,"same",6,1,6.498,70
"647",500788,"511077",1,1,"same",1,1,5.221,69
"648",500788,"511078",1,1,"same",2,1,7.71,22
"649",500788,"511079",1,1,"same",5,1,6.373,34
"650",500788,"511080",1,1,"same",3,1,8.038,59
"651",500788,"511081",1,1,"same",2,1,6.08,29
"652",500788,"511082",1,1,"same",4,1,5.735,18
"653",500788,"511083",1,1,"same",3,1,7.869,87
"654",500788,"511084",1,1,"same",2,1,4.365,43
"655",500788,"511085",1,1,"same",4,1,8.635,88
"656",500788,"511086",1,1,"same",5,1,5.618,4
"657",500788,"511087",1,1,"same",5,1,5.607,51
"658",500788,"511088",1,1,"same",2,1,6.813,24
"659",500788,"511089",1,1,"same",5,1,5.881,7
"660",500788,"511090",1,1,"same",3,1,8.502,1
"661",500795,"221031",1,1,"different",6,1,4.388,83
"662",500795,"221032",1,1,"different",6,1,2.931,72
"663",500795,"221033",1,1,"different",6,1,3.07,76
"664",500795,"221034",1,1,"different",6,1,4.365,63
"665",500795,"221035",1,1,"different",3,1,4.206,47
"666",500795,"221036",1,1,"different",6,1,4.747,3
"667",500795,"221037",1,1,"different",6,1,3.841,38
"668",500795,"221038",1,1,"different",1,1,5.369,28
"669",500795,"221039",1,1,"different",4,1,5.692,51
"670",500795,"221040",1,1,"different",6,1,9.086,1
"671",500795,"221041",1,1,"different",3,1,3.447,62
"672",500795,"221042",1,1,"different",6,1,4.337,18
"673",500795,"221043",1,1,"different",5,1,4.344,106
"674",500795,"221044",1,1,"different",6,1,3.156,73
"675",500795,"221045",1,1,"different",5,1,4.841,117
"676",500795,"221046",1,1,"different",2,1,3.525,115
"677",500795,"221047",1,1,"different",6,1,3.649,96
"678",500795,"221048",1,1,"different",2,1,6.099,111
"679",500795,"221049",1,1,"different",6,1,3.35,39
"680",500795,"221050",1,1,"different",5,1,5.252,113
"681",500795,"221051",1,1,"different",6,1,4.198,50
"682",500795,"221052",1,1,"different",5,1,5.023,59
"683",500795,"221053",1,1,"different",6,1,3.6,77
"684",500795,"221054",1,1,"different",5,1,4.228,99
"685",500795,"221055",1,1,"different",6,1,4.069,88
"686",500795,"221056",1,1,"different",6,1,4.185,81
"687",500795,"221057",1,1,"different",5,1,5.369,5
"688",500795,"221058",1,1,"different",2,1,5.064,82
"689",500795,"221059",1,1,"different",5,1,5.095,66
"690",500795,"221060",1,1,"different",6,1,4.604,6
"691",500795,"411001",1,1,"different",6,1,3.435,15
"692",500795,"411002",1,1,"different",4,1,4.848,10
"693",500795,"411003",1,1,"different",6,1,3.192,27
"694",500795,"411004",1,1,"different",5,1,3.066,118
"695",500795,"411005",1,1,"different",5,1,3.752,60
"696",500795,"411006",1,1,"different",4,1,5.827,31
"697",500795,"411007",1,1,"different",5,1,6.798,116
"698",500795,"411008",1,1,"different",4,1,4.184,43
"699",500795,"411009",1,1,"different",6,1,3.713,91
"700",500795,"411010",1,1,"different",6,1,3.519,29
"701",500795,"411011",1,1,"different",5,1,4.383,54
"702",500795,"411012",1,1,"different",4,1,4.471,74
"703",500795,"411013",1,1,"different",6,1,4.485,94
"704",500795,"411014",1,1,"different",2,1,4.519,86
"705",500795,"411015",1,1,"different",6,1,3.59,79
"706",500795,"411016",1,1,"different",5,1,4.08,98
"707",500795,"411017",1,1,"different",6,1,3.02,25
"708",500795,"411018",1,1,"different",5,1,4.522,41
"709",500795,"411019",1,1,"different",4,1,3.776,107
"710",500795,"411020",1,1,"different",2,1,4.861,70
"711",500795,"411021",1,1,"different",6,1,4.531,24
"712",500795,"411022",1,1,"different",6,1,3.14,42
"713",500795,"411023",1,1,"different",5,1,NA,4
"714",500795,"411024",1,1,"different",6,1,3.021,16
"715",500795,"411025",1,1,"different",5,1,3.416,7
"716",500795,"411026",1,1,"different",2,1,4.005,105
"717",500795,"411027",1,1,"different",5,1,4.881,114
"718",500795,"411028",1,1,"different",2,1,6.272,33
"719",500795,"411029",1,1,"different",4,1,3.478,53
"720",500795,"411030",1,1,"different",2,1,6.829,58
"721",500798,"310085",1,1,"same",1,1,6.016,97
"722",500798,"311061",1,1,"same",5,1,4.804,72
"723",500798,"311062",1,1,"same",3,1,3.56,104
"724",500798,"311063",1,1,"same",4,1,4.303,92
"725",500798,"311064",1,1,"same",5,1,6.053,44
"726",500798,"311065",1,1,"same",6,1,5.237,120
"727",500798,"311066",1,1,"same",6,1,3.54,25
"728",500798,"311067",1,1,"same",5,1,5.76,52
"729",500798,"311068",1,1,"same",6,1,3.006,110
"730",500798,"311069",1,1,"same",6,1,2.834,31
"731",500798,"311070",1,1,"same",6,1,2.373,79
"732",500798,"311071",1,1,"same",4,1,3.435,93
"733",500798,"311072",1,1,"same",6,1,3.349,10
"734",500798,"311073",1,1,"same",4,1,3.614,108
"735",500798,"311074",1,1,"same",5,1,4.235,2
"736",500798,"311075",1,1,"same",6,1,2.282,51
"737",500798,"311076",1,1,"same",6,1,5.296,40
"738",500798,"311077",1,1,"same",6,1,3.066,20
"739",500798,"311078",1,1,"same",6,1,7.582,115
"740",500798,"311079",1,1,"same",5,1,3.283,61
"741",500798,"311080",1,1,"same",4,1,3.733,76
"742",500798,"311081",1,1,"same",5,1,3.632,105
"743",500798,"311082",1,1,"same",5,1,5.397,117
"744",500798,"311083",1,1,"same",6,1,3.404,15
"745",500798,"311084",1,1,"same",4,1,3.477,29
"746",500798,"311086",1,1,"same",6,1,4.636,89
"747",500798,"311087",1,1,"same",5,1,3.697,116
"748",500798,"311088",1,1,"same",5,1,4.518,96
"749",500798,"311089",1,1,"same",6,1,3.358,5
"750",500798,"311090",1,1,"same",5,1,5.525,112
"751",500798,"521091",1,1,"same",5,1,3.507,35
"752",500798,"521092",1,1,"same",6,1,3.285,14
"753",500798,"521093",1,1,"same",4,1,4.354,41
"754",500798,"521094",1,1,"same",6,1,2.586,8
"755",500798,"521095",1,1,"same",1,1,7.269,56
"756",500798,"521096",1,1,"same",6,1,3.434,27
"757",500798,"521097",1,1,"same",4,1,3.299,111
"758",500798,"521098",1,1,"same",6,1,2.311,43
"759",500798,"521099",1,1,"same",5,1,3.202,50
"760",500798,"521100",1,1,"same",4,1,3.645,106
"761",500798,"521101",1,1,"same",6,1,3.746,21
"762",500798,"521102",1,1,"same",5,1,2.539,63
"763",500798,"521103",1,1,"same",6,1,2.452,18
"764",500798,"521104",1,1,"same",2,1,9.157,118
"765",500798,"521105",1,1,"same",6,1,3.369,11
"766",500798,"521106",1,1,"same",5,1,3.441,73
"767",500798,"521107",1,1,"same",4,1,4.418,81
"768",500798,"521108",1,1,"same",1,1,4.128,94
"769",500798,"521109",1,1,"same",6,1,2.275,37
"770",500798,"521110",1,1,"same",5,1,6.782,78
"771",500798,"521111",1,1,"same",1,1,4.158,30
"772",500798,"521112",1,1,"same",4,1,4.445,114
"773",500798,"521113",1,1,"same",6,1,1.813,34
"774",500798,"521114",1,1,"same",6,1,3.097,28
"775",500798,"521115",1,1,"same",5,1,2.787,58
"776",500798,"521116",1,1,"same",5,1,3.673,88
"777",500798,"521117",1,1,"same",6,1,3.158,60
"778",500798,"521118",1,1,"same",6,1,3.186,66
"779",500798,"521119",1,1,"same",6,1,2.982,32
"780",500798,"521120",1,1,"same",3,1,5.419,87
"781",500805,"321091",1,1,"different",4,1,2.327,63
"782",500805,"321092",1,1,"different",3,1,3.261,48
"783",500805,"321093",1,1,"different",2,1,4.327,72
"784",500805,"321094",1,1,"different",4,1,2.899,80
"785",500805,"321095",1,1,"different",5,1,7.963,5
"786",500805,"321096",1,1,"different",2,1,7.853,45
"787",500805,"321097",1,1,"different",2,1,6.173,31
"788",500805,"321098",1,1,"different",3,1,3.12,69
"789",500805,"321099",1,1,"different",5,1,8.003,36
"790",500805,"321100",1,1,"different",5,1,3.674,25
"791",500805,"321101",1,1,"different",5,1,3.4,101
"792",500805,"321102",1,1,"different",4,1,5.193,87
"793",500805,"321103",1,1,"different",2,1,3.601,73
"794",500805,"321104",1,1,"different",2,1,3.671,83
"795",500805,"321105",1,1,"different",5,1,4.142,47
"796",500805,"321106",1,1,"different",4,1,4.065,61
"797",500805,"321107",1,1,"different",5,1,5.964,4
"798",500805,"321108",1,1,"different",5,1,3.417,32
"799",500805,"321109",1,1,"different",4,1,5.286,42
"800",500805,"321110",1,1,"different",4,1,5.664,9
"801",500805,"321111",1,1,"different",5,1,3.451,12
"802",500805,"321112",1,1,"different",1,1,3.083,98
"803",500805,"321113",1,1,"different",5,1,4.745,102
"804",500805,"321114",1,1,"different",4,1,2.234,68
"805",500805,"321115",1,1,"different",2,1,3.844,54
"806",500805,"321116",1,1,"different",1,1,2.095,118
"807",500805,"321117",1,1,"different",4,1,4.247,111
"808",500805,"321118",1,1,"different",2,1,5.293,41
"809",500805,"321119",1,1,"different",3,1,4.987,20
"810",500805,"321120",1,1,"different",2,1,4.65,65
"811",500805,"511061",1,1,"different",1,1,4.798,105
"812",500805,"511062",1,1,"different",3,1,5.172,75
"813",500805,"511063",1,1,"different",2,1,4.142,76
"814",500805,"511064",1,1,"different",2,1,8.004,52
"815",500805,"511065",1,1,"different",2,1,2.5,107
"816",500805,"511066",1,1,"different",6,1,4.622,90
"817",500805,"511067",1,1,"different",5,1,3.493,81
"818",500805,"511068",1,1,"different",2,1,4.682,6
"819",500805,"511069",1,1,"different",5,1,3.699,3
"820",500805,"511070",1,1,"different",6,1,4.328,7
"821",500805,"511071",1,1,"different",2,1,3.66,22
"822",500805,"511072",1,1,"different",1,1,7.547,60
"823",500805,"511073",1,1,"different",2,1,2.469,115
"824",500805,"511074",1,1,"different",4,1,NA,37
"825",500805,"511075",1,1,"different",5,1,4.693,15
"826",500805,"511076",1,1,"different",4,1,4.207,82
"827",500805,"511077",1,1,"different",2,1,2.016,106
"828",500805,"511078",1,1,"different",2,1,4.748,113
"829",500805,"511079",1,1,"different",4,1,2.625,84
"830",500805,"511080",1,1,"different",5,1,3.459,71
"831",500805,"511081",1,1,"different",1,1,2.016,110
"832",500805,"511082",1,1,"different",4,1,4.754,56
"833",500805,"511083",1,1,"different",2,1,2.633,67
"834",500805,"511084",1,1,"different",1,1,5.662,8
"835",500805,"511085",1,1,"different",5,1,6.952,64
"836",500805,"511086",1,1,"different",3,1,3.777,79
"837",500805,"511087",1,1,"different",5,1,4.476,35
"838",500805,"511088",1,1,"different",4,1,4.818,70
"839",500805,"511089",1,1,"different",4,1,6.262,34
"840",500805,"511090",1,1,"different",6,1,6.502,2
"841",500811,"211001",1,1,"same",6,1,4.567,4
"842",500811,"211002",1,1,"same",1,1,3.56,105
"843",500811,"211003",1,1,"same",5,1,4.208,83
"844",500811,"211004",1,1,"same",2,1,4.265,113
"845",500811,"211005",1,1,"same",5,1,5.932,94
"846",500811,"211006",1,1,"same",4,1,NA,41
"847",500811,"211007",1,1,"same",1,1,5.617,91
"848",500811,"211008",1,1,"same",1,1,4.526,76
"849",500811,"211009",1,1,"same",6,1,4.142,3
"850",500811,"211010",1,1,"same",2,1,3.79,60
"851",500811,"211011",1,1,"same",5,1,3.609,70
"852",500811,"211012",1,1,"same",1,1,3.848,53
"853",500811,"211013",1,1,"same",4,1,4.164,74
"854",500811,"211014",1,1,"same",2,1,3.601,30
"855",500811,"211015",1,1,"same",2,1,4.394,119
"856",500811,"211016",1,1,"same",5,1,4.626,8
"857",500811,"211017",1,1,"same",2,1,3.92,85
"858",500811,"211018",1,1,"same",3,1,3.694,23
"859",500811,"211019",1,1,"same",1,1,5.933,111
"860",500811,"211020",1,1,"same",1,1,3.898,39
"861",500811,"211021",1,1,"same",3,1,3.958,27
"862",500811,"211022",1,1,"same",4,1,4.639,86
"863",500811,"211023",1,1,"same",1,1,4.037,49
"864",500811,"211024",1,1,"same",1,1,3.78,57
"865",500811,"211025",1,1,"same",2,1,3.972,51
"866",500811,"211026",1,1,"same",1,1,4.431,120
"867",500811,"211027",1,1,"same",6,1,4.386,28
"868",500811,"211028",1,1,"same",5,1,5.447,115
"869",500811,"211029",1,1,"same",6,1,4.88,2
"870",500811,"211030",1,1,"same",1,1,5.305,89
"871",500811,"421031",1,1,"same",1,1,5.101,87
"872",500811,"421032",1,1,"same",3,1,6.026,112
"873",500811,"421033",1,1,"same",1,1,5.131,90
"874",500811,"421034",1,1,"same",3,1,4.623,59
"875",500811,"421035",1,1,"same",1,1,4.278,35
"876",500811,"421036",1,1,"same",1,1,6.167,108
"877",500811,"421037",1,1,"same",2,1,5.139,19
"878",500811,"421038",1,1,"same",2,1,4.825,61
"879",500811,"421039",1,1,"same",3,1,4.374,45
"880",500811,"421040",1,1,"same",2,1,4.823,114
"881",500811,"421041",1,1,"same",2,1,3.421,101
"882",500811,"421042",1,1,"same",1,1,4.391,33
"883",500811,"421043",1,1,"same",1,1,4.67,93
"884",500811,"421044",1,1,"same",2,1,4.274,24
"885",500811,"421045",1,1,"same",3,1,3.787,118
"886",500811,"421046",1,1,"same",3,1,3.915,110
"887",500811,"421047",1,1,"same",3,1,6.995,11
"888",500811,"421048",1,1,"same",1,1,5.151,55
"889",500811,"421049",1,1,"same",4,1,6.772,9
"890",500811,"421050",1,1,"same",1,1,5.077,12
"891",500811,"421051",1,1,"same",5,1,9.295,25
"892",500811,"421052",1,1,"same",6,1,6.037,5
"893",500811,"421053",1,1,"same",2,1,4.295,80
"894",500811,"421054",1,1,"same",4,1,5.161,68
"895",500811,"421055",1,1,"same",5,1,4.772,20
"896",500811,"421056",1,1,"same",3,1,6.722,7
"897",500811,"421057",1,1,"same",1,1,6.467,22
"898",500811,"421058",1,1,"same",4,1,5.538,98
"899",500811,"421059",1,1,"same",1,1,3.76,58
"900",500811,"421060",1,1,"same",2,1,4.43,84
"901",500821,"221031",1,1,"same",6,1,2.025,73
"902",500821,"221032",1,1,"same",6,1,2.506,66
"903",500821,"221033",1,1,"same",6,1,2.14,79
"904",500821,"221034",1,1,"same",6,1,4.006,27
"905",500821,"221035",1,1,"same",6,1,9.009,31
"906",500821,"221036",1,1,"same",6,1,4.004,8
"907",500821,"221037",1,1,"same",6,1,2.969,64
"908",500821,"221038",1,1,"same",6,1,5.074,3
"909",500821,"221039",1,1,"same",6,1,2.868,17
"910",500821,"221040",1,1,"same",6,1,7.413,63
"911",500821,"221041",1,1,"same",6,1,6.219,38
"912",500821,"221042",1,1,"same",6,1,3.731,34
"913",500821,"221043",1,1,"same",6,1,2.282,72
"914",500821,"221044",1,1,"same",6,1,4.331,30
"915",500821,"221045",1,1,"same",6,1,3.491,120
"916",500821,"221046",1,1,"same",5,1,7.448,119
"917",500821,"221047",1,1,"same",6,1,4.027,47
"918",500821,"221048",1,1,"same",6,1,5.265,19
"919",500821,"221049",1,1,"same",6,1,2.563,53
"920",500821,"221050",1,1,"same",6,1,5.63,111
"921",500821,"221051",1,1,"same",6,1,4.14,96
"922",500821,"221052",1,1,"same",6,1,6.07,9
"923",500821,"221053",1,1,"same",6,1,4.851,55
"924",500821,"221054",1,1,"same",5,1,6.406,12
"925",500821,"221055",1,1,"same",6,1,3.369,110
"926",500821,"221056",1,1,"same",6,1,7.407,16
"927",500821,"221057",1,1,"same",6,1,8.957,86
"928",500821,"221058",1,1,"same",6,1,3.114,54
"929",500821,"221059",1,1,"same",6,1,3.186,100
"930",500821,"221060",1,1,"same",6,1,4.107,80
"931",500821,"411001",1,1,"same",6,1,3.646,40
"932",500821,"411002",1,1,"same",6,1,4.696,107
"933",500821,"411003",1,1,"same",6,1,3.596,68
"934",500821,"411004",1,1,"same",5,1,6.091,32
"935",500821,"411005",1,1,"same",2,1,7.055,60
"936",500821,"411006",1,1,"same",5,1,8.602,108
"937",500821,"411007",1,1,"same",6,1,7.516,42
"938",500821,"411008",1,1,"same",NA,1,NA,106
"939",500821,"411009",1,1,"same",6,1,4.773,82
"940",500821,"411010",1,1,"same",6,1,3.152,13
"941",500821,"411011",1,1,"same",6,1,4.409,49
"942",500821,"411012",1,1,"same",6,1,6.408,61
"943",500821,"411013",1,1,"same",6,1,3.562,105
"944",500821,"411014",1,1,"same",6,1,2.868,71
"945",500821,"411015",1,1,"same",6,1,5.547,50
"946",500821,"411016",1,1,"same",6,1,5.4,51
"947",500821,"411017",1,1,"same",6,1,3.473,24
"948",500821,"411018",1,1,"same",6,1,3.537,36
"949",500821,"411019",1,1,"same",6,1,4.523,37
"950",500821,"411020",1,1,"same",3,1,8.689,97
"951",500821,"411021",1,1,"same",6,1,4.468,85
"952",500821,"411022",1,1,"same",6,1,3.113,20
"953",500821,"411023",1,1,"same",6,1,7.229,23
"954",500821,"411024",1,1,"same",6,1,4.707,76
"955",500821,"411025",1,1,"same",6,1,3.912,28
"956",500821,"411026",1,1,"same",2,1,7.74,90
"957",500821,"411027",1,1,"same",6,1,4.866,91
"958",500821,"411028",1,1,"same",6,1,4.944,6
"959",500821,"411029",1,1,"same",6,1,2.684,52
"960",500821,"411030",1,1,"same",6,1,5.888,77
"961",500906,"211001",1,1,"different",6,1,8.739,5
"962",500906,"211002",1,1,"different",6,1,4.217,29
"963",500906,"211003",1,1,"different",6,1,3.402,11
"964",500906,"211004",1,1,"different",6,1,4.31,62
"965",500906,"211005",1,1,"different",6,1,3.86,51
"966",500906,"211006",1,1,"different",6,1,6.417,82
"967",500906,"211007",1,1,"different",6,1,3.94,65
"968",500906,"211008",1,1,"different",6,1,3.761,67
"969",500906,"211009",1,1,"different",4,1,7.281,119
"970",500906,"211010",1,1,"different",6,1,4.054,64
"971",500906,"211011",1,1,"different",6,1,3.715,19
"972",500906,"211012",1,1,"different",6,1,4.327,56
"973",500906,"211013",1,1,"different",6,1,6.644,93
"974",500906,"211014",1,1,"different",6,1,3.747,40
"975",500906,"211015",1,1,"different",6,1,5.404,68
"976",500906,"211016",1,1,"different",6,1,4.711,101
"977",500906,"211017",1,1,"different",6,1,3.528,46
"978",500906,"211018",1,1,"different",6,1,4.513,74
"979",500906,"211019",1,1,"different",6,1,6.553,66
"980",500906,"211020",1,1,"different",5,1,6.819,6
"981",500906,"211021",1,1,"different",6,1,6.176,120
"982",500906,"211022",1,1,"different",6,1,3.582,24
"983",500906,"211023",1,1,"different",6,1,4.492,103
"984",500906,"211024",1,1,"different",5,1,5.484,17
"985",500906,"211025",1,1,"different",6,1,4.426,7
"986",500906,"211026",1,1,"different",6,1,3.531,72
"987",500906,"211027",1,1,"different",6,1,3.458,75
"988",500906,"211028",1,1,"different",6,1,4.109,32
"989",500906,"211029",1,1,"different",6,1,3.73,41
"990",500906,"211030",1,1,"different",6,1,4.307,55
"991",500906,"421031",1,1,"different",6,1,3.379,69
"992",500906,"421032",1,1,"different",6,1,8.046,81
"993",500906,"421033",1,1,"different",4,1,4.136,115
"994",500906,"421034",1,1,"different",5,1,3.669,16
"995",500906,"421035",1,1,"different",6,1,3.734,80
"996",500906,"421036",1,1,"different",6,1,7.177,53
"997",500906,"421037",1,1,"different",6,1,5.486,36
"998",500906,"421038",1,1,"different",6,1,3.163,73
"999",500906,"421039",1,1,"different",1,1,7.15,112
"1000",500906,"421040",1,1,"different",6,1,3.877,71
"1001",500906,"421041",1,1,"different",4,1,6.396,91
"1002",500906,"421042",1,1,"different",6,1,5.001,92
"1003",500906,"421043",1,1,"different",6,1,4.929,8
"1004",500906,"421044",1,1,"different",5,1,3.391,87
"1005",500906,"421045",1,1,"different",6,1,3.69,94
"1006",500906,"421046",1,1,"different",6,1,5.492,31
"1007",500906,"421047",1,1,"different",6,1,5.499,49
"1008",500906,"421048",1,1,"different",6,1,3.423,76
"1009",500906,"421049",1,1,"different",5,1,5.536,96
"1010",500906,"421050",1,1,"different",6,1,4.746,58
"1011",500906,"421051",1,1,"different",5,1,6.559,27
"1012",500906,"421052",1,1,"different",5,1,7.235,2
"1013",500906,"421053",1,1,"different",6,1,4.174,42
"1014",500906,"421054",1,1,"different",6,1,5.385,83
"1015",500906,"421055",1,1,"different",6,1,3.364,35
"1016",500906,"421056",1,1,"different",6,1,3.779,70
"1017",500906,"421057",1,1,"different",2,1,7.716,9
"1018",500906,"421058",1,1,"different",5,1,5.643,10
"1019",500906,"421059",1,1,"different",4,1,8.502,30
"1020",500906,"421060",1,1,"different",6,1,6.29,26
"1021",500929,"310085",1,1,"different",6,1,4.727,34
"1022",500929,"311061",1,1,"different",6,1,4.724,30
"1023",500929,"311062",1,1,"different",4,1,5.353,42
"1024",500929,"311063",1,1,"different",6,1,6.268,4
"1025",500929,"311064",1,1,"different",6,1,4.291,101
"1026",500929,"311065",1,1,"different",6,1,3.71,78
"1027",500929,"311066",1,1,"different",6,1,4.154,17
"1028",500929,"311067",1,1,"different",6,1,6.373,3
"1029",500929,"311068",1,1,"different",6,1,3.612,117
"1030",500929,"311069",1,1,"different",4,1,3.575,89
"1031",500929,"311070",1,1,"different",5,1,4.524,76
"1032",500929,"311071",1,1,"different",1,1,8.344,1
"1033",500929,"311072",1,1,"different",5,1,5.332,8
"1034",500929,"311073",1,1,"different",6,1,5.113,116
"1035",500929,"311074",1,1,"different",6,1,3.826,45
"1036",500929,"311075",1,1,"different",6,1,4.593,11
"1037",500929,"311076",1,1,"different",1,1,5.717,59
"1038",500929,"311077",1,1,"different",6,1,3.915,105
"1039",500929,"311078",1,1,"different",2,1,8.281,43
"1040",500929,"311079",1,1,"different",2,1,5.265,12
"1041",500929,"311080",1,1,"different",6,1,4.235,68
"1042",500929,"311081",1,1,"different",5,1,4.95,65
"1043",500929,"311082",1,1,"different",2,1,NA,81
"1044",500929,"311083",1,1,"different",6,1,5.073,119
"1045",500929,"311084",1,1,"different",5,1,5.673,33
"1046",500929,"311086",1,1,"different",6,1,6.337,44
"1047",500929,"311087",1,1,"different",6,1,4.312,79
"1048",500929,"311088",1,1,"different",1,1,4.421,113
"1049",500929,"311089",1,1,"different",6,1,4.575,13
"1050",500929,"311090",1,1,"different",4,1,8.246,15
"1051",500929,"521091",1,1,"different",5,1,5.921,115
"1052",500929,"521092",1,1,"different",4,1,4.325,120
"1053",500929,"521093",1,1,"different",4,1,4.974,118
"1054",500929,"521094",1,1,"different",4,1,5.184,9
"1055",500929,"521095",1,1,"different",6,1,4.339,102
"1056",500929,"521096",1,1,"different",2,1,7.875,94
"1057",500929,"521097",1,1,"different",6,1,3.876,92
"1058",500929,"521098",1,1,"different",6,1,4.005,85
"1059",500929,"521099",1,1,"different",4,1,7.164,93
"1060",500929,"521100",1,1,"different",5,1,6.767,51
"1061",500929,"521101",1,1,"different",6,1,4.114,47
"1062",500929,"521102",1,1,"different",4,1,4.711,66
"1063",500929,"521103",1,1,"different",6,1,6.409,29
"1064",500929,"521104",1,1,"different",4,1,3.995,99
"1065",500929,"521105",1,1,"different",1,1,6.456,41
"1066",500929,"521106",1,1,"different",6,1,4.96,18
"1067",500929,"521107",1,1,"different",6,1,9.422,22
"1068",500929,"521108",1,1,"different",1,1,5.158,24
"1069",500929,"521109",1,1,"different",4,1,5.517,37
"1070",500929,"521110",1,1,"different",6,1,4.342,5
"1071",500929,"521111",1,1,"different",5,1,5.924,46
"1072",500929,"521112",1,1,"different",6,1,4.393,38
"1073",500929,"521113",1,1,"different",5,1,5.177,31
"1074",500929,"521114",1,1,"different",4,1,6.285,111
"1075",500929,"521115",1,1,"different",6,1,4.344,86
"1076",500929,"521116",1,1,"different",6,1,3.667,91
"1077",500929,"521117",1,1,"different",6,1,5.135,103
"1078",500929,"521118",1,1,"different",6,1,5.377,75
"1079",500929,"521119",1,1,"different",5,1,6.019,14
"1080",500929,"521120",1,1,"different",5,1,8.881,10
"1081",500930,"321091",1,1,"same",1,1,4.675,94
"1082",500930,"321092",1,1,"same",4,1,4.659,8
"1083",500930,"321093",1,1,"same",5,1,3.051,114
"1084",500930,"321094",1,1,"same",2,1,2.902,108
"1085",500930,"321095",1,1,"same",4,1,4.361,77
"1086",500930,"321096",1,1,"same",4,1,3.74,100
"1087",500930,"321097",1,1,"same",5,1,4.584,24
"1088",500930,"321098",1,1,"same",4,1,3.345,97
"1089",500930,"321099",1,1,"same",3,1,3.798,26
"1090",500930,"321100",1,1,"same",4,1,7.189,87
"1091",500930,"321101",1,1,"same",5,1,2.53,71
"1092",500930,"321102",1,1,"same",4,1,3.012,113
"1093",500930,"321103",1,1,"same",3,1,5.661,34
"1094",500930,"321104",1,1,"same",6,1,6.362,6
"1095",500930,"321105",1,1,"same",4,1,3.237,72
"1096",500930,"321106",1,1,"same",5,1,3.439,84
"1097",500930,"321107",1,1,"same",6,1,3.253,33
"1098",500930,"321108",1,1,"same",4,1,1.99,42
"1099",500930,"321109",1,1,"same",3,1,2.335,82
"1100",500930,"321110",1,1,"same",3,1,4.732,45
"1101",500930,"321111",1,1,"same",5,1,2.569,103
"1102",500930,"321112",1,1,"same",3,1,2.668,119
"1103",500930,"321113",1,1,"same",4,1,2.899,92
"1104",500930,"321114",1,1,"same",3,1,4.078,41
"1105",500930,"321115",1,1,"same",5,1,2.957,104
"1106",500930,"321116",1,1,"same",3,1,2.784,118
"1107",500930,"321117",1,1,"same",5,1,3.113,76
"1108",500930,"321118",1,1,"same",6,1,2.973,57
"1109",500930,"321119",1,1,"same",4,1,4.09,59
"1110",500930,"321120",1,1,"same",2,1,4.913,101
"1111",500930,"511061",1,1,"same",4,1,3.689,106
"1112",500930,"511062",1,1,"same",6,1,2.574,69
"1113",500930,"511063",1,1,"same",4,1,2.454,98
"1114",500930,"511064",1,1,"same",4,1,3.712,110
"1115",500930,"511065",1,1,"same",6,1,2.301,67
"1116",500930,"511066",1,1,"same",6,1,4.502,39
"1117",500930,"511067",1,1,"same",5,1,3.775,86
"1118",500930,"511068",1,1,"same",4,1,3.74,38
"1119",500930,"511069",1,1,"same",5,1,1.819,70
"1120",500930,"511070",1,1,"same",5,1,3.258,79
"1121",500930,"511071",1,1,"same",5,1,6.661,109
"1122",500930,"511072",1,1,"same",3,1,5.913,36
"1123",500930,"511073",1,1,"same",6,1,4.797,4
"1124",500930,"511074",1,1,"same",3,1,2.737,23
"1125",500930,"511075",1,1,"same",5,1,2.645,93
"1126",500930,"511076",1,1,"same",5,1,2.605,91
"1127",500930,"511077",1,1,"same",5,1,2.65,75
"1128",500930,"511078",1,1,"same",3,1,3.081,40
"1129",500930,"511079",1,1,"same",3,1,2.961,11
"1130",500930,"511080",1,1,"same",4,1,5.696,18
"1131",500930,"511081",1,1,"same",3,1,3.114,14
"1132",500930,"511082",1,1,"same",NA,1,NA,9
"1133",500930,"511083",1,1,"same",3,1,4.603,22
"1134",500930,"511084",1,1,"same",2,1,4.583,35
"1135",500930,"511085",1,1,"same",5,1,7.627,44
"1136",500930,"511086",1,1,"same",3,1,6.416,37
"1137",500930,"511087",1,1,"same",2,1,4.302,25
"1138",500930,"511088",1,1,"same",6,1,2.733,65
"1139",500930,"511089",1,1,"same",4,1,6.385,51
"1140",500930,"511090",1,1,"same",3,1,4.013,48
"1141",500940,"221031",1,1,"different",5,1,3.86,49
"1142",500940,"221032",1,1,"different",6,1,4.323,47
"1143",500940,"221033",1,1,"different",2,1,2.45,46
"1144",500940,"221034",1,1,"different",2,1,2.685,59
"1145",500940,"221035",1,1,"different",3,1,5.496,71
"1146",500940,"221036",1,1,"different",3,1,5.444,60
"1147",500940,"221037",1,1,"different",3,1,NA,21
"1148",500940,"221038",1,1,"different",4,1,3.912,56
"1149",500940,"221039",1,1,"different",2,1,4.308,31
"1150",500940,"221040",1,1,"different",3,1,4.261,33
"1151",500940,"221041",1,1,"different",5,1,3.914,55
"1152",500940,"221042",1,1,"different",3,1,NA,84
"1153",500940,"221043",1,1,"different",5,1,3.478,94
"1154",500940,"221044",1,1,"different",2,1,2.442,110
"1155",500940,"221045",1,1,"different",3,1,3.126,119
"1156",500940,"221046",1,1,"different",4,1,4.179,73
"1157",500940,"221047",1,1,"different",1,1,7.69,15
"1158",500940,"221048",1,1,"different",3,1,7.799,2
"1159",500940,"221049",1,1,"different",4,1,2.849,83
"1160",500940,"221050",1,1,"different",3,1,6.638,20
"1161",500940,"221051",1,1,"different",5,1,2.238,98
"1162",500940,"221052",1,1,"different",2,1,5.068,115
"1163",500940,"221053",1,1,"different",4,1,2.554,81
"1164",500940,"221054",1,1,"different",2,1,7.043,16
"1165",500940,"221055",1,1,"different",5,1,4.978,48
"1166",500940,"221056",1,1,"different",3,1,4.732,93
"1167",500940,"221057",1,1,"different",4,1,6.377,63
"1168",500940,"221058",1,1,"different",3,1,2.756,107
"1169",500940,"221059",1,1,"different",3,1,7.675,118
"1170",500940,"221060",1,1,"different",6,1,2.822,6
"1171",500940,"411001",1,1,"different",5,1,4.146,79
"1172",500940,"411002",1,1,"different",5,1,4.363,50
"1173",500940,"411003",1,1,"different",4,1,9.228,19
"1174",500940,"411004",1,1,"different",4,1,5.46,76
"1175",500940,"411005",1,1,"different",2,1,2.558,65
"1176",500940,"411006",1,1,"different",1,1,5.732,75
"1177",500940,"411007",1,1,"different",5,1,6.452,85
"1178",500940,"411008",1,1,"different",4,1,5.75,102
"1179",500940,"411009",1,1,"different",1,1,2.564,112
"1180",500940,"411010",1,1,"different",2,1,5.116,53
"1181",500940,"411011",1,1,"different",5,1,4.97,90
"1182",500940,"411012",1,1,"different",4,1,6.412,114
"1183",500940,"411013",1,1,"different",3,1,8.567,13
"1184",500940,"411014",1,1,"different",5,1,2.726,41
"1185",500940,"411015",1,1,"different",3,1,7.573,38
"1186",500940,"411016",1,1,"different",3,1,4.017,54
"1187",500940,"411017",1,1,"different",4,1,8.074,24
"1188",500940,"411018",1,1,"different",5,1,5.133,69
"1189",500940,"411019",1,1,"different",3,1,6.948,77
"1190",500940,"411020",1,1,"different",3,1,5.202,27
"1191",500940,"411021",1,1,"different",4,1,6.217,87
"1192",500940,"411022",1,1,"different",5,1,3.139,28
"1193",500940,"411023",1,1,"different",5,1,7.404,80
"1194",500940,"411024",1,1,"different",3,1,3.999,91
"1195",500940,"411025",1,1,"different",5,1,6.976,30
"1196",500940,"411026",1,1,"different",4,1,7.745,1
"1197",500940,"411027",1,1,"different",2,1,3.439,29
"1198",500940,"411028",1,1,"different",2,1,2.554,43
"1199",500940,"411029",1,1,"different",3,1,4.487,44
"1200",500940,"411030",1,1,"different",3,1,NA,12
"1201",500945,"221031",1,1,"same",1,1,5.854,65
"1202",500945,"221032",1,1,"same",5,1,4.108,15
"1203",500945,"221033",1,1,"same",2,1,2.63,49
"1204",500945,"221034",1,1,"same",4,1,3.262,72
"1205",500945,"221035",1,1,"same",2,1,2.571,63
"1206",500945,"221036",1,1,"same",6,1,5.169,101
"1207",500945,"221037",1,1,"same",1,1,5.167,38
"1208",500945,"221038",1,1,"same",4,1,7.952,116
"1209",500945,"221039",1,1,"same",2,1,3.892,67
"1210",500945,"221040",1,1,"same",3,1,7.689,25
"1211",500945,"221041",1,1,"same",2,1,6.343,66
"1212",500945,"221042",1,1,"same",4,1,6.451,99
"1213",500945,"221043",1,1,"same",5,1,6.129,100
"1214",500945,"221044",1,1,"same",4,1,2.712,79
"1215",500945,"221045",1,1,"same",3,1,4.535,26
"1216",500945,"221046",1,1,"same",6,1,6.706,6
"1217",500945,"221047",1,1,"same",4,1,3.064,62
"1218",500945,"221048",1,1,"same",3,1,5.466,24
"1219",500945,"221049",1,1,"same",6,1,4.338,69
"1220",500945,"221050",1,1,"same",4,1,3.708,90
"1221",500945,"221051",1,1,"same",5,1,3.741,50
"1222",500945,"221052",1,1,"same",6,1,5.502,4
"1223",500945,"221053",1,1,"same",2,1,3.393,59
"1224",500945,"221054",1,1,"same",6,1,4.421,53
"1225",500945,"221055",1,1,"same",4,1,4.788,87
"1226",500945,"221056",1,1,"same",6,1,3.757,73
"1227",500945,"221057",1,1,"same",3,1,7.355,60
"1228",500945,"221058",1,1,"same",4,1,4.013,61
"1229",500945,"221059",1,1,"same",1,1,3.064,107
"1230",500945,"221060",1,1,"same",6,1,3.349,86
"1231",500945,"411001",1,1,"same",2,1,3.981,55
"1232",500945,"411002",1,1,"same",6,1,3.499,115
"1233",500945,"411003",1,1,"same",3,1,4.257,102
"1234",500945,"411004",1,1,"same",5,1,3.201,120
"1235",500945,"411005",1,1,"same",1,1,3.823,36
"1236",500945,"411006",1,1,"same",5,1,8.887,117
"1237",500945,"411007",1,1,"same",2,1,4.213,109
"1238",500945,"411008",1,1,"same",4,1,5.258,68
"1239",500945,"411009",1,1,"same",3,1,5.932,40
"1240",500945,"411010",1,1,"same",6,1,6.873,2
"1241",500945,"411011",1,1,"same",2,1,3.797,88
"1242",500945,"411012",1,1,"same",2,1,4.586,95
"1243",500945,"411013",1,1,"same",4,1,4.012,19
"1244",500945,"411014",1,1,"same",4,1,6.22,94
"1245",500945,"411015",1,1,"same",2,1,4.793,48
"1246",500945,"411016",1,1,"same",5,1,8.763,103
"1247",500945,"411017",1,1,"same",6,1,3.841,13
"1248",500945,"411018",1,1,"same",2,1,2.748,76
"1249",500945,"411019",1,1,"same",4,1,4.572,104
"1250",500945,"411020",1,1,"same",2,1,4.294,54
"1251",500945,"411021",1,1,"same",3,1,3.725,77
"1252",500945,"411022",1,1,"same",6,1,3.46,14
"1253",500945,"411023",1,1,"same",4,1,7.046,118
"1254",500945,"411024",1,1,"same",3,1,4.079,75
"1255",500945,"411025",1,1,"same",5,1,3.08,81
"1256",500945,"411026",1,1,"same",5,1,4.046,47
"1257",500945,"411027",1,1,"same",2,1,5.697,16
"1258",500945,"411028",1,1,"same",5,1,3.234,70
"1259",500945,"411029",1,1,"same",5,1,NA,45
"1260",500945,"411030",1,1,"same",2,1,4.18,46
"1261",501023,"211001",1,1,"different",4,1,7.78,75
"1262",501023,"211002",1,1,"different",6,1,4.726,54
"1263",501023,"211003",1,1,"different",6,1,4.794,58
"1264",501023,"211004",1,1,"different",6,1,5.341,12
"1265",501023,"211005",1,1,"different",5,1,NA,29
"1266",501023,"211006",1,1,"different",6,1,5.425,15
"1267",501023,"211007",1,1,"different",1,1,5.427,96
"1268",501023,"211008",1,1,"different",6,1,7.788,9
"1269",501023,"211009",1,1,"different",6,1,8.011,35
"1270",501023,"211010",1,1,"different",1,1,6.524,84
"1271",501023,"211011",1,1,"different",1,1,7.924,74
"1272",501023,"211012",1,1,"different",1,1,5.846,101
"1273",501023,"211013",1,1,"different",3,1,4.892,93
"1274",501023,"211014",1,1,"different",3,1,4.476,118
"1275",501023,"211015",1,1,"different",3,1,8.873,57
"1276",501023,"211016",1,1,"different",1,1,5.114,109
"1277",501023,"211017",1,1,"different",2,1,8.689,104
"1278",501023,"211018",1,1,"different",4,1,7.896,107
"1279",501023,"211019",1,1,"different",5,1,5.081,108
"1280",501023,"211020",1,1,"different",2,1,7.994,21
"1281",501023,"211021",1,1,"different",2,1,8.805,106
"1282",501023,"211022",1,1,"different",5,1,5.259,34
"1283",501023,"211023",1,1,"different",3,1,5.681,103
"1284",501023,"211024",1,1,"different",6,1,5.374,24
"1285",501023,"211025",1,1,"different",5,1,4.478,60
"1286",501023,"211026",1,1,"different",3,1,5.147,77
"1287",501023,"211027",1,1,"different",1,1,6.09,79
"1288",501023,"211028",1,1,"different",5,1,7.679,55
"1289",501023,"211029",1,1,"different",1,1,5.925,38
"1290",501023,"211030",1,1,"different",3,1,NA,83
"1291",501023,"421031",1,1,"different",6,1,4.656,114
"1292",501023,"421032",1,1,"different",5,1,4.077,95
"1293",501023,"421033",1,1,"different",3,1,6.075,70
"1294",501023,"421034",1,1,"different",1,1,3.693,80
"1295",501023,"421035",1,1,"different",1,1,5.206,112
"1296",501023,"421036",1,1,"different",1,1,8.572,111
"1297",501023,"421037",1,1,"different",1,1,7.855,17
"1298",501023,"421038",1,1,"different",4,1,8.326,14
"1299",501023,"421039",1,1,"different",1,1,5.148,2
"1300",501023,"421040",1,1,"different",3,1,5.273,81
"1301",501023,"421041",1,1,"different",1,1,3.893,102
"1302",501023,"421042",1,1,"different",1,1,5.171,16
"1303",501023,"421043",1,1,"different",5,1,6.475,49
"1304",501023,"421044",1,1,"different",1,1,5.421,23
"1305",501023,"421045",1,1,"different",5,1,NA,3
"1306",501023,"421046",1,1,"different",3,1,4.741,82
"1307",501023,"421047",1,1,"different",3,1,5.308,68
"1308",501023,"421048",1,1,"different",1,1,5.812,76
"1309",501023,"421049",1,1,"different",3,1,8.604,85
"1310",501023,"421050",1,1,"different",6,1,8.089,50
"1311",501023,"421051",1,1,"different",1,1,5.094,88
"1312",501023,"421052",1,1,"different",1,1,5.343,61
"1313",501023,"421053",1,1,"different",3,1,4.692,72
"1314",501023,"421054",1,1,"different",4,1,6.792,43
"1315",501023,"421055",1,1,"different",1,1,6.115,45
"1316",501023,"421056",1,1,"different",6,1,4.591,20
"1317",501023,"421057",1,1,"different",1,1,6.341,64
"1318",501023,"421058",1,1,"different",1,1,7.363,36
"1319",501023,"421059",1,1,"different",1,1,4.591,31
"1320",501023,"421060",1,1,"different",3,1,8.638,90
"1321",501033,"211001",1,1,"same",4,1,5.726,50
"1322",501033,"211002",1,1,"same",4,1,6.601,64
"1323",501033,"211003",1,1,"same",3,1,7.114,10
"1324",501033,"211004",1,1,"same",5,1,6.72,52
"1325",501033,"211005",1,1,"same",5,1,NA,33
"1326",501033,"211006",1,1,"same",4,1,6.193,86
"1327",501033,"211007",1,1,"same",5,1,7.454,91
"1328",501033,"211008",1,1,"same",3,1,5.292,9
"1329",501033,"211009",1,1,"same",NA,1,NA,100
"1330",501033,"211010",1,1,"same",5,1,4.705,71
"1331",501033,"211011",1,1,"same",4,1,7.183,12
"1332",501033,"211012",1,1,"same",5,1,7.521,22
"1333",501033,"211013",1,1,"same",6,1,5.893,48
"1334",501033,"211014",1,1,"same",2,1,6.281,84
"1335",501033,"211015",1,1,"same",4,1,7.649,29
"1336",501033,"211016",1,1,"same",4,1,5.354,107
"1337",501033,"211017",1,1,"same",5,1,4.605,69
"1338",501033,"211018",1,1,"same",3,1,5.42,120
"1339",501033,"211019",1,1,"same",5,1,138.602,115
"1340",501033,"211020",1,1,"same",4,1,7.886,16
"1341",501033,"211021",1,1,"same",5,1,4.513,109
"1342",501033,"211022",1,1,"same",3,1,4.537,60
"1343",501033,"211023",1,1,"same",4,1,9.379,73
"1344",501033,"211024",1,1,"same",1,1,6.511,82
"1345",501033,"211025",1,1,"same",6,1,5.209,47
"1346",501033,"211026",1,1,"same",4,1,6.014,92
"1347",501033,"211027",1,1,"same",5,1,4.888,89
"1348",501033,"211028",1,1,"same",6,1,4.575,102
"1349",501033,"211029",1,1,"same",2,1,7.912,15
"1350",501033,"211030",1,1,"same",6,1,NA,3
"1351",501033,"421031",1,1,"same",5,1,5.747,79
"1352",501033,"421032",1,1,"same",5,1,4.753,26
"1353",501033,"421033",1,1,"same",5,1,4.677,70
"1354",501033,"421034",1,1,"same",4,1,4.238,59
"1355",501033,"421035",1,1,"same",2,1,5.465,116
"1356",501033,"421036",1,1,"same",3,1,NA,57
"1357",501033,"421037",1,1,"same",5,1,NA,6
"1358",501033,"421038",1,1,"same",5,1,4.907,119
"1359",501033,"421039",1,1,"same",3,1,4.579,80
"1360",501033,"421040",1,1,"same",NA,1,NA,11
"1361",501033,"421041",1,1,"same",4,1,6.43,67
"1362",501033,"421042",1,1,"same",4,1,NA,4
"1363",501033,"421043",1,1,"same",4,1,7.183,75
"1364",501033,"421044",1,1,"same",2,1,4.282,25
"1365",501033,"421045",1,1,"same",5,1,4.929,94
"1366",501033,"421046",1,1,"same",5,1,5.749,111
"1367",501033,"421047",1,1,"same",5,1,5.045,56
"1368",501033,"421048",1,1,"same",2,1,7.347,68
"1369",501033,"421049",1,1,"same",4,1,4.636,97
"1370",501033,"421050",1,1,"same",3,1,8.981,110
"1371",501033,"421051",1,1,"same",1,1,4.877,81
"1372",501033,"421052",1,1,"same",3,1,5.613,49
"1373",501033,"421053",1,1,"same",4,1,7.432,106
"1374",501033,"421054",1,1,"same",3,1,8.329,27
"1375",501033,"421055",1,1,"same",5,1,5.308,54
"1376",501033,"421056",1,1,"same",5,1,7.37,44
"1377",501033,"421057",1,1,"same",NA,1,NA,31
"1378",501033,"421058",1,1,"same",2,1,8.629,65
"1379",501033,"421059",1,1,"same",2,1,6.117,34
"1380",501033,"421060",1,1,"same",5,1,8.939,23
"1381",501104,"310085",1,1,"same",6,1,6.708,26
"1382",501104,"311061",1,1,"same",6,1,6.268,8
"1383",501104,"311062",1,1,"same",6,1,4.405,47
"1384",501104,"311063",1,1,"same",6,1,6.108,106
"1385",501104,"311064",1,1,"same",6,1,3.848,69
"1386",501104,"311065",1,1,"same",6,1,2.86,87
"1387",501104,"311066",1,1,"same",6,1,3.757,71
"1388",501104,"311067",1,1,"same",6,1,4.297,59
"1389",501104,"311068",1,1,"same",6,1,3.453,75
"1390",501104,"311069",1,1,"same",6,1,3.881,32
"1391",501104,"311070",1,1,"same",6,1,3.085,117
"1392",501104,"311071",1,1,"same",6,1,6.029,44
"1393",501104,"311072",1,1,"same",6,1,4.706,74
"1394",501104,"311073",1,1,"same",1,1,6.287,96
"1395",501104,"311074",1,1,"same",6,1,2.797,105
"1396",501104,"311075",1,1,"same",1,1,2.689,63
"1397",501104,"311076",1,1,"same",6,1,3.766,21
"1398",501104,"311077",1,1,"same",6,1,4.125,82
"1399",501104,"311078",1,1,"same",6,1,5.652,7
"1400",501104,"311079",1,1,"same",6,1,3.307,85
"1401",501104,"311080",1,1,"same",6,1,4.75,17
"1402",501104,"311081",1,1,"same",6,1,3.804,89
"1403",501104,"311082",1,1,"same",6,1,4.304,83
"1404",501104,"311083",1,1,"same",3,1,3.985,43
"1405",501104,"311084",1,1,"same",1,1,3.111,95
"1406",501104,"311086",1,1,"same",6,1,4.562,31
"1407",501104,"311087",1,1,"same",6,1,3.66,12
"1408",501104,"311088",1,1,"same",1,1,3.318,49
"1409",501104,"311089",1,1,"same",6,1,4.164,113
"1410",501104,"311090",1,1,"same",3,1,5.585,52
"1411",501104,"521091",1,1,"same",1,1,5.029,57
"1412",501104,"521092",1,1,"same",1,1,5.594,104
"1413",501104,"521093",1,1,"same",1,1,3.846,110
"1414",501104,"521094",1,1,"same",6,1,5.622,92
"1415",501104,"521095",1,1,"same",1,1,6.079,9
"1416",501104,"521096",1,1,"same",1,1,5.318,5
"1417",501104,"521097",1,1,"same",6,1,4.405,38
"1418",501104,"521098",1,1,"same",1,1,4.933,58
"1419",501104,"521099",1,1,"same",6,1,3.116,41
"1420",501104,"521100",1,1,"same",6,1,2.933,107
"1421",501104,"521101",1,1,"same",1,1,3.082,15
"1422",501104,"521102",1,1,"same",1,1,5.673,68
"1423",501104,"521103",1,1,"same",1,1,2.553,84
"1424",501104,"521104",1,1,"same",6,1,2.375,11
"1425",501104,"521105",1,1,"same",1,1,4,39
"1426",501104,"521106",1,1,"same",6,1,3.535,108
"1427",501104,"521107",1,1,"same",6,1,2.511,76
"1428",501104,"521108",1,1,"same",6,1,4.578,40
"1429",501104,"521109",1,1,"same",1,1,3.895,51
"1430",501104,"521110",1,1,"same",1,1,4.747,50
"1431",501104,"521111",1,1,"same",1,1,3.493,28
"1432",501104,"521112",1,1,"same",6,1,3.667,101
"1433",501104,"521113",1,1,"same",6,1,2.874,119
"1434",501104,"521114",1,1,"same",1,1,3.614,102
"1435",501104,"521115",1,1,"same",6,1,3.453,53
"1436",501104,"521116",1,1,"same",1,1,3.553,94
"1437",501104,"521117",1,1,"same",1,1,5.564,30
"1438",501104,"521118",1,1,"same",6,1,3.914,20
"1439",501104,"521119",1,1,"same",1,1,7.089,18
"1440",501104,"521120",1,1,"same",6,1,3.304,90
"1441",501146,"321091",1,1,"same",4,1,8.138,109
"1442",501146,"321092",1,1,"same",5,1,3.461,97
"1443",501146,"321093",1,1,"same",1,1,3.209,102
"1444",501146,"321094",1,1,"same",4,1,3.621,78
"1445",501146,"321095",1,1,"same",1,1,2.349,44
"1446",501146,"321096",1,1,"same",6,1,4.494,41
"1447",501146,"321097",1,1,"same",3,1,8.477,85
"1448",501146,"321098",1,1,"same",5,1,3.636,16
"1449",501146,"321099",1,1,"same",4,1,5.402,4
"1450",501146,"321100",1,1,"same",6,1,3.96,8
"1451",501146,"321101",1,1,"same",2,1,9.074,77
"1452",501146,"321102",1,1,"same",6,1,3.858,43
"1453",501146,"321103",1,1,"same",6,1,3.98,73
"1454",501146,"321104",1,1,"same",4,1,8.242,38
"1455",501146,"321105",1,1,"same",6,1,4.378,29
"1456",501146,"321106",1,1,"same",4,1,8.267,116
"1457",501146,"321107",1,1,"same",5,1,7.417,53
"1458",501146,"321108",1,1,"same",2,1,8.936,76
"1459",501146,"321109",1,1,"same",1,1,6.237,37
"1460",501146,"321110",1,1,"same",1,1,9.229,93
"1461",501146,"321111",1,1,"same",6,1,4.085,32
"1462",501146,"321112",1,1,"same",6,1,3.716,9
"1463",501146,"321113",1,1,"same",6,1,7.323,3
"1464",501146,"321114",1,1,"same",6,1,4.423,120
"1465",501146,"321115",1,1,"same",1,1,5.531,59
"1466",501146,"321116",1,1,"same",2,1,7.234,2
"1467",501146,"321117",1,1,"same",1,1,4.728,79
"1468",501146,"321118",1,1,"same",2,1,5.266,98
"1469",501146,"321119",1,1,"same",4,1,7.131,67
"1470",501146,"321120",1,1,"same",4,1,8.696,118
"1471",501146,"511061",1,1,"same",3,1,5.563,18
"1472",501146,"511062",1,1,"same",2,1,6.503,54
"1473",501146,"511063",1,1,"same",2,1,4.301,117
"1474",501146,"511064",1,1,"same",5,1,3.446,33
"1475",501146,"511065",1,1,"same",4,1,6.879,42
"1476",501146,"511066",1,1,"same",5,1,6.743,65
"1477",501146,"511067",1,1,"same",6,1,5.583,62
"1478",501146,"511068",1,1,"same",3,1,3.097,46
"1479",501146,"511069",1,1,"same",6,1,7.861,84
"1480",501146,"511070",1,1,"same",5,1,5.504,88
"1481",501146,"511071",1,1,"same",1,1,7.109,106
"1482",501146,"511072",1,1,"same",4,1,NA,14
"1483",501146,"511073",1,1,"same",2,1,6.435,20
"1484",501146,"511074",1,1,"same",3,1,5.419,63
"1485",501146,"511075",1,1,"same",1,1,3.43,50
"1486",501146,"511076",1,1,"same",4,1,4.176,23
"1487",501146,"511077",1,1,"same",1,1,6.373,60
"1488",501146,"511078",1,1,"same",2,1,7.47,17
"1489",501146,"511079",1,1,"same",4,1,3.269,45
"1490",501146,"511080",1,1,"same",4,1,4.443,82
"1491",501146,"511081",1,1,"same",4,1,3.729,112
"1492",501146,"511082",1,1,"same",6,1,4.431,55
"1493",501146,"511083",1,1,"same",3,1,6.473,7
"1494",501146,"511084",1,1,"same",3,1,5.614,13
"1495",501146,"511085",1,1,"same",1,1,5.729,40
"1496",501146,"511086",1,1,"same",2,1,6.051,19
"1497",501146,"511087",1,1,"same",3,1,7.708,31
"1498",501146,"511088",1,1,"same",4,1,7.137,47
"1499",501146,"511089",1,1,"same",3,1,7.142,71
"1500",501146,"511090",1,1,"same",5,1,7.43,68
"1501",501287,"321091",1,1,"different",5,1,6.559,13
"1502",501287,"321092",1,1,"different",3,1,3.831,71
"1503",501287,"321093",1,1,"different",2,1,9.488,14
"1504",501287,"321094",1,1,"different",2,1,5.607,10
"1505",501287,"321095",1,1,"different",6,1,7.463,21
"1506",501287,"321096",1,1,"different",5,1,5.978,112
"1507",501287,"321097",1,1,"different",2,1,4.65,15
"1508",501287,"321098",1,1,"different",NA,1,NA,2
"1509",501287,"321099",1,1,"different",5,1,4.127,48
"1510",501287,"321100",1,1,"different",5,1,3.653,100
"1511",501287,"321101",1,1,"different",5,1,4.881,23
"1512",501287,"321102",1,1,"different",2,1,4.032,82
"1513",501287,"321103",1,1,"different",3,1,7.181,1
"1514",501287,"321104",1,1,"different",5,1,4.871,59
"1515",501287,"321105",1,1,"different",2,1,4.81,18
"1516",501287,"321106",1,1,"different",2,1,4.761,44
"1517",501287,"321107",1,1,"different",3,1,6.813,5
"1518",501287,"321108",1,1,"different",5,1,5.437,41
"1519",501287,"321109",1,1,"different",5,1,6.968,3
"1520",501287,"321110",1,1,"different",3,1,6.07,78
"1521",501287,"321111",1,1,"different",4,1,7.17,91
"1522",501287,"321112",1,1,"different",5,1,4.626,37
"1523",501287,"321113",1,1,"different",5,1,3.588,74
"1524",501287,"321114",1,1,"different",6,1,4.581,72
"1525",501287,"321115",1,1,"different",5,1,4.345,96
"1526",501287,"321116",1,1,"different",5,1,2.929,49
"1527",501287,"321117",1,1,"different",NA,1,NA,61
"1528",501287,"321118",1,1,"different",5,1,3.621,26
"1529",501287,"321119",1,1,"different",5,1,4.795,97
"1530",501287,"321120",1,1,"different",3,1,5.927,19
"1531",501287,"511061",1,1,"different",4,1,4.844,29
"1532",501287,"511062",1,1,"different",5,1,6.078,6
"1533",501287,"511063",1,1,"different",4,1,3.142,84
"1534",501287,"511064",1,1,"different",2,1,7.96,7
"1535",501287,"511065",1,1,"different",2,1,7.61,8
"1536",501287,"511066",1,1,"different",5,1,3.693,92
"1537",501287,"511067",1,1,"different",2,1,5.644,16
"1538",501287,"511068",1,1,"different",5,1,3.685,43
"1539",501287,"511069",1,1,"different",2,1,5.806,94
"1540",501287,"511070",1,1,"different",5,1,3.35,109
"1541",501287,"511071",1,1,"different",4,1,4.145,116
"1542",501287,"511072",1,1,"different",3,1,4.616,110
"1543",501287,"511073",1,1,"different",5,1,5.253,51
"1544",501287,"511074",1,1,"different",6,1,3.676,115
"1545",501287,"511075",1,1,"different",5,1,3.125,68
"1546",501287,"511076",1,1,"different",6,1,3.76,85
"1547",501287,"511077",1,1,"different",5,1,6.345,104
"1548",501287,"511078",1,1,"different",2,1,4.439,65
"1549",501287,"511079",1,1,"different",5,1,4.888,33
"1550",501287,"511080",1,1,"different",2,1,4.304,12
"1551",501287,"511081",1,1,"different",5,1,6.311,114
"1552",501287,"511082",1,1,"different",3,1,7.95,101
"1553",501287,"511083",1,1,"different",2,1,3.908,105
"1554",501287,"511084",1,1,"different",5,1,5.215,30
"1555",501287,"511085",1,1,"different",5,1,6.349,63
"1556",501287,"511086",1,1,"different",5,1,4.367,95
"1557",501287,"511087",1,1,"different",2,1,8.745,36
"1558",501287,"511088",1,1,"different",5,1,4.181,93
"1559",501287,"511089",1,1,"different",1,1,6.437,81
"1560",501287,"511090",1,1,"different",5,1,4.445,64
"1561",501314,"310085",1,1,"different",6,1,5.104,79
"1562",501314,"311061",1,1,"different",6,1,5.772,42
"1563",501314,"311062",1,1,"different",2,1,3.355,25
"1564",501314,"311063",1,1,"different",5,1,3.722,10
"1565",501314,"311064",1,1,"different",4,1,3.955,17
"1566",501314,"311065",1,1,"different",6,1,3.155,41
"1567",501314,"311066",1,1,"different",6,1,3.088,34
"1568",501314,"311067",1,1,"different",6,1,3.737,67
"1569",501314,"311068",1,1,"different",6,1,3.971,117
"1570",501314,"311069",1,1,"different",6,1,2.921,13
"1571",501314,"311070",1,1,"different",3,1,4.171,80
"1572",501314,"311071",1,1,"different",6,1,3.271,119
"1573",501314,"311072",1,1,"different",4,1,6.471,63
"1574",501314,"311073",1,1,"different",3,1,4.971,93
"1575",501314,"311074",1,1,"different",6,1,5.254,102
"1576",501314,"311075",1,1,"different",6,1,3.853,7
"1577",501314,"311076",1,1,"different",4,1,5.055,99
"1578",501314,"311077",1,1,"different",1,1,3.237,73
"1579",501314,"311078",1,1,"different",6,1,5.788,114
"1580",501314,"311079",1,1,"different",6,1,4.138,96
"1581",501314,"311080",1,1,"different",5,1,6.57,52
"1582",501314,"311081",1,1,"different",3,1,3.07,37
"1583",501314,"311082",1,1,"different",3,1,6.438,4
"1584",501314,"311083",1,1,"different",4,1,3.772,107
"1585",501314,"311084",1,1,"different",2,1,3.137,74
"1586",501314,"311086",1,1,"different",2,1,4.871,65
"1587",501314,"311087",1,1,"different",6,1,2.454,118
"1588",501314,"311088",1,1,"different",6,1,4.087,50
"1589",501314,"311089",1,1,"different",6,1,5.071,68
"1590",501314,"311090",1,1,"different",3,1,6.938,53
"1591",501314,"521091",1,1,"different",6,1,5.853,14
"1592",501314,"521092",1,1,"different",6,1,3.737,35
"1593",501314,"521093",1,1,"different",5,1,5.222,92
"1594",501314,"521094",1,1,"different",6,1,3.938,49
"1595",501314,"521095",1,1,"different",1,1,5.537,82
"1596",501314,"521096",1,1,"different",3,1,5.105,44
"1597",501314,"521097",1,1,"different",3,1,4.387,59
"1598",501314,"521098",1,1,"different",4,1,4.421,8
"1599",501314,"521099",1,1,"different",6,1,3.788,110
"1600",501314,"521100",1,1,"different",6,1,5.872,81
"1601",501314,"521101",1,1,"different",6,1,3.772,84
"1602",501314,"521102",1,1,"different",6,1,4.721,87
"1603",501314,"521103",1,1,"different",1,1,3.971,83
"1604",501314,"521104",1,1,"different",6,1,7.237,105
"1605",501314,"521105",1,1,"different",4,1,4.254,66
"1606",501314,"521106",1,1,"different",NA,1,NA,1
"1607",501314,"521107",1,1,"different",3,1,5.204,60
"1608",501314,"521108",1,1,"different",3,1,4.387,16
"1609",501314,"521109",1,1,"different",6,1,3.954,64
"1610",501314,"521110",1,1,"different",3,1,4.989,56
"1611",501314,"521111",1,1,"different",6,1,4.72,88
"1612",501314,"521112",1,1,"different",6,1,4.854,31
"1613",501314,"521113",1,1,"different",6,1,3.554,21
"1614",501314,"521114",1,1,"different",6,1,4.521,89
"1615",501314,"521115",1,1,"different",6,1,8.521,76
"1616",501314,"521116",1,1,"different",4,1,6.204,3
"1617",501314,"521117",1,1,"different",4,1,7.205,77
"1618",501314,"521118",1,1,"different",6,1,5.871,55
"1619",501314,"521119",1,1,"different",3,1,5.438,101
"1620",501314,"521120",1,1,"different",NA,1,NA,57
"1621",501507,"211001",1,1,"same",6,1,2.951,34
"1622",501507,"211002",1,1,"same",6,1,7.684,26
"1623",501507,"211003",1,1,"same",6,1,3.948,35
"1624",501507,"211004",1,1,"same",5,1,4.594,116
"1625",501507,"211005",1,1,"same",1,1,6.405,111
"1626",501507,"211006",1,1,"same",6,1,9.062,17
"1627",501507,"211007",1,1,"same",NA,1,NA,8
"1628",501507,"211008",1,1,"same",6,1,5.214,85
"1629",501507,"211009",1,1,"same",6,1,6.291,73
"1630",501507,"211010",1,1,"same",4,1,7.233,103
"1631",501507,"211011",1,1,"same",6,1,8.189,4
"1632",501507,"211012",1,1,"same",6,1,5.278,70
"1633",501507,"211013",1,1,"same",3,1,NA,57
"1634",501507,"211014",1,1,"same",5,1,8.883,102
"1635",501507,"211015",1,1,"same",6,1,6.937,53
"1636",501507,"211016",1,1,"same",6,1,4.987,59
"1637",501507,"211017",1,1,"same",2,1,7.683,32
"1638",501507,"211018",1,1,"same",6,1,3.033,56
"1639",501507,"211019",1,1,"same",4,1,9.365,104
"1640",501507,"211020",1,1,"same",6,1,3.602,58
"1641",501507,"211021",1,1,"same",6,1,4.244,28
"1642",501507,"211022",1,1,"same",5,1,NA,106
"1643",501507,"211023",1,1,"same",NA,1,NA,55
"1644",501507,"211024",1,1,"same",2,1,8.64,48
"1645",501507,"211025",1,1,"same",6,1,5.01,20
"1646",501507,"211026",1,1,"same",6,1,5.938,41
"1647",501507,"211027",1,1,"same",6,1,4.023,77
"1648",501507,"211028",1,1,"same",6,1,6.53,67
"1649",501507,"211029",1,1,"same",5,1,NA,69
"1650",501507,"211030",1,1,"same",NA,1,NA,13
"1651",501507,"421031",1,1,"same",6,1,5.162,50
"1652",501507,"421032",1,1,"same",3,1,6.667,112
"1653",501507,"421033",1,1,"same",6,1,3.822,78
"1654",501507,"421034",1,1,"same",5,1,6.249,109
"1655",501507,"421035",1,1,"same",6,1,6.263,7
"1656",501507,"421036",1,1,"same",6,1,5.288,11
"1657",501507,"421037",1,1,"same",6,1,4.634,33
"1658",501507,"421038",1,1,"same",6,1,4.494,86
"1659",501507,"421039",1,1,"same",6,1,8.76,60
"1660",501507,"421040",1,1,"same",5,1,6.803,97
"1661",501507,"421041",1,1,"same",6,1,6.565,62
"1662",501507,"421042",1,1,"same",6,1,4.339,29
"1663",501507,"421043",1,1,"same",1,1,6.825,74
"1664",501507,"421044",1,1,"same",5,1,8.033,95
"1665",501507,"421045",1,1,"same",6,1,6.575,9
"1666",501507,"421046",1,1,"same",6,1,5.115,84
"1667",501507,"421047",1,1,"same",5,1,6.406,90
"1668",501507,"421048",1,1,"same",6,1,4.891,46
"1669",501507,"421049",1,1,"same",6,1,4.318,2
"1670",501507,"421050",1,1,"same",6,1,3.722,37
"1671",501507,"421051",1,1,"same",6,1,7.818,107
"1672",501507,"421052",1,1,"same",4,1,NA,98
"1673",501507,"421053",1,1,"same",3,1,6.665,22
"1674",501507,"421054",1,1,"same",1,1,NA,47
"1675",501507,"421055",1,1,"same",6,1,4.435,51
"1676",501507,"421056",1,1,"same",NA,1,NA,61
"1677",501507,"421057",1,1,"same",6,1,7.328,25
"1678",501507,"421058",1,1,"same",6,1,3.351,45
"1679",501507,"421059",1,1,"same",6,1,4.234,38
"1680",501507,"421060",1,1,"same",5,1,4.905,114
"1681",501530,"221031",1,1,"same",4,1,2.634,69
"1682",501530,"221032",1,1,"same",2,1,4.782,91
"1683",501530,"221033",1,1,"same",1,1,2.539,100
"1684",501530,"221034",1,1,"same",5,1,2.061,38
"1685",501530,"221035",1,1,"same",2,1,2.616,29
"1686",501530,"221036",1,1,"same",4,1,4.229,95
"1687",501530,"221037",1,1,"same",1,1,4.097,27
"1688",501530,"221038",1,1,"same",3,1,5.429,3
"1689",501530,"221039",1,1,"same",2,1,5.101,92
"1690",501530,"221040",1,1,"same",4,1,4.337,9
"1691",501530,"221041",1,1,"same",4,1,2.822,60
"1692",501530,"221042",1,1,"same",3,1,3.834,81
"1693",501530,"221043",1,1,"same",4,1,2.896,45
"1694",501530,"221044",1,1,"same",1,1,4.346,97
"1695",501530,"221045",1,1,"same",2,1,2.772,11
"1696",501530,"221046",1,1,"same",5,1,3.193,14
"1697",501530,"221047",1,1,"same",2,1,3.24,35
"1698",501530,"221048",1,1,"same",1,1,5.84,62
"1699",501530,"221049",1,1,"same",4,1,2.351,20
"1700",501530,"221050",1,1,"same",4,1,2.405,17
"1701",501530,"221051",1,1,"same",3,1,2.425,37
"1702",501530,"221052",1,1,"same",5,1,4.217,93
"1703",501530,"221053",1,1,"same",1,1,3.205,47
"1704",501530,"221054",1,1,"same",1,1,3.558,98
"1705",501530,"221055",1,1,"same",6,1,3.345,110
"1706",501530,"221056",1,1,"same",4,1,2.276,90
"1707",501530,"221057",1,1,"same",6,1,5.38,64
"1708",501530,"221058",1,1,"same",3,1,1.853,26
"1709",501530,"221059",1,1,"same",3,1,2.848,68
"1710",501530,"221060",1,1,"same",2,1,4.108,94
"1711",501530,"411001",1,1,"same",1,1,3.421,12
"1712",501530,"411002",1,1,"same",3,1,2.015,108
"1713",501530,"411003",1,1,"same",6,1,6.716,7
"1714",501530,"411004",1,1,"same",2,1,2.161,78
"1715",501530,"411005",1,1,"same",2,1,4.713,16
"1716",501530,"411006",1,1,"same",5,1,4.118,15
"1717",501530,"411007",1,1,"same",NA,1,NA,1
"1718",501530,"411008",1,1,"same",2,1,2.211,39
"1719",501530,"411009",1,1,"same",1,1,4.622,67
"1720",501530,"411010",1,1,"same",2,1,3.363,22
"1721",501530,"411011",1,1,"same",4,1,2.685,112
"1722",501530,"411012",1,1,"same",1,1,2.854,23
"1723",501530,"411013",1,1,"same",2,1,4.114,6
"1724",501530,"411014",1,1,"same",4,1,2.515,101
"1725",501530,"411015",1,1,"same",2,1,3.735,107
"1726",501530,"411016",1,1,"same",3,1,2.548,28
"1727",501530,"411017",1,1,"same",2,1,1.94,59
"1728",501530,"411018",1,1,"same",2,1,3.914,8
"1729",501530,"411019",1,1,"same",1,1,2.427,21
"1730",501530,"411020",1,1,"same",2,1,4.183,88
"1731",501530,"411021",1,1,"same",3,1,2.39,117
"1732",501530,"411022",1,1,"same",4,1,2.395,19
"1733",501530,"411023",1,1,"same",5,1,3.502,53
"1734",501530,"411024",1,1,"same",1,1,3.46,10
"1735",501530,"411025",1,1,"same",2,1,2.272,116
"1736",501530,"411026",1,1,"same",3,1,3.159,50
"1737",501530,"411027",1,1,"same",2,1,3.526,49
"1738",501530,"411028",1,1,"same",3,1,2.049,32
"1739",501530,"411029",1,1,"same",2,1,3.012,74
"1740",501530,"411030",1,1,"same",1,1,3.583,65
"1741",501531,"211001",1,1,"different",2,1,6.905,6
"1742",501531,"211002",1,1,"different",6,1,3.702,49
"1743",501531,"211003",1,1,"different",5,1,3.878,102
"1744",501531,"211004",1,1,"different",6,1,3.055,55
"1745",501531,"211005",1,1,"different",6,1,7.546,62
"1746",501531,"211006",1,1,"different",6,1,NA,61
"1747",501531,"211007",1,1,"different",5,1,4.766,11
"1748",501531,"211008",1,1,"different",6,1,4.01,32
"1749",501531,"211009",1,1,"different",2,1,6.792,115
"1750",501531,"211010",1,1,"different",6,1,2.583,30
"1751",501531,"211011",1,1,"different",2,1,4.48,48
"1752",501531,"211012",1,1,"different",5,1,7.296,103
"1753",501531,"211013",1,1,"different",3,1,6.907,95
"1754",501531,"211014",1,1,"different",5,1,5.307,94
"1755",501531,"211015",1,1,"different",5,1,5.898,99
"1756",501531,"211016",1,1,"different",5,1,6.986,96
"1757",501531,"211017",1,1,"different",5,1,4.742,109
"1758",501531,"211018",1,1,"different",5,1,4.487,10
"1759",501531,"211019",1,1,"different",6,1,3.762,19
"1760",501531,"211020",1,1,"different",4,1,6.098,25
"1761",501531,"211021",1,1,"different",5,1,6.251,73
"1762",501531,"211022",1,1,"different",4,1,3.349,69
"1763",501531,"211023",1,1,"different",5,1,6.096,119
"1764",501531,"211024",1,1,"different",5,1,3.528,84
"1765",501531,"211025",1,1,"different",3,1,3.799,41
"1766",501531,"211026",1,1,"different",5,1,4.416,117
"1767",501531,"211027",1,1,"different",6,1,5.849,93
"1768",501531,"211028",1,1,"different",6,1,4.294,63
"1769",501531,"211029",1,1,"different",2,1,5.241,100
"1770",501531,"211030",1,1,"different",5,1,4.036,78
"1771",501531,"421031",1,1,"different",6,1,3.527,46
"1772",501531,"421032",1,1,"different",6,1,3.095,17
"1773",501531,"421033",1,1,"different",5,1,3.839,87
"1774",501531,"421034",1,1,"different",5,1,5.002,114
"1775",501531,"421035",1,1,"different",4,1,6.753,57
"1776",501531,"421036",1,1,"different",5,1,4.818,108
"1777",501531,"421037",1,1,"different",5,1,7.777,89
"1778",501531,"421038",1,1,"different",4,1,3.959,13
"1779",501531,"421039",1,1,"different",3,1,4.632,64
"1780",501531,"421040",1,1,"different",6,1,3.522,50
"1781",501531,"421041",1,1,"different",3,1,5.258,101
"1782",501531,"421042",1,1,"different",NA,1,NA,7
"1783",501531,"421043",1,1,"different",6,1,4.4,53
"1784",501531,"421044",1,1,"different",5,1,3.192,80
"1785",501531,"421045",1,1,"different",6,1,3.043,16
"1786",501531,"421046",1,1,"different",4,1,NA,104
"1787",501531,"421047",1,1,"different",5,1,3.247,60
"1788",501531,"421048",1,1,"different",6,1,3.382,20
"1789",501531,"421049",1,1,"different",6,1,3.831,18
"1790",501531,"421050",1,1,"different",6,1,4.275,15
"1791",501531,"421051",1,1,"different",2,1,NA,97
"1792",501531,"421052",1,1,"different",6,1,4.374,58
"1793",501531,"421053",1,1,"different",5,1,4.39,74
"1794",501531,"421054",1,1,"different",5,1,8.187,92
"1795",501531,"421055",1,1,"different",5,1,5.931,98
"1796",501531,"421056",1,1,"different",6,1,3.036,22
"1797",501531,"421057",1,1,"different",5,1,4.759,52
"1798",501531,"421058",1,1,"different",6,1,2.854,29
"1799",501531,"421059",1,1,"different",2,1,4.073,40
"1800",501531,"421060",1,1,"different",6,1,3.097,42
"1801",501589,"321091",1,1,"different",4,1,3.807,5
"1802",501589,"321092",1,1,"different",5,1,2.949,15
"1803",501589,"321093",1,1,"different",4,1,2.819,87
"1804",501589,"321094",1,1,"different",4,1,2.92,49
"1805",501589,"321095",1,1,"different",1,1,3.656,62
"1806",501589,"321096",1,1,"different",4,1,NA,1
"1807",501589,"321097",1,1,"different",3,1,1.978,117
"1808",501589,"321098",1,1,"different",1,1,4.355,30
"1809",501589,"321099",1,1,"different",4,1,3.269,44
"1810",501589,"321100",1,1,"different",5,1,3.027,31
"1811",501589,"321101",1,1,"different",5,1,2.173,6
"1812",501589,"321102",1,1,"different",4,1,3.095,27
"1813",501589,"321103",1,1,"different",2,1,2.898,68
"1814",501589,"321104",1,1,"different",5,1,2.776,28
"1815",501589,"321105",1,1,"different",5,1,2.758,101
"1816",501589,"321106",1,1,"different",4,1,3.306,67
"1817",501589,"321107",1,1,"different",4,1,1.811,102
"1818",501589,"321108",1,1,"different",4,1,2.15,29
"1819",501589,"321109",1,1,"different",2,1,3.59,65
"1820",501589,"321110",1,1,"different",4,1,2.423,97
"1821",501589,"321111",1,1,"different",5,1,2.894,21
"1822",501589,"321112",1,1,"different",4,1,3.41,74
"1823",501589,"321113",1,1,"different",4,1,2.239,22
"1824",501589,"321114",1,1,"different",2,1,5.803,50
"1825",501589,"321115",1,1,"different",4,1,2.299,116
"1826",501589,"321116",1,1,"different",4,1,2.429,13
"1827",501589,"321117",1,1,"different",4,1,3.777,59
"1828",501589,"321118",1,1,"different",4,1,2.285,75
"1829",501589,"321119",1,1,"different",3,1,2.842,83
"1830",501589,"321120",1,1,"different",4,1,2.847,51
"1831",501589,"511061",1,1,"different",4,1,3.241,8
"1832",501589,"511062",1,1,"different",4,1,3.002,64
"1833",501589,"511063",1,1,"different",2,1,3.561,58
"1834",501589,"511064",1,1,"different",3,1,3.565,11
"1835",501589,"511065",1,1,"different",5,1,2.419,91
"1836",501589,"511066",1,1,"different",5,1,2.351,47
"1837",501589,"511067",1,1,"different",5,1,2.88,19
"1838",501589,"511068",1,1,"different",5,1,2.614,82
"1839",501589,"511069",1,1,"different",5,1,1.904,107
"1840",501589,"511070",1,1,"different",5,1,2.528,114
"1841",501589,"511071",1,1,"different",3,1,3.844,2
"1842",501589,"511072",1,1,"different",3,1,3.041,12
"1843",501589,"511073",1,1,"different",5,1,1.975,106
"1844",501589,"511074",1,1,"different",5,1,2.676,48
"1845",501589,"511075",1,1,"different",5,1,3.766,54
"1846",501589,"511076",1,1,"different",5,1,2.648,36
"1847",501589,"511077",1,1,"different",4,1,2.747,63
"1848",501589,"511078",1,1,"different",3,1,2.682,25
"1849",501589,"511079",1,1,"different",5,1,2.49,24
"1850",501589,"511080",1,1,"different",5,1,2.072,18
"1851",501589,"511081",1,1,"different",4,1,2.52,56
"1852",501589,"511082",1,1,"different",4,1,3.293,76
"1853",501589,"511083",1,1,"different",3,1,1.426,95
"1854",501589,"511084",1,1,"different",4,1,2.135,94
"1855",501589,"511085",1,1,"different",4,1,2.573,88
"1856",501589,"511086",1,1,"different",5,1,3.981,17
"1857",501589,"511087",1,1,"different",4,1,1.768,70
"1858",501589,"511088",1,1,"different",5,1,4.239,85
"1859",501589,"511089",1,1,"different",4,1,2.574,96
"1860",501589,"511090",1,1,"different",5,1,2.237,105
"1861",501623,"221031",1,1,"different",1,1,3.673,86
"1862",501623,"221032",1,1,"different",3,1,3.125,73
"1863",501623,"221033",1,1,"different",3,1,4.296,117
"1864",501623,"221034",1,1,"different",3,1,3.664,109
"1865",501623,"221035",1,1,"different",2,1,5.375,9
"1866",501623,"221036",1,1,"different",5,1,8.413,5
"1867",501623,"221037",1,1,"different",2,1,4.304,85
"1868",501623,"221038",1,1,"different",2,1,5.596,77
"1869",501623,"221039",1,1,"different",1,1,7.935,3
"1870",501623,"221040",1,1,"different",3,1,5.012,71
"1871",501623,"221041",1,1,"different",3,1,4.634,13
"1872",501623,"221042",1,1,"different",5,1,5.072,70
"1873",501623,"221043",1,1,"different",2,1,5.282,79
"1874",501623,"221044",1,1,"different",4,1,3.157,69
"1875",501623,"221045",1,1,"different",5,1,4.13,51
"1876",501623,"221046",1,1,"different",4,1,5.277,120
"1877",501623,"221047",1,1,"different",5,1,4.247,11
"1878",501623,"221048",1,1,"different",1,1,4.804,115
"1879",501623,"221049",1,1,"different",3,1,3.421,66
"1880",501623,"221050",1,1,"different",3,1,4.503,78
"1881",501623,"221051",1,1,"different",2,1,3.522,90
"1882",501623,"221052",1,1,"different",4,1,5.389,67
"1883",501623,"221053",1,1,"different",3,1,5.232,59
"1884",501623,"221054",1,1,"different",5,1,4.503,41
"1885",501623,"221055",1,1,"different",3,1,3.983,94
"1886",501623,"221056",1,1,"different",3,1,5.618,104
"1887",501623,"221057",1,1,"different",4,1,4.694,26
"1888",501623,"221058",1,1,"different",1,1,6.733,57
"1889",501623,"221059",1,1,"different",3,1,3.098,72
"1890",501623,"221060",1,1,"different",6,1,3.842,29
"1891",501623,"411001",1,1,"different",3,1,3.861,100
"1892",501623,"411002",1,1,"different",2,1,4.62,113
"1893",501623,"411003",1,1,"different",5,1,7.278,12
"1894",501623,"411004",1,1,"different",3,1,5.399,114
"1895",501623,"411005",1,1,"different",3,1,5.611,45
"1896",501623,"411006",1,1,"different",5,1,4.333,42
"1897",501623,"411007",1,1,"different",5,1,6.934,22
"1898",501623,"411008",1,1,"different",3,1,3.391,118
"1899",501623,"411009",1,1,"different",2,1,5.008,110
"1900",501623,"411010",1,1,"different",4,1,4.57,105
"1901",501623,"411011",1,1,"different",5,1,3.643,43
"1902",501623,"411012",1,1,"different",3,1,3.122,99
"1903",501623,"411013",1,1,"different",3,1,3.872,84
"1904",501623,"411014",1,1,"different",5,1,3.83,23
"1905",501623,"411015",1,1,"different",2,1,6.221,81
"1906",501623,"411016",1,1,"different",4,1,4.224,27
"1907",501623,"411017",1,1,"different",5,1,8.459,15
"1908",501623,"411018",1,1,"different",4,1,3.868,68
"1909",501623,"411019",1,1,"different",2,1,4.203,80
"1910",501623,"411020",1,1,"different",2,1,6.331,62
"1911",501623,"411021",1,1,"different",5,1,3.429,19
"1912",501623,"411022",1,1,"different",5,1,5.904,16
"1913",501623,"411023",1,1,"different",4,1,3.807,37
"1914",501623,"411024",1,1,"different",5,1,3.7,33
"1915",501623,"411025",1,1,"different",4,1,7.24,58
"1916",501623,"411026",1,1,"different",1,1,3.65,87
"1917",501623,"411027",1,1,"different",6,1,4.417,30
"1918",501623,"411028",1,1,"different",5,1,4.817,54
"1919",501623,"411029",1,1,"different",6,1,6.249,2
"1920",501623,"411030",1,1,"different",4,1,4.939,63
"1921",502045,"321091",1,1,"same",6,1,5.511,28
"1922",502045,"321092",1,1,"same",6,1,6.691,63
"1923",502045,"321093",1,1,"same",6,1,5.651,4
"1924",502045,"321094",1,1,"same",6,1,3.626,117
"1925",502045,"321095",1,1,"same",6,1,5.679,72
"1926",502045,"321096",1,1,"same",1,1,6.506,41
"1927",502045,"321097",1,1,"same",2,1,7.87,42
"1928",502045,"321098",1,1,"same",6,1,3.608,85
"1929",502045,"321099",1,1,"same",6,1,4.572,34
"1930",502045,"321100",1,1,"same",1,1,6.822,116
"1931",502045,"321101",1,1,"same",2,1,8.814,70
"1932",502045,"321102",1,1,"same",6,1,3.525,83
"1933",502045,"321103",1,1,"same",6,1,5.048,119
"1934",502045,"321104",1,1,"same",6,1,3.97,71
"1935",502045,"321105",1,1,"same",6,1,3.783,92
"1936",502045,"321106",1,1,"same",6,1,4.954,76
"1937",502045,"321107",1,1,"same",6,1,4.467,103
"1938",502045,"321108",1,1,"same",6,1,3.874,25
"1939",502045,"321109",1,1,"same",6,1,6.324,113
"1940",502045,"321110",1,1,"same",6,1,4.146,16
"1941",502045,"321111",1,1,"same",4,1,7.91,60
"1942",502045,"321112",1,1,"same",6,1,4.273,114
"1943",502045,"321113",1,1,"same",3,1,6.089,54
"1944",502045,"321114",1,1,"same",6,1,4.229,24
"1945",502045,"321115",1,1,"same",6,1,3.789,66
"1946",502045,"321116",1,1,"same",6,1,4.593,95
"1947",502045,"321117",1,1,"same",6,1,4.573,87
"1948",502045,"321118",1,1,"same",6,1,4.048,53
"1949",502045,"321119",1,1,"same",6,1,4.725,68
"1950",502045,"321120",1,1,"same",6,1,3.894,56
"1951",502045,"511061",1,1,"same",6,1,5.467,74
"1952",502045,"511062",1,1,"same",6,1,4.563,86
"1953",502045,"511063",1,1,"same",6,1,4.586,59
"1954",502045,"511064",1,1,"same",6,1,6.539,45
"1955",502045,"511065",1,1,"same",6,1,4.148,55
"1956",502045,"511066",1,1,"same",6,1,4.831,110
"1957",502045,"511067",1,1,"same",6,1,5.424,97
"1958",502045,"511068",1,1,"same",6,1,3.926,51
"1959",502045,"511069",1,1,"same",1,1,6.924,44
"1960",502045,"511070",1,1,"same",5,1,NA,3
"1961",502045,"511071",1,1,"same",6,1,6.333,78
"1962",502045,"511072",1,1,"same",6,1,5.54,107
"1963",502045,"511073",1,1,"same",6,1,6.444,52
"1964",502045,"511074",1,1,"same",5,1,6.34,88
"1965",502045,"511075",1,1,"same",6,1,3.976,73
"1966",502045,"511076",1,1,"same",6,1,4.147,43
"1967",502045,"511077",1,1,"same",6,1,4.144,15
"1968",502045,"511078",1,1,"same",6,1,6.637,32
"1969",502045,"511079",1,1,"same",6,1,3.46,84
"1970",502045,"511080",1,1,"same",6,1,3.794,62
"1971",502045,"511081",1,1,"same",6,1,4.182,8
"1972",502045,"511082",1,1,"same",6,1,4.845,77
"1973",502045,"511083",1,1,"same",6,1,6.896,58
"1974",502045,"511084",1,1,"same",6,1,7.52,2
"1975",502045,"511085",1,1,"same",6,1,4.273,46
"1976",502045,"511086",1,1,"same",6,1,4.94,109
"1977",502045,"511087",1,1,"same",6,1,4.532,90
"1978",502045,"511088",1,1,"same",6,1,3.759,65
"1979",502045,"511089",1,1,"same",6,1,5.772,91
"1980",502045,"511090",1,1,"same",6,1,6.226,17
"1981",502670,"310085",1,1,"different",6,1,5.81,17
"1982",502670,"311061",1,1,"different",5,1,4.37,87
"1983",502670,"311062",1,1,"different",5,1,4.537,39
"1984",502670,"311063",1,1,"different",4,1,7.671,56
"1985",502670,"311064",1,1,"different",5,1,6.542,36
"1986",502670,"311065",1,1,"different",6,1,4.153,26
"1987",502670,"311066",1,1,"different",4,1,3.668,111
"1988",502670,"311067",1,1,"different",6,1,3.476,112
"1989",502670,"311068",1,1,"different",6,1,4.114,27
"1990",502670,"311069",1,1,"different",6,1,3.717,54
"1991",502670,"311070",1,1,"different",4,1,4.515,85
"1992",502670,"311071",1,1,"different",4,1,5.758,55
"1993",502670,"311072",1,1,"different",6,1,6.3,25
"1994",502670,"311073",1,1,"different",3,1,4.243,120
"1995",502670,"311074",1,1,"different",6,1,3.991,109
"1996",502670,"311075",1,1,"different",6,1,4.689,57
"1997",502670,"311076",1,1,"different",4,1,8.167,20
"1998",502670,"311077",1,1,"different",5,1,5.636,74
"1999",502670,"311078",1,1,"different",4,1,6.422,99
"2000",502670,"311079",1,1,"different",5,1,5.076,102
"2001",502670,"311080",1,1,"different",5,1,3.768,60
"2002",502670,"311081",1,1,"different",6,1,3.837,82
"2003",502670,"311082",1,1,"different",4,1,4.297,119
"2004",502670,"311083",1,1,"different",5,1,4.627,24
"2005",502670,"311084",1,1,"different",6,1,4.517,34
"2006",502670,"311086",1,1,"different",4,1,3.891,114
"2007",502670,"311087",1,1,"different",6,1,4.104,21
"2008",502670,"311088",1,1,"different",5,1,3.418,93
"2009",502670,"311089",1,1,"different",5,1,5.387,96
"2010",502670,"311090",1,1,"different",4,1,NA,69
"2011",502670,"521091",1,1,"different",5,1,6.355,92
"2012",502670,"521092",1,1,"different",5,1,5.525,106
"2013",502670,"521093",1,1,"different",4,1,4.534,101
"2014",502670,"521094",1,1,"different",5,1,3.984,40
"2015",502670,"521095",1,1,"different",4,1,5.895,86
"2016",502670,"521096",1,1,"different",1,1,NA,2
"2017",502670,"521097",1,1,"different",5,1,4.089,41
"2018",502670,"521098",1,1,"different",5,1,NA,16
"2019",502670,"521099",1,1,"different",6,1,3.723,43
"2020",502670,"521100",1,1,"different",4,1,8.329,61
"2021",502670,"521101",1,1,"different",4,1,7.005,94
"2022",502670,"521102",1,1,"different",5,1,6.443,5
"2023",502670,"521103",1,1,"different",1,1,6.262,31
"2024",502670,"521104",1,1,"different",5,1,4.312,18
"2025",502670,"521105",1,1,"different",3,1,5.062,47
"2026",502670,"521106",1,1,"different",5,1,8.025,72
