Experiment;Participant;Trial_Nr;Trial_Id;Task_Name;Rating;RT;Item;LanguageTest;Presentation;Age ;AoA;MeanPercentageUse;MeanSelfProficiency;EnglishCountry;EnglishEducation;TotalInteresingEncoding;Total_Math_Operations;Percentage_Math_Correct
Athens;555415;3;31;RatingTest;6;5271;321091;Greek;Repeated;26;8;49;7,5;N;N;30;46;80,43478261
Athens;555415;25;32;RatingTest;2;5054;321092;Greek;Repeated;26;8;49;7,5;N;N;30;46;80,43478261
Athens;555415;90;33;RatingTest;3;3016;321093;Greek;Repeated;26;8;49;7,5;N;N;30;46;80,43478261
Athens;555415;94;34;RatingTest;2;2377;321094;Greek;Repeated;26;8;49;7,5;N;N;30;46;80,43478261
Athens;555415;106;35;RatingTest;6;3118;321095;Greek;Repeated;26;8;49;7,5;N;N;30;46;80,43478261
Athens;555415;118;36;RatingTest;6;4590;321096;Greek;Repeated;26;8;49;7,5;N;N;30;46;80,43478261
Athens;555415;20;37;RatingTest;6;2702;321097;Greek;Repeated;26;8;49;7,5;N;N;30;46;80,43478261
Athens;555415;82;38;RatingTest;6;3224;321098;Greek;Repeated;26;8;49;7,5;N;N;30;46;80,43478261
Athens;555415;65;39;RatingTest;6;2574;321099;Greek;Repeated;26;8;49;7,5;N;N;30;46;80,43478261
Athens;555415;8;40;RatingTest;6;3889;321100;Greek;Repeated;26;8;49;7,5;N;N;30;46;80,43478261
Athens;555415;16;41;RatingTest;4;3081;321101;Greek;Repeated;26;8;49;7,5;N;N;30;46;80,43478261
Athens;555415;24;42;RatingTest;6;3042;321102;Greek;Repeated;26;8;49;7,5;N;N;30;46;80,43478261
Athens;555415;37;43;RatingTest;2;3176;321103;Greek;Repeated;26;8;49;7,5;N;N;30;46;80,43478261
Athens;555415;76;44;RatingTest;6;2545;321104;Greek;Repeated;26;8;49;7,5;N;N;30;46;80,43478261
Athens;555415;64;45;RatingTest;6;2769;321105;Greek;Repeated;26;8;49;7,5;N;N;30;46;80,43478261
Athens;555415;78;46;RatingTest;3;2760;321106;Greek;Repeated;26;8;49;7,5;N;N;30;46;80,43478261
Athens;555415;26;47;RatingTest;6;2597;321107;Greek;Repeated;26;8;49;7,5;N;N;30;46;80,43478261
Athens;555415;97;48;RatingTest;3;2984;321108;Greek;Repeated;26;8;49;7,5;N;N;30;46;80,43478261
Athens;555415;91;49;RatingTest;3;2713;321109;Greek;Repeated;26;8;49;7,5;N;N;30;46;80,43478261
Athens;555415;57;50;RatingTest;6;2736;321110;Greek;Repeated;26;8;49;7,5;N;N;30;46;80,43478261
Athens;555415;58;51;RatingTest;3;3433;321111;Greek;Repeated;26;8;49;7,5;N;N;30;46;80,43478261
Athens;555415;67;52;RatingTest;6;2650;321112;Greek;Repeated;26;8;49;7,5;N;N;30;46;80,43478261
Athens;555415;116;53;RatingTest;2;2744;321113;Greek;Repeated;26;8;49;7,5;N;N;30;46;80,43478261
Athens;555415;28;54;RatingTest;6;2970;321114;Greek;Repeated;26;8;49;7,5;N;N;30;46;80,43478261
Athens;555415;88;55;RatingTest;5;2935;321115;Greek;Repeated;26;8;49;7,5;N;N;30;46;80,43478261
Athens;555415;22;56;RatingTest;6;2956;321116;Greek;Repeated;26;8;49;7,5;N;N;30;46;80,43478261
Athens;555415;102;57;RatingTest;4;3217;321117;Greek;Repeated;26;8;49;7,5;N;N;30;46;80,43478261
Athens;555415;86;58;RatingTest;6;2863;321118;Greek;Repeated;26;8;49;7,5;N;N;30;46;80,43478261
Athens;555415;80;59;RatingTest;2;4077;321119;Greek;Repeated;26;8;49;7,5;N;N;30;46;80,43478261
Athens;555415;105;60;RatingTest;6;3400;321120;Greek;Repeated;26;8;49;7,5;N;N;30;46;80,43478261
Athens;555415;108;91;RatingTest;6;3543;511061;Greek;Repeated;26;8;49;7,5;N;N;30;46;80,43478261
Athens;555415;48;92;RatingTest;6;2857;511062;Greek;Repeated;26;8;49;7,5;N;N;30;46;80,43478261
Athens;555415;34;93;RatingTest;6;3208;511063;Greek;Repeated;26;8;49;7,5;N;N;30;46;80,43478261
Athens;555415;49;94;RatingTest;6;2856;511064;Greek;Repeated;26;8;49;7,5;N;N;30;46;80,43478261
Athens;555415;66;95;RatingTest;6;2501;511065;Greek;Repeated;26;8;49;7,5;N;N;30;46;80,43478261
Athens;555415;27;96;RatingTest;6;2190;511066;Greek;Repeated;26;8;49;7,5;N;N;30;46;80,43478261
Athens;555415;31;97;RatingTest;6;2825;511067;Greek;Repeated;26;8;49;7,5;N;N;30;46;80,43478261
Athens;555415;54;98;RatingTest;6;2284;511068;Greek;Repeated;26;8;49;7,5;N;N;30;46;80,43478261
Athens;555415;55;99;RatingTest;6;2188;511069;Greek;Repeated;26;8;49;7,5;N;N;30;46;80,43478261
Athens;555415;2;100;RatingTest;5;5978;511070;Greek;Repeated;26;8;49;7,5;N;N;30;46;80,43478261
Athens;555415;6;101;RatingTest;5;6142;511071;Greek;Repeated;26;8;49;7,5;N;N;30;46;80,43478261
Athens;555415;95;102;RatingTest;3;3278;511072;Greek;Repeated;26;8;49;7,5;N;N;30;46;80,43478261
Athens;555415;93;103;RatingTest;6;2891;511073;Greek;Repeated;26;8;49;7,5;N;N;30;46;80,43478261
Athens;555415;46;104;RatingTest;6;2115;511074;Greek;Repeated;26;8;49;7,5;N;N;30;46;80,43478261
Athens;555415;104;105;RatingTest;6;2136;511075;Greek;Repeated;26;8;49;7,5;N;N;30;46;80,43478261
Athens;555415;53;106;RatingTest;6;2259;511076;Greek;Repeated;26;8;49;7,5;N;N;30;46;80,43478261
Athens;555415;1;107;RatingTest;4;9147;511077;Greek;Repeated;26;8;49;7,5;N;N;30;46;80,43478261
Athens;555415;117;108;RatingTest;6;3062;511078;Greek;Repeated;26;8;49;7,5;N;N;30;46;80,43478261
Athens;555415;99;109;RatingTest;6;2562;511079;Greek;Repeated;26;8;49;7,5;N;N;30;46;80,43478261
Athens;555415;11;110;RatingTest;6;2232;511080;Greek;Repeated;26;8;49;7,5;N;N;30;46;80,43478261
Athens;555415;119;111;RatingTest;6;4079;511081;Greek;Repeated;26;8;49;7,5;N;N;30;46;80,43478261
Athens;555415;61;112;RatingTest;6;4859;511082;Greek;Repeated;26;8;49;7,5;N;N;30;46;80,43478261
Athens;555415;59;113;RatingTest;6;4064;511083;Greek;Repeated;26;8;49;7,5;N;N;30;46;80,43478261
Athens;555415;107;114;RatingTest;6;2330;511084;Greek;Repeated;26;8;49;7,5;N;N;30;46;80,43478261
Athens;555415;98;115;RatingTest;6;2850;511085;Greek;Repeated;26;8;49;7,5;N;N;30;46;80,43478261
Athens;555415;30;116;RatingTest;2;2687;511086;Greek;Repeated;26;8;49;7,5;N;N;30;46;80,43478261
Athens;555415;4;117;RatingTest;6;2343;511087;Greek;Repeated;26;8;49;7,5;N;N;30;46;80,43478261
Athens;555415;85;118;RatingTest;5;5349;511088;Greek;Repeated;26;8;49;7,5;N;N;30;46;80,43478261
Athens;555415;10;119;RatingTest;5;3459;511089;Greek;Repeated;26;8;49;7,5;N;N;30;46;80,43478261
Athens;555415;112;120;RatingTest;2;6595;511090;Greek;Repeated;26;8;49;7,5;N;N;30;46;80,43478261
Athens;555432;96;1;RatingTest;5;4291;221031;Greek;Repeated;21;6;69,3;9,25;N;N;28;56;83,92857143
Athens;555432;91;2;RatingTest;5;5293;221032;Greek;Repeated;21;6;69,3;9,25;N;N;28;56;83,92857143
Athens;555432;27;3;RatingTest;5;5435;221033;Greek;Repeated;21;6;69,3;9,25;N;N;28;56;83,92857143
Athens;555432;29;4;RatingTest;6;2734;221034;Greek;Repeated;21;6;69,3;9,25;N;N;28;56;83,92857143
Athens;555432;93;5;RatingTest;3;2820;221035;Greek;Repeated;21;6;69,3;9,25;N;N;28;56;83,92857143
Athens;555432;37;6;RatingTest;6;3243;221036;Greek;Repeated;21;6;69,3;9,25;N;N;28;56;83,92857143
Athens;555432;3;7;RatingTest;6;6233;221037;Greek;Repeated;21;6;69,3;9,25;N;N;28;56;83,92857143
Athens;555432;85;8;RatingTest;6;4474;221038;Greek;Repeated;21;6;69,3;9,25;N;N;28;56;83,92857143
Athens;555432;56;9;RatingTest;5;4303;221039;Greek;Repeated;21;6;69,3;9,25;N;N;28;56;83,92857143
Athens;555432;57;10;RatingTest;3;3450;221040;Greek;Repeated;21;6;69,3;9,25;N;N;28;56;83,92857143
Athens;555432;19;11;RatingTest;5;4615;221041;Greek;Repeated;21;6;69,3;9,25;N;N;28;56;83,92857143
Athens;555432;44;12;RatingTest;6;3879;221042;Greek;Repeated;21;6;69,3;9,25;N;N;28;56;83,92857143
Athens;555432;105;13;RatingTest;6;5945;221043;Greek;Repeated;21;6;69,3;9,25;N;N;28;56;83,92857143
Athens;555432;43;14;RatingTest;6;3227;221044;Greek;Repeated;21;6;69,3;9,25;N;N;28;56;83,92857143
Athens;555432;64;15;RatingTest;2;3053;221045;Greek;Repeated;21;6;69,3;9,25;N;N;28;56;83,92857143
Athens;555432;120;16;RatingTest;3;3014;221046;Greek;Repeated;21;6;69,3;9,25;N;N;28;56;83,92857143
Athens;555432;48;17;RatingTest;5;2919;221047;Greek;Repeated;21;6;69,3;9,25;N;N;28;56;83,92857143
Athens;555432;15;18;RatingTest;6;4530;221048;Greek;Repeated;21;6;69,3;9,25;N;N;28;56;83,92857143
Athens;555432;41;19;RatingTest;6;3825;221049;Greek;Repeated;21;6;69,3;9,25;N;N;28;56;83,92857143
Athens;555432;97;20;RatingTest;6;3299;221050;Greek;Repeated;21;6;69,3;9,25;N;N;28;56;83,92857143
Athens;555432;82;21;RatingTest;6;3122;221051;Greek;Repeated;21;6;69,3;9,25;N;N;28;56;83,92857143
Athens;555432;107;22;RatingTest;6;4274;221052;Greek;Repeated;21;6;69,3;9,25;N;N;28;56;83,92857143
Athens;555432;26;23;RatingTest;6;3698;221053;Greek;Repeated;21;6;69,3;9,25;N;N;28;56;83,92857143
Athens;555432;58;24;RatingTest;6;3824;221054;Greek;Repeated;21;6;69,3;9,25;N;N;28;56;83,92857143
Athens;555432;50;25;RatingTest;6;4154;221055;Greek;Repeated;21;6;69,3;9,25;N;N;28;56;83,92857143
Athens;555432;6;26;RatingTest;6;3272;221056;Greek;Repeated;21;6;69,3;9,25;N;N;28;56;83,92857143
Athens;555432;40;27;RatingTest;6;3547;221057;Greek;Repeated;21;6;69,3;9,25;N;N;28;56;83,92857143
Athens;555432;109;28;RatingTest;6;4346;221058;Greek;Repeated;21;6;69,3;9,25;N;N;28;56;83,92857143
Athens;555432;30;29;RatingTest;6;4922;221059;Greek;Repeated;21;6;69,3;9,25;N;N;28;56;83,92857143
Athens;555432;35;30;RatingTest;6;3659;221060;Greek;Repeated;21;6;69,3;9,25;N;N;28;56;83,92857143
Athens;555432;14;61;RatingTest;6;4060;411001;Greek;Repeated;21;6;69,3;9,25;N;N;28;56;83,92857143
Athens;555432;99;62;RatingTest;6;3273;411002;Greek;Repeated;21;6;69,3;9,25;N;N;28;56;83,92857143
Athens;555432;113;63;RatingTest;6;3893;411003;Greek;Repeated;21;6;69,3;9,25;N;N;28;56;83,92857143
Athens;555432;45;64;RatingTest;4;4010;411004;Greek;Repeated;21;6;69,3;9,25;N;N;28;56;83,92857143
Athens;555432;100;65;RatingTest;6;3310;411005;Greek;Repeated;21;6;69,3;9,25;N;N;28;56;83,92857143
Athens;555432;74;66;RatingTest;4;4387;411006;Greek;Repeated;21;6;69,3;9,25;N;N;28;56;83,92857143
Athens;555432;38;67;RatingTest;3;4068;411007;Greek;Repeated;21;6;69,3;9,25;N;N;28;56;83,92857143
Athens;555432;24;68;RatingTest;6;3591;411008;Greek;Repeated;21;6;69,3;9,25;N;N;28;56;83,92857143
Athens;555432;55;69;RatingTest;6;4168;411009;Greek;Repeated;21;6;69,3;9,25;N;N;28;56;83,92857143
Athens;555432;95;70;RatingTest;6;2656;411010;Greek;Repeated;21;6;69,3;9,25;N;N;28;56;83,92857143
Athens;555432;115;71;RatingTest;5;2655;411011;Greek;Repeated;21;6;69,3;9,25;N;N;28;56;83,92857143
Athens;555432;36;72;RatingTest;6;3863;411012;Greek;Repeated;21;6;69,3;9,25;N;N;28;56;83,92857143
Athens;555432;70;73;RatingTest;6;5505;411013;Greek;Repeated;21;6;69,3;9,25;N;N;28;56;83,92857143
Athens;555432;10;74;RatingTest;6;3144;411014;Greek;Repeated;21;6;69,3;9,25;N;N;28;56;83,92857143
Athens;555432;111;75;RatingTest;5;2930;411015;Greek;Repeated;21;6;69,3;9,25;N;N;28;56;83,92857143
Athens;555432;67;76;RatingTest;6;4044;411016;Greek;Repeated;21;6;69,3;9,25;N;N;28;56;83,92857143
Athens;555432;110;77;RatingTest;6;2887;411017;Greek;Repeated;21;6;69,3;9,25;N;N;28;56;83,92857143
Athens;555432;71;78;RatingTest;6;2494;411018;Greek;Repeated;21;6;69,3;9,25;N;N;28;56;83,92857143
Athens;555432;21;79;RatingTest;6;3583;411019;Greek;Repeated;21;6;69,3;9,25;N;N;28;56;83,92857143
Athens;555432;33;80;RatingTest;4;5163;411020;Greek;Repeated;21;6;69,3;9,25;N;N;28;56;83,92857143
Athens;555432;17;81;RatingTest;6;4190;411021;Greek;Repeated;21;6;69,3;9,25;N;N;28;56;83,92857143
Athens;555432;7;82;RatingTest;6;4804;411022;Greek;Repeated;21;6;69,3;9,25;N;N;28;56;83,92857143
Athens;555432;25;83;RatingTest;6;4445;411023;Greek;Repeated;21;6;69,3;9,25;N;N;28;56;83,92857143
Athens;555432;102;84;RatingTest;5;3496;411024;Greek;Repeated;21;6;69,3;9,25;N;N;28;56;83,92857143
Athens;555432;87;85;RatingTest;6;4029;411025;Greek;Repeated;21;6;69,3;9,25;N;N;28;56;83,92857143
Athens;555432;73;86;RatingTest;6;3222;411026;Greek;Repeated;21;6;69,3;9,25;N;N;28;56;83,92857143
Athens;555432;77;87;RatingTest;6;2783;411027;Greek;Repeated;21;6;69,3;9,25;N;N;28;56;83,92857143
Athens;555432;4;88;RatingTest;4;5647;411028;Greek;Repeated;21;6;69,3;9,25;N;N;28;56;83,92857143
Athens;555432;59;89;RatingTest;3;3359;411029;Greek;Repeated;21;6;69,3;9,25;N;N;28;56;83,92857143
Athens;555432;39;90;RatingTest;6;6386;411030;Greek;Repeated;21;6;69,3;9,25;N;N;28;56;83,92857143
Athens;555437;13;1;RatingTest;6;3045;211001;Greek;Repeated;22;8;63,9;8;N;Y;17;65;67,69230769
Athens;555437;102;2;RatingTest;1;4891;211002;Greek;Repeated;22;8;63,9;8;N;Y;17;65;67,69230769
Athens;555437;109;3;RatingTest;6;3692;211003;Greek;Repeated;22;8;63,9;8;N;Y;17;65;67,69230769
Athens;555437;14;4;RatingTest;2;4199;211004;Greek;Repeated;22;8;63,9;8;N;Y;17;65;67,69230769
Athens;555437;100;5;RatingTest;6;4231;211005;Greek;Repeated;22;8;63,9;8;N;Y;17;65;67,69230769
Athens;555437;23;6;RatingTest;1;2879;211006;Greek;Repeated;22;8;63,9;8;N;Y;17;65;67,69230769
Athens;555437;7;7;RatingTest;1;3745;211007;Greek;Repeated;22;8;63,9;8;N;Y;17;65;67,69230769
Athens;555437;4;8;RatingTest;1;5202;211008;Greek;Repeated;22;8;63,9;8;N;Y;17;65;67,69230769
Athens;555437;6;9;RatingTest;6;3970;211009;Greek;Repeated;22;8;63,9;8;N;Y;17;65;67,69230769
Athens;555437;117;10;RatingTest;6;4729;211010;Greek;Repeated;22;8;63,9;8;N;Y;17;65;67,69230769
Athens;555437;62;11;RatingTest;1;2944;211011;Greek;Repeated;22;8;63,9;8;N;Y;17;65;67,69230769
Athens;555437;16;12;RatingTest;1;3707;211012;Greek;Repeated;22;8;63,9;8;N;Y;17;65;67,69230769
Athens;555437;30;13;RatingTest;1;7013;211013;Greek;Repeated;22;8;63,9;8;N;Y;17;65;67,69230769
Athens;555437;3;14;RatingTest;2;4257;211014;Greek;Repeated;22;8;63,9;8;N;Y;17;65;67,69230769
Athens;555437;24;15;RatingTest;6;4557;211015;Greek;Repeated;22;8;63,9;8;N;Y;17;65;67,69230769
Athens;555437;47;16;RatingTest;1;4587;211016;Greek;Repeated;22;8;63,9;8;N;Y;17;65;67,69230769
Athens;555437;86;17;RatingTest;1;3621;211017;Greek;Repeated;22;8;63,9;8;N;Y;17;65;67,69230769
Athens;555437;115;18;RatingTest;6;4194;211018;Greek;Repeated;22;8;63,9;8;N;Y;17;65;67,69230769
Athens;555437;70;19;RatingTest;1;5896;211019;Greek;Repeated;22;8;63,9;8;N;Y;17;65;67,69230769
Athens;555437;11;20;RatingTest;1;NaN;211020;Greek;Repeated;22;8;63,9;8;N;Y;17;65;67,69230769
Athens;555437;54;21;RatingTest;6;3838;211021;Greek;Repeated;22;8;63,9;8;N;Y;17;65;67,69230769
Athens;555437;45;22;RatingTest;6;4688;211022;Greek;Repeated;22;8;63,9;8;N;Y;17;65;67,69230769
Athens;555437;90;23;RatingTest;1;2783;211023;Greek;Repeated;22;8;63,9;8;N;Y;17;65;67,69230769
Athens;555437;29;24;RatingTest;1;3564;211024;Greek;Repeated;22;8;63,9;8;N;Y;17;65;67,69230769
Athens;555437;15;25;RatingTest;1;4339;211025;Greek;Repeated;22;8;63,9;8;N;Y;17;65;67,69230769
Athens;555437;113;26;RatingTest;1;2998;211026;Greek;Repeated;22;8;63,9;8;N;Y;17;65;67,69230769
Athens;555437;39;27;RatingTest;1;3310;211027;Greek;Repeated;22;8;63,9;8;N;Y;17;65;67,69230769
Athens;555437;93;28;RatingTest;1;3549;211028;Greek;Repeated;22;8;63,9;8;N;Y;17;65;67,69230769
Athens;555437;20;29;RatingTest;1;7775;211029;Greek;Repeated;22;8;63,9;8;N;Y;17;65;67,69230769
Athens;555437;94;30;RatingTest;1;3555;211030;Greek;Repeated;22;8;63,9;8;N;Y;17;65;67,69230769
Athens;555437;84;61;RatingTest;1;3585;421031;Greek;Repeated;22;8;63,9;8;N;Y;17;65;67,69230769
Athens;555437;99;62;RatingTest;6;3018;421032;Greek;Repeated;22;8;63,9;8;N;Y;17;65;67,69230769
Athens;555437;1;63;RatingTest;3;6260;421033;Greek;Repeated;22;8;63,9;8;N;Y;17;65;67,69230769
Athens;555437;60;64;RatingTest;6;4485;421034;Greek;Repeated;22;8;63,9;8;N;Y;17;65;67,69230769
Athens;555437;59;65;RatingTest;1;3196;421035;Greek;Repeated;22;8;63,9;8;N;Y;17;65;67,69230769
Athens;555437;26;66;RatingTest;6;4864;421036;Greek;Repeated;22;8;63,9;8;N;Y;17;65;67,69230769
Athens;555437;72;67;RatingTest;1;3250;421037;Greek;Repeated;22;8;63,9;8;N;Y;17;65;67,69230769
Athens;555437;88;68;RatingTest;1;3024;421038;Greek;Repeated;22;8;63,9;8;N;Y;17;65;67,69230769
Athens;555437;83;69;RatingTest;1;2830;421039;Greek;Repeated;22;8;63,9;8;N;Y;17;65;67,69230769
Athens;555437;85;70;RatingTest;1;3678;421040;Greek;Repeated;22;8;63,9;8;N;Y;17;65;67,69230769
Athens;555437;21;71;RatingTest;1;4308;421041;Greek;Repeated;22;8;63,9;8;N;Y;17;65;67,69230769
Athens;555437;114;72;RatingTest;1;3981;421042;Greek;Repeated;22;8;63,9;8;N;Y;17;65;67,69230769
Athens;555437;68;73;RatingTest;1;4554;421043;Greek;Repeated;22;8;63,9;8;N;Y;17;65;67,69230769
Athens;555437;106;74;RatingTest;6;3224;421044;Greek;Repeated;22;8;63,9;8;N;Y;17;65;67,69230769
Athens;555437;53;75;RatingTest;1;3290;421045;Greek;Repeated;22;8;63,9;8;N;Y;17;65;67,69230769
Athens;555437;35;76;RatingTest;1;3562;421046;Greek;Repeated;22;8;63,9;8;N;Y;17;65;67,69230769
Athens;555437;19;77;RatingTest;1;4316;421047;Greek;Repeated;22;8;63,9;8;N;Y;17;65;67,69230769
Athens;555437;49;78;RatingTest;1;5116;421048;Greek;Repeated;22;8;63,9;8;N;Y;17;65;67,69230769
Athens;555437;36;79;RatingTest;NaN;NaN;421049;Greek;Repeated;22;8;63,9;8;N;Y;17;65;67,69230769
Athens;555437;66;80;RatingTest;1;3648;421050;Greek;Repeated;22;8;63,9;8;N;Y;17;65;67,69230769
Athens;555437;75;81;RatingTest;6;3981;421051;Greek;Repeated;22;8;63,9;8;N;Y;17;65;67,69230769
Athens;555437;87;82;RatingTest;1;3699;421052;Greek;Repeated;22;8;63,9;8;N;Y;17;65;67,69230769
Athens;555437;104;83;RatingTest;6;4403;421053;Greek;Repeated;22;8;63,9;8;N;Y;17;65;67,69230769
Athens;555437;50;84;RatingTest;1;4356;421054;Greek;Repeated;22;8;63,9;8;N;Y;17;65;67,69230769
Athens;555437;32;85;RatingTest;6;3177;421055;Greek;Repeated;22;8;63,9;8;N;Y;17;65;67,69230769
Athens;555437;64;86;RatingTest;1;2731;421056;Greek;Repeated;22;8;63,9;8;N;Y;17;65;67,69230769
Athens;555437;119;87;RatingTest;6;4458;421057;Greek;Repeated;22;8;63,9;8;N;Y;17;65;67,69230769
Athens;555437;116;88;RatingTest;6;3783;421058;Greek;Repeated;22;8;63,9;8;N;Y;17;65;67,69230769
Athens;555437;80;89;RatingTest;1;3852;421059;Greek;Repeated;22;8;63,9;8;N;Y;17;65;67,69230769
Athens;555437;33;90;RatingTest;6;3371;421060;Greek;Repeated;22;8;63,9;8;N;Y;17;65;67,69230769
Athens;555441;93;31;RatingTest;2;972;311061;Greek;Repeated;24;7;61;9,5;N;Y;33;62;82,25806452
Athens;555441;12;32;RatingTest;4;2251;311062;Greek;Repeated;24;7;61;9,5;N;Y;33;62;82,25806452
Athens;555441;11;33;RatingTest;4;3835;311063;Greek;Repeated;24;7;61;9,5;N;Y;33;62;82,25806452
Athens;555441;7;34;RatingTest;6;3393;311064;Greek;Repeated;24;7;61;9,5;N;Y;33;62;82,25806452
Athens;555441;97;35;RatingTest;5;1086;311065;Greek;Repeated;24;7;61;9,5;N;Y;33;62;82,25806452
Athens;555441;119;36;RatingTest;3;1241;311066;Greek;Repeated;24;7;61;9,5;N;Y;33;62;82,25806452
Athens;555441;45;37;RatingTest;4;2817;311067;Greek;Repeated;24;7;61;9,5;N;Y;33;62;82,25806452
Athens;555441;31;38;RatingTest;6;4726;311068;Greek;Repeated;24;7;61;9,5;N;Y;33;62;82,25806452
Athens;555441;21;39;RatingTest;6;2565;311069;Greek;Repeated;24;7;61;9,5;N;Y;33;62;82,25806452
Athens;555441;50;40;RatingTest;5;3265;311070;Greek;Repeated;24;7;61;9,5;N;Y;33;62;82,25806452
Athens;555441;3;41;RatingTest;NaN;NaN;311071;Greek;Repeated;24;7;61;9,5;N;Y;33;62;82,25806452
Athens;555441;73;42;RatingTest;5;1650;311072;Greek;Repeated;24;7;61;9,5;N;Y;33;62;82,25806452
Athens;555441;63;43;RatingTest;4;1306;311073;Greek;Repeated;24;7;61;9,5;N;Y;33;62;82,25806452
Athens;555441;34;44;RatingTest;6;2345;311074;Greek;Repeated;24;7;61;9,5;N;Y;33;62;82,25806452
Athens;555441;32;45;RatingTest;6;2380;311075;Greek;Repeated;24;7;61;9,5;N;Y;33;62;82,25806452
Athens;555441;75;46;RatingTest;2;1976;311076;Greek;Repeated;24;7;61;9,5;N;Y;33;62;82,25806452
Athens;555441;42;47;RatingTest;3;2037;311077;Greek;Repeated;24;7;61;9,5;N;Y;33;62;82,25806452
Athens;555441;86;48;RatingTest;4;1153;311078;Greek;Repeated;24;7;61;9,5;N;Y;33;62;82,25806452
Athens;555441;58;49;RatingTest;3;1261;311079;Greek;Repeated;24;7;61;9,5;N;Y;33;62;82,25806452
Athens;555441;106;50;RatingTest;4;952;311080;Greek;Repeated;24;7;61;9,5;N;Y;33;62;82,25806452
Athens;555441;44;51;RatingTest;6;3278;311081;Greek;Repeated;24;7;61;9,5;N;Y;33;62;82,25806452
Athens;555441;33;52;RatingTest;2;4161;311082;Greek;Repeated;24;7;61;9,5;N;Y;33;62;82,25806452
Athens;555441;103;53;RatingTest;6;1469;311083;Greek;Repeated;24;7;61;9,5;N;Y;33;62;82,25806452
Athens;555441;79;54;RatingTest;2;1294;311084;Greek;Repeated;24;7;61;9,5;N;Y;33;62;82,25806452
Athens;555441;20;55;RatingTest;6;3218;311085;Greek;Repeated;24;7;61;9,5;N;Y;33;62;82,25806452
Athens;555441;120;56;RatingTest;5;1210;311086;Greek;Repeated;24;7;61;9,5;N;Y;33;62;82,25806452
Athens;555441;64;57;RatingTest;4;1224;311087;Greek;Repeated;24;7;61;9,5;N;Y;33;62;82,25806452
Athens;555441;112;58;RatingTest;1;1727;311088;Greek;Repeated;24;7;61;9,5;N;Y;33;62;82,25806452
Athens;555441;4;59;RatingTest;1;4828;311089;Greek;Repeated;24;7;61;9,5;N;Y;33;62;82,25806452
Athens;555441;104;60;RatingTest;5;1544;311090;Greek;Repeated;24;7;61;9,5;N;Y;33;62;82,25806452
Athens;555441;1;91;RatingTest;NaN;NaN;521091;Greek;Repeated;24;7;61;9,5;N;Y;33;62;82,25806452
Athens;555441;105;92;RatingTest;2;1085;521092;Greek;Repeated;24;7;61;9,5;N;Y;33;62;82,25806452
Athens;555441;99;93;RatingTest;1;916;521093;Greek;Repeated;24;7;61;9,5;N;Y;33;62;82,25806452
Athens;555441;90;94;RatingTest;6;1355;521094;Greek;Repeated;24;7;61;9,5;N;Y;33;62;82,25806452
Athens;555441;6;95;RatingTest;1;4828;521095;Greek;Repeated;24;7;61;9,5;N;Y;33;62;82,25806452
Athens;555441;38;96;RatingTest;3;1234;521096;Greek;Repeated;24;7;61;9,5;N;Y;33;62;82,25806452
Athens;555441;62;97;RatingTest;4;1620;521097;Greek;Repeated;24;7;61;9,5;N;Y;33;62;82,25806452
Athens;555441;46;98;RatingTest;2;3091;521098;Greek;Repeated;24;7;61;9,5;N;Y;33;62;82,25806452
Athens;555441;27;99;RatingTest;3;3515;521099;Greek;Repeated;24;7;61;9,5;N;Y;33;62;82,25806452
Athens;555441;117;100;RatingTest;6;1749;521100;Greek;Repeated;24;7;61;9,5;N;Y;33;62;82,25806452
Athens;555441;100;101;RatingTest;3;1497;521101;Greek;Repeated;24;7;61;9,5;N;Y;33;62;82,25806452
Athens;555441;68;102;RatingTest;5;1908;521102;Greek;Repeated;24;7;61;9,5;N;Y;33;62;82,25806452
Athens;555441;26;103;RatingTest;2;3127;521103;Greek;Repeated;24;7;61;9,5;N;Y;33;62;82,25806452
Athens;555441;85;104;RatingTest;4;1592;521104;Greek;Repeated;24;7;61;9,5;N;Y;33;62;82,25806452
Athens;555441;70;105;RatingTest;2;1443;521105;Greek;Repeated;24;7;61;9,5;N;Y;33;62;82,25806452
Athens;555441;56;106;RatingTest;6;2625;521106;Greek;Repeated;24;7;61;9,5;N;Y;33;62;82,25806452
Athens;555441;96;107;RatingTest;4;1177;521107;Greek;Repeated;24;7;61;9,5;N;Y;33;62;82,25806452
Athens;555441;39;108;RatingTest;3;1320;521108;Greek;Repeated;24;7;61;9,5;N;Y;33;62;82,25806452
Athens;555441;24;109;RatingTest;5;5640;521109;Greek;Repeated;24;7;61;9,5;N;Y;33;62;82,25806452
Athens;555441;95;110;RatingTest;4;1005;521110;Greek;Repeated;24;7;61;9,5;N;Y;33;62;82,25806452
Athens;555441;87;111;RatingTest;5;1693;521111;Greek;Repeated;24;7;61;9,5;N;Y;33;62;82,25806452
Athens;555441;83;112;RatingTest;5;2327;521112;Greek;Repeated;24;7;61;9,5;N;Y;33;62;82,25806452
Athens;555441;91;113;RatingTest;4;2084;521113;Greek;Repeated;24;7;61;9,5;N;Y;33;62;82,25806452
Athens;555441;77;114;RatingTest;5;1482;521114;Greek;Repeated;24;7;61;9,5;N;Y;33;62;82,25806452
Athens;555441;18;115;RatingTest;3;4130;521115;Greek;Repeated;24;7;61;9,5;N;Y;33;62;82,25806452
Athens;555441;15;116;RatingTest;2;7014;521116;Greek;Repeated;24;7;61;9,5;N;Y;33;62;82,25806452
Athens;555441;57;117;RatingTest;4;1352;521117;Greek;Repeated;24;7;61;9,5;N;Y;33;62;82,25806452
Athens;555441;71;118;RatingTest;4;1081;521118;Greek;Repeated;24;7;61;9,5;N;Y;33;62;82,25806452
Athens;555441;92;119;RatingTest;3;1644;521119;Greek;Repeated;24;7;61;9,5;N;Y;33;62;82,25806452
Athens;555441;109;120;RatingTest;5;1346;521120;Greek;Repeated;24;7;61;9,5;N;Y;33;62;82,25806452
Athens;555452;112;31;RatingTest;6;4666;321091;English;Repeated;21;6;55,5;7,75;N;Y;41;60;85
Athens;555452;88;32;RatingTest;5;3085;321092;English;Repeated;21;6;55,5;7,75;N;Y;41;60;85
Athens;555452;109;33;RatingTest;6;2787;321093;English;Repeated;21;6;55,5;7,75;N;Y;41;60;85
Athens;555452;29;34;RatingTest;6;3839;321094;English;Repeated;21;6;55,5;7,75;N;Y;41;60;85
Athens;555452;115;35;RatingTest;6;3076;321095;English;Repeated;21;6;55,5;7,75;N;Y;41;60;85
Athens;555452;8;36;RatingTest;6;4525;321096;English;Repeated;21;6;55,5;7,75;N;Y;41;60;85
Athens;555452;25;37;RatingTest;6;4615;321097;English;Repeated;21;6;55,5;7,75;N;Y;41;60;85
Athens;555452;40;38;RatingTest;6;3969;321098;English;Repeated;21;6;55,5;7,75;N;Y;41;60;85
Athens;555452;62;39;RatingTest;6;3437;321099;English;Repeated;21;6;55,5;7,75;N;Y;41;60;85
Athens;555452;87;40;RatingTest;6;6850;321100;English;Repeated;21;6;55,5;7,75;N;Y;41;60;85
Athens;555452;36;41;RatingTest;6;5526;321101;English;Repeated;21;6;55,5;7,75;N;Y;41;60;85
Athens;555452;16;42;RatingTest;6;4853;321102;English;Repeated;21;6;55,5;7,75;N;Y;41;60;85
Athens;555452;17;43;RatingTest;6;4126;321103;English;Repeated;21;6;55,5;7,75;N;Y;41;60;85
Athens;555452;114;44;RatingTest;6;3272;321104;English;Repeated;21;6;55,5;7,75;N;Y;41;60;85
Athens;555452;13;45;RatingTest;6;4199;321105;English;Repeated;21;6;55,5;7,75;N;Y;41;60;85
Athens;555452;102;46;RatingTest;6;5869;321106;English;Repeated;21;6;55,5;7,75;N;Y;41;60;85
Athens;555452;53;47;RatingTest;6;3524;321107;English;Repeated;21;6;55,5;7,75;N;Y;41;60;85
Athens;555452;2;48;RatingTest;6;5034;321108;English;Repeated;21;6;55,5;7,75;N;Y;41;60;85
Athens;555452;91;49;RatingTest;6;5043;321109;English;Repeated;21;6;55,5;7,75;N;Y;41;60;85
Athens;555452;14;50;RatingTest;1;7177;321110;English;Repeated;21;6;55,5;7,75;N;Y;41;60;85
Athens;555452;37;51;RatingTest;6;5226;321111;English;Repeated;21;6;55,5;7,75;N;Y;41;60;85
Athens;555452;77;52;RatingTest;6;3110;321112;English;Repeated;21;6;55,5;7,75;N;Y;41;60;85
Athens;555452;98;53;RatingTest;2;3437;321113;English;Repeated;21;6;55,5;7,75;N;Y;41;60;85
Athens;555452;63;54;RatingTest;6;7706;321114;English;Repeated;21;6;55,5;7,75;N;Y;41;60;85
Athens;555452;43;55;RatingTest;6;3274;321115;English;Repeated;21;6;55,5;7,75;N;Y;41;60;85
Athens;555452;3;56;RatingTest;6;6462;321116;English;Repeated;21;6;55,5;7,75;N;Y;41;60;85
Athens;555452;28;57;RatingTest;6;5958;321117;English;Repeated;21;6;55,5;7,75;N;Y;41;60;85
Athens;555452;92;58;RatingTest;5;4922;321118;English;Repeated;21;6;55,5;7,75;N;Y;41;60;85
Athens;555452;97;59;RatingTest;6;4344;321119;English;Repeated;21;6;55,5;7,75;N;Y;41;60;85
Athens;555452;57;60;RatingTest;6;3873;321120;English;Repeated;21;6;55,5;7,75;N;Y;41;60;85
Athens;555452;100;91;RatingTest;3;4972;511061;English;Repeated;21;6;55,5;7,75;N;Y;41;60;85
Athens;555452;80;92;RatingTest;6;3873;511062;English;Repeated;21;6;55,5;7,75;N;Y;41;60;85
Athens;555452;54;93;RatingTest;6;3123;511063;English;Repeated;21;6;55,5;7,75;N;Y;41;60;85
Athens;555452;12;94;RatingTest;6;5246;511064;English;Repeated;21;6;55,5;7,75;N;Y;41;60;85
Athens;555452;66;95;RatingTest;6;4485;511065;English;Repeated;21;6;55,5;7,75;N;Y;41;60;85
Athens;555452;110;96;RatingTest;6;2800;511066;English;Repeated;21;6;55,5;7,75;N;Y;41;60;85
Athens;555452;64;97;RatingTest;6;4029;511067;English;Repeated;21;6;55,5;7,75;N;Y;41;60;85
Athens;555452;45;98;RatingTest;6;4045;511068;English;Repeated;21;6;55,5;7,75;N;Y;41;60;85
Athens;555452;27;99;RatingTest;6;5177;511069;English;Repeated;21;6;55,5;7,75;N;Y;41;60;85
Athens;555452;11;100;RatingTest;6;3250;511070;English;Repeated;21;6;55,5;7,75;N;Y;41;60;85
Athens;555452;72;101;RatingTest;4;8484;511071;English;Repeated;21;6;55,5;7,75;N;Y;41;60;85
Athens;555452;81;102;RatingTest;6;3894;511072;English;Repeated;21;6;55,5;7,75;N;Y;41;60;85
Athens;555452;39;103;RatingTest;6;3689;511073;English;Repeated;21;6;55,5;7,75;N;Y;41;60;85
Athens;555452;24;104;RatingTest;6;4088;511074;English;Repeated;21;6;55,5;7,75;N;Y;41;60;85
Athens;555452;105;105;RatingTest;6;5407;511075;English;Repeated;21;6;55,5;7,75;N;Y;41;60;85
Athens;555452;73;106;RatingTest;6;3535;511076;English;Repeated;21;6;55,5;7,75;N;Y;41;60;85
Athens;555452;19;107;RatingTest;6;3509;511077;English;Repeated;21;6;55,5;7,75;N;Y;41;60;85
Athens;555452;108;108;RatingTest;6;3626;511078;English;Repeated;21;6;55,5;7,75;N;Y;41;60;85
Athens;555452;52;109;RatingTest;6;3197;511079;English;Repeated;21;6;55,5;7,75;N;Y;41;60;85
Athens;555452;20;110;RatingTest;6;3191;511080;English;Repeated;21;6;55,5;7,75;N;Y;41;60;85
Athens;555452;15;111;RatingTest;6;4237;511081;English;Repeated;21;6;55,5;7,75;N;Y;41;60;85
Athens;555452;119;112;RatingTest;2;3855;511082;English;Repeated;21;6;55,5;7,75;N;Y;41;60;85
Athens;555452;99;113;RatingTest;6;5812;511083;English;Repeated;21;6;55,5;7,75;N;Y;41;60;85
Athens;555452;18;114;RatingTest;4;8694;511084;English;Repeated;21;6;55,5;7,75;N;Y;41;60;85
Athens;555452;6;115;RatingTest;6;5211;511085;English;Repeated;21;6;55,5;7,75;N;Y;41;60;85
Athens;555452;21;116;RatingTest;6;4395;511086;English;Repeated;21;6;55,5;7,75;N;Y;41;60;85
Athens;555452;51;117;RatingTest;6;3842;511087;English;Repeated;21;6;55,5;7,75;N;Y;41;60;85
Athens;555452;59;118;RatingTest;6;4548;511088;English;Repeated;21;6;55,5;7,75;N;Y;41;60;85
Athens;555452;94;119;RatingTest;6;3254;511089;English;Repeated;21;6;55,5;7,75;N;Y;41;60;85
Athens;555452;78;120;RatingTest;6;4258;511090;English;Repeated;21;6;55,5;7,75;N;Y;41;60;85
Athens;555591;1;31;RatingTest;NaN;NaN;311061;English;Repeated;22;7;77,1;8,75;N;N;26;55;67,27272727
Athens;555591;47;32;RatingTest;6;4642;311062;English;Repeated;22;7;77,1;8,75;N;N;26;55;67,27272727
Athens;555591;59;33;RatingTest;1;6250;311063;English;Repeated;22;7;77,1;8,75;N;N;26;55;67,27272727
Athens;555591;5;34;RatingTest;1;8655;311064;English;Repeated;22;7;77,1;8,75;N;N;26;55;67,27272727
Athens;555591;42;35;RatingTest;6;3352;311065;English;Repeated;22;7;77,1;8,75;N;N;26;55;67,27272727
Athens;555591;82;36;RatingTest;6;6685;311066;English;Repeated;22;7;77,1;8,75;N;N;26;55;67,27272727
Athens;555591;56;37;RatingTest;6;4109;311067;English;Repeated;22;7;77,1;8,75;N;N;26;55;67,27272727
Athens;555591;70;38;RatingTest;6;4170;311068;English;Repeated;22;7;77,1;8,75;N;N;26;55;67,27272727
Athens;555591;102;39;RatingTest;6;36768;311069;English;Repeated;22;7;77,1;8,75;N;N;26;55;67,27272727
Athens;555591;78;40;RatingTest;6;22354;311070;English;Repeated;22;7;77,1;8,75;N;N;26;55;67,27272727
Athens;555591;88;41;RatingTest;6;3861;311071;English;Repeated;22;7;77,1;8,75;N;N;26;55;67,27272727
Athens;555591;83;42;RatingTest;6;34786;311072;English;Repeated;22;7;77,1;8,75;N;N;26;55;67,27272727
Athens;555591;106;43;RatingTest;1;4588;311073;English;Repeated;22;7;77,1;8,75;N;N;26;55;67,27272727
Athens;555591;65;44;RatingTest;6;5077;311074;English;Repeated;22;7;77,1;8,75;N;N;26;55;67,27272727
Athens;555591;40;45;RatingTest;6;3415;311075;English;Repeated;22;7;77,1;8,75;N;N;26;55;67,27272727
Athens;555591;87;46;RatingTest;6;3235;311076;English;Repeated;22;7;77,1;8,75;N;N;26;55;67,27272727
Athens;555591;95;47;RatingTest;1;NaN;311077;English;Repeated;22;7;77,1;8,75;N;N;26;55;67,27272727
Athens;555591;91;48;RatingTest;6;4114;311078;English;Repeated;22;7;77,1;8,75;N;N;26;55;67,27272727
Athens;555591;86;49;RatingTest;6;3608;311079;English;Repeated;22;7;77,1;8,75;N;N;26;55;67,27272727
Athens;555591;98;50;RatingTest;6;37539;311080;English;Repeated;22;7;77,1;8,75;N;N;26;55;67,27272727
Athens;555591;111;51;RatingTest;6;6064;311081;English;Repeated;22;7;77,1;8,75;N;N;26;55;67,27272727
Athens;555591;41;52;RatingTest;6;5084;311082;English;Repeated;22;7;77,1;8,75;N;N;26;55;67,27272727
Athens;555591;23;53;RatingTest;6;4016;311083;English;Repeated;22;7;77,1;8,75;N;N;26;55;67,27272727
Athens;555591;9;54;RatingTest;6;6184;311084;English;Repeated;22;7;77,1;8,75;N;N;26;55;67,27272727
Athens;555591;112;55;RatingTest;1;38141;311085;English;Repeated;22;7;77,1;8,75;N;N;26;55;67,27272727
Athens;555591;16;56;RatingTest;6;5069;311086;English;Repeated;22;7;77,1;8,75;N;N;26;55;67,27272727
Athens;555591;81;57;RatingTest;6;56991;311087;English;Repeated;22;7;77,1;8,75;N;N;26;55;67,27272727
Athens;555591;35;58;RatingTest;6;3366;311088;English;Repeated;22;7;77,1;8,75;N;N;26;55;67,27272727
Athens;555591;116;59;RatingTest;6;8409;311089;English;Repeated;22;7;77,1;8,75;N;N;26;55;67,27272727
Athens;555591;75;60;RatingTest;1;12139;311090;English;Repeated;22;7;77,1;8,75;N;N;26;55;67,27272727
Athens;555591;26;91;RatingTest;1;5113;521091;English;Repeated;22;7;77,1;8,75;N;N;26;55;67,27272727
Athens;555591;63;92;RatingTest;6;5245;521092;English;Repeated;22;7;77,1;8,75;N;N;26;55;67,27272727
Athens;555591;37;93;RatingTest;1;5673;521093;English;Repeated;22;7;77,1;8,75;N;N;26;55;67,27272727
Athens;555591;44;94;RatingTest;1;3477;521094;English;Repeated;22;7;77,1;8,75;N;N;26;55;67,27272727
Athens;555591;34;95;RatingTest;6;4760;521095;English;Repeated;22;7;77,1;8,75;N;N;26;55;67,27272727
Athens;555591;3;96;RatingTest;1;5893;521096;English;Repeated;22;7;77,1;8,75;N;N;26;55;67,27272727
Athens;555591;54;97;RatingTest;6;4034;521097;English;Repeated;22;7;77,1;8,75;N;N;26;55;67,27272727
Athens;555591;36;98;RatingTest;6;3751;521098;English;Repeated;22;7;77,1;8,75;N;N;26;55;67,27272727
Athens;555591;20;99;RatingTest;6;4917;521099;English;Repeated;22;7;77,1;8,75;N;N;26;55;67,27272727
Athens;555591;99;100;RatingTest;1;3273;521100;English;Repeated;22;7;77,1;8,75;N;N;26;55;67,27272727
Athens;555591;8;101;RatingTest;1;4759;521101;English;Repeated;22;7;77,1;8,75;N;N;26;55;67,27272727
Athens;555591;119;102;RatingTest;6;4150;521102;English;Repeated;22;7;77,1;8,75;N;N;26;55;67,27272727
Athens;555591;39;103;RatingTest;6;3530;521103;English;Repeated;22;7;77,1;8,75;N;N;26;55;67,27272727
Athens;555591;46;104;RatingTest;6;3271;521104;English;Repeated;22;7;77,1;8,75;N;N;26;55;67,27272727
Athens;555591;76;105;RatingTest;6;5113;521105;English;Repeated;22;7;77,1;8,75;N;N;26;55;67,27272727
Athens;555591;93;106;RatingTest;1;6425;521106;English;Repeated;22;7;77,1;8,75;N;N;26;55;67,27272727
Athens;555591;101;107;RatingTest;6;54330;521107;English;Repeated;22;7;77,1;8,75;N;N;26;55;67,27272727
Athens;555591;14;108;RatingTest;6;3667;521108;English;Repeated;22;7;77,1;8,75;N;N;26;55;67,27272727
Athens;555591;104;109;RatingTest;6;5122;521109;English;Repeated;22;7;77,1;8,75;N;N;26;55;67,27272727
Athens;555591;90;110;RatingTest;1;6263;521110;English;Repeated;22;7;77,1;8,75;N;N;26;55;67,27272727
Athens;555591;96;111;RatingTest;1;4385;521111;English;Repeated;22;7;77,1;8,75;N;N;26;55;67,27272727
Athens;555591;55;112;RatingTest;6;5050;521112;English;Repeated;22;7;77,1;8,75;N;N;26;55;67,27272727
Athens;555591;22;113;RatingTest;1;4838;521113;English;Repeated;22;7;77,1;8,75;N;N;26;55;67,27272727
Athens;555591;10;114;RatingTest;6;5839;521114;English;Repeated;22;7;77,1;8,75;N;N;26;55;67,27272727
Athens;555591;15;115;RatingTest;6;3609;521115;English;Repeated;22;7;77,1;8,75;N;N;26;55;67,27272727
Athens;555591;103;116;RatingTest;6;3926;521116;English;Repeated;22;7;77,1;8,75;N;N;26;55;67,27272727
Athens;555591;13;117;RatingTest;6;4954;521117;English;Repeated;22;7;77,1;8,75;N;N;26;55;67,27272727
Athens;555591;51;118;RatingTest;6;4209;521118;English;Repeated;22;7;77,1;8,75;N;N;26;55;67,27272727
Athens;555591;113;119;RatingTest;1;4551;521119;English;Repeated;22;7;77,1;8,75;N;N;26;55;67,27272727
Athens;555591;45;120;RatingTest;6;6896;521120;English;Repeated;22;7;77,1;8,75;N;N;26;55;67,27272727
Athens;555593;18;1;RatingTest;6;5309;211001;English;Repeated;21;6;41,5;6,5;N;Y;27;55;92,72727273
Athens;555593;117;2;RatingTest;4;4340;211002;English;Repeated;21;6;41,5;6,5;N;Y;27;55;92,72727273
Athens;555593;24;3;RatingTest;6;4558;211003;English;Repeated;21;6;41,5;6,5;N;Y;27;55;92,72727273
Athens;555593;111;4;RatingTest;4;4634;211004;English;Repeated;21;6;41,5;6,5;N;Y;27;55;92,72727273
Athens;555593;3;5;RatingTest;6;5100;211005;English;Repeated;21;6;41,5;6,5;N;Y;27;55;92,72727273
Athens;555593;13;6;RatingTest;5;5413;211006;English;Repeated;21;6;41,5;6,5;N;Y;27;55;92,72727273
Athens;555593;82;7;RatingTest;6;7263;211007;English;Repeated;21;6;41,5;6,5;N;Y;27;55;92,72727273
Athens;555593;46;8;RatingTest;5;4100;211008;English;Repeated;21;6;41,5;6,5;N;Y;27;55;92,72727273
Athens;555593;40;9;RatingTest;6;4038;211009;English;Repeated;21;6;41,5;6,5;N;Y;27;55;92,72727273
Athens;555593;23;10;RatingTest;6;4222;211010;English;Repeated;21;6;41,5;6,5;N;Y;27;55;92,72727273
Athens;555593;120;11;RatingTest;3;7201;211011;English;Repeated;21;6;41,5;6,5;N;Y;27;55;92,72727273
Athens;555593;101;12;RatingTest;4;3265;211012;English;Repeated;21;6;41,5;6,5;N;Y;27;55;92,72727273
Athens;555593;17;13;RatingTest;6;4743;211013;English;Repeated;21;6;41,5;6,5;N;Y;27;55;92,72727273
Athens;555593;56;14;RatingTest;6;3435;211014;English;Repeated;21;6;41,5;6,5;N;Y;27;55;92,72727273
Athens;555593;25;15;RatingTest;3;4585;211015;English;Repeated;21;6;41,5;6,5;N;Y;27;55;92,72727273
Athens;555593;49;16;RatingTest;6;4154;211016;English;Repeated;21;6;41,5;6,5;N;Y;27;55;92,72727273
Athens;555593;6;17;RatingTest;6;5808;211017;English;Repeated;21;6;41,5;6,5;N;Y;27;55;92,72727273
Athens;555593;77;18;RatingTest;5;4656;211018;English;Repeated;21;6;41,5;6,5;N;Y;27;55;92,72727273
Athens;555593;51;19;RatingTest;6;4826;211019;English;Repeated;21;6;41,5;6,5;N;Y;27;55;92,72727273
Athens;555593;103;20;RatingTest;4;4084;211020;English;Repeated;21;6;41,5;6,5;N;Y;27;55;92,72727273
Athens;555593;64;21;RatingTest;6;5887;211021;English;Repeated;21;6;41,5;6,5;N;Y;27;55;92,72727273
Athens;555593;83;22;RatingTest;4;5256;211022;English;Repeated;21;6;41,5;6,5;N;Y;27;55;92,72727273
Athens;555593;89;23;RatingTest;4;4733;211023;English;Repeated;21;6;41,5;6,5;N;Y;27;55;92,72727273
Athens;555593;63;24;RatingTest;6;5971;211024;English;Repeated;21;6;41,5;6,5;N;Y;27;55;92,72727273
Athens;555593;7;25;RatingTest;6;7342;211025;English;Repeated;21;6;41,5;6,5;N;Y;27;55;92,72727273
Athens;555593;32;26;RatingTest;4;5612;211026;English;Repeated;21;6;41,5;6,5;N;Y;27;55;92,72727273
Athens;555593;52;27;RatingTest;6;3908;211027;English;Repeated;21;6;41,5;6,5;N;Y;27;55;92,72727273
Athens;555593;74;28;RatingTest;6;4529;211028;English;Repeated;21;6;41,5;6,5;N;Y;27;55;92,72727273
Athens;555593;81;29;RatingTest;3;5063;211029;English;Repeated;21;6;41,5;6,5;N;Y;27;55;92,72727273
Athens;555593;115;30;RatingTest;2;5895;211030;English;Repeated;21;6;41,5;6,5;N;Y;27;55;92,72727273
Athens;555593;97;61;RatingTest;6;3294;421031;English;Repeated;21;6;41,5;6,5;N;Y;27;55;92,72727273
Athens;555593;104;62;RatingTest;1;5463;421032;English;Repeated;21;6;41,5;6,5;N;Y;27;55;92,72727273
Athens;555593;68;63;RatingTest;4;4539;421033;English;Repeated;21;6;41,5;6,5;N;Y;27;55;92,72727273
Athens;555593;10;64;RatingTest;6;3777;421034;English;Repeated;21;6;41,5;6,5;N;Y;27;55;92,72727273
Athens;555593;31;65;RatingTest;4;5023;421035;English;Repeated;21;6;41,5;6,5;N;Y;27;55;92,72727273
Athens;555593;59;66;RatingTest;4;4187;421036;English;Repeated;21;6;41,5;6,5;N;Y;27;55;92,72727273
Athens;555593;54;67;RatingTest;6;4457;421037;English;Repeated;21;6;41,5;6,5;N;Y;27;55;92,72727273
Athens;555593;66;68;RatingTest;6;4618;421038;English;Repeated;21;6;41,5;6,5;N;Y;27;55;92,72727273
Athens;555593;99;69;RatingTest;3;3929;421039;English;Repeated;21;6;41,5;6,5;N;Y;27;55;92,72727273
Athens;555593;85;70;RatingTest;6;5671;421040;English;Repeated;21;6;41,5;6,5;N;Y;27;55;92,72727273
Athens;555593;39;71;RatingTest;6;4616;421041;English;Repeated;21;6;41,5;6,5;N;Y;27;55;92,72727273
Athens;555593;69;72;RatingTest;4;4227;421042;English;Repeated;21;6;41,5;6,5;N;Y;27;55;92,72727273
Athens;555593;19;73;RatingTest;6;4565;421043;English;Repeated;21;6;41,5;6,5;N;Y;27;55;92,72727273
Athens;555593;14;74;RatingTest;6;4998;421044;English;Repeated;21;6;41,5;6,5;N;Y;27;55;92,72727273
Athens;555593;26;75;RatingTest;6;4049;421045;English;Repeated;21;6;41,5;6,5;N;Y;27;55;92,72727273
Athens;555593;57;76;RatingTest;6;4832;421046;English;Repeated;21;6;41,5;6,5;N;Y;27;55;92,72727273
Athens;555593;102;77;RatingTest;6;4202;421047;English;Repeated;21;6;41,5;6,5;N;Y;27;55;92,72727273
Athens;555593;33;78;RatingTest;5;3674;421048;English;Repeated;21;6;41,5;6,5;N;Y;27;55;92,72727273
Athens;555593;116;79;RatingTest;4;6208;421049;English;Repeated;21;6;41,5;6,5;N;Y;27;55;92,72727273
Athens;555593;21;80;RatingTest;2;NaN;421050;English;Repeated;21;6;41,5;6,5;N;Y;27;55;92,72727273
Athens;555593;71;81;RatingTest;6;5561;421051;English;Repeated;21;6;41,5;6,5;N;Y;27;55;92,72727273
Athens;555593;119;82;RatingTest;1;7900;421052;English;Repeated;21;6;41,5;6,5;N;Y;27;55;92,72727273
Athens;555593;35;83;RatingTest;6;3765;421053;English;Repeated;21;6;41,5;6,5;N;Y;27;55;92,72727273
Athens;555593;47;84;RatingTest;6;4379;421054;English;Repeated;21;6;41,5;6,5;N;Y;27;55;92,72727273
Athens;555593;109;85;RatingTest;3;3207;421055;English;Repeated;21;6;41,5;6,5;N;Y;27;55;92,72727273
Athens;555593;44;86;RatingTest;4;3415;421056;English;Repeated;21;6;41,5;6,5;N;Y;27;55;92,72727273
Athens;555593;75;87;RatingTest;3;4125;421057;English;Repeated;21;6;41,5;6,5;N;Y;27;55;92,72727273
Athens;555593;58;88;RatingTest;3;8890;421058;English;Repeated;21;6;41,5;6,5;N;Y;27;55;92,72727273
Athens;555593;88;89;RatingTest;4;4805;421059;English;Repeated;21;6;41,5;6,5;N;Y;27;55;92,72727273
Athens;555593;11;90;RatingTest;6;4817;421060;English;Repeated;21;6;41,5;6,5;N;Y;27;55;92,72727273
Athens;555915;106;1;RatingTest;4;3958;221031;English;Repeated;27;8;13,9;7,5;N;N;30;59;86,44067797
Athens;555915;93;2;RatingTest;6;4550;221032;English;Repeated;27;8;13,9;7,5;N;N;30;59;86,44067797
Athens;555915;109;3;RatingTest;3;8009;221033;English;Repeated;27;8;13,9;7,5;N;N;30;59;86,44067797
Athens;555915;79;4;RatingTest;2;4065;221034;English;Repeated;27;8;13,9;7,5;N;N;30;59;86,44067797
Athens;555915;11;5;RatingTest;2;3281;221035;English;Repeated;27;8;13,9;7,5;N;N;30;59;86,44067797
Athens;555915;111;6;RatingTest;2;6358;221036;English;Repeated;27;8;13,9;7,5;N;N;30;59;86,44067797
Athens;555915;48;7;RatingTest;4;5224;221037;English;Repeated;27;8;13,9;7,5;N;N;30;59;86,44067797
Athens;555915;18;8;RatingTest;3;3627;221038;English;Repeated;27;8;13,9;7,5;N;N;30;59;86,44067797
Athens;555915;13;9;RatingTest;5;5099;221039;English;Repeated;27;8;13,9;7,5;N;N;30;59;86,44067797
Athens;555915;65;10;RatingTest;3;7825;221040;English;Repeated;27;8;13,9;7,5;N;N;30;59;86,44067797
Athens;555915;5;11;RatingTest;5;4181;221041;English;Repeated;27;8;13,9;7,5;N;N;30;59;86,44067797
Athens;555915;78;12;RatingTest;2;7530;221042;English;Repeated;27;8;13,9;7,5;N;N;30;59;86,44067797
Athens;555915;59;13;RatingTest;3;3065;221043;English;Repeated;27;8;13,9;7,5;N;N;30;59;86,44067797
Athens;555915;81;14;RatingTest;1;3972;221044;English;Repeated;27;8;13,9;7,5;N;N;30;59;86,44067797
Athens;555915;85;15;RatingTest;5;3164;221045;English;Repeated;27;8;13,9;7,5;N;N;30;59;86,44067797
Athens;555915;88;16;RatingTest;2;4268;221046;English;Repeated;27;8;13,9;7,5;N;N;30;59;86,44067797
Athens;555915;97;17;RatingTest;5;2512;221047;English;Repeated;27;8;13,9;7,5;N;N;30;59;86,44067797
Athens;555915;3;18;RatingTest;5;4509;221048;English;Repeated;27;8;13,9;7,5;N;N;30;59;86,44067797
Athens;555915;4;19;RatingTest;5;3110;221049;English;Repeated;27;8;13,9;7,5;N;N;30;59;86,44067797
Athens;555915;100;20;RatingTest;6;4769;221050;English;Repeated;27;8;13,9;7,5;N;N;30;59;86,44067797
Athens;555915;101;21;RatingTest;2;4320;221051;English;Repeated;27;8;13,9;7,5;N;N;30;59;86,44067797
Athens;555915;84;22;RatingTest;2;4363;221052;English;Repeated;27;8;13,9;7,5;N;N;30;59;86,44067797
Athens;555915;20;23;RatingTest;4;6846;221053;English;Repeated;27;8;13,9;7,5;N;N;30;59;86,44067797
Athens;555915;37;24;RatingTest;4;4637;221054;English;Repeated;27;8;13,9;7,5;N;N;30;59;86,44067797
Athens;555915;62;25;RatingTest;6;4260;221055;English;Repeated;27;8;13,9;7,5;N;N;30;59;86,44067797
Athens;555915;112;26;RatingTest;5;7840;221056;English;Repeated;27;8;13,9;7,5;N;N;30;59;86,44067797
Athens;555915;89;27;RatingTest;5;6175;221057;English;Repeated;27;8;13,9;7,5;N;N;30;59;86,44067797
Athens;555915;17;28;RatingTest;1;4351;221058;English;Repeated;27;8;13,9;7,5;N;N;30;59;86,44067797
Athens;555915;120;29;RatingTest;6;2955;221059;English;Repeated;27;8;13,9;7,5;N;N;30;59;86,44067797
Athens;555915;39;30;RatingTest;5;5929;221060;English;Repeated;27;8;13,9;7,5;N;N;30;59;86,44067797
Athens;555915;96;61;RatingTest;5;3180;411001;English;Repeated;27;8;13,9;7,5;N;N;30;59;86,44067797
Athens;555915;35;62;RatingTest;6;4851;411002;English;Repeated;27;8;13,9;7,5;N;N;30;59;86,44067797
Athens;555915;58;63;RatingTest;2;3926;411003;English;Repeated;27;8;13,9;7,5;N;N;30;59;86,44067797
Athens;555915;115;64;RatingTest;5;3388;411004;English;Repeated;27;8;13,9;7,5;N;N;30;59;86,44067797
Athens;555915;75;65;RatingTest;1;2870;411005;English;Repeated;27;8;13,9;7,5;N;N;30;59;86,44067797
Athens;555915;114;66;RatingTest;5;4697;411006;English;Repeated;27;8;13,9;7,5;N;N;30;59;86,44067797
Athens;555915;76;67;RatingTest;5;5786;411007;English;Repeated;27;8;13,9;7,5;N;N;30;59;86,44067797
Athens;555915;119;68;RatingTest;4;9275;411008;English;Repeated;27;8;13,9;7,5;N;N;30;59;86,44067797
Athens;555915;103;69;RatingTest;3;3395;411009;English;Repeated;27;8;13,9;7,5;N;N;30;59;86,44067797
Athens;555915;27;70;RatingTest;5;NaN;411010;English;Repeated;27;8;13,9;7,5;N;N;30;59;86,44067797
Athens;555915;117;71;RatingTest;3;5247;411011;English;Repeated;27;8;13,9;7,5;N;N;30;59;86,44067797
Athens;555915;60;72;RatingTest;1;5686;411012;English;Repeated;27;8;13,9;7,5;N;N;30;59;86,44067797
Athens;555915;19;73;RatingTest;4;7096;411013;English;Repeated;27;8;13,9;7,5;N;N;30;59;86,44067797
Athens;555915;50;74;RatingTest;4;3100;411014;English;Repeated;27;8;13,9;7,5;N;N;30;59;86,44067797
Athens;555915;29;75;RatingTest;5;4280;411015;English;Repeated;27;8;13,9;7,5;N;N;30;59;86,44067797
Athens;555915;67;76;RatingTest;2;4254;411016;English;Repeated;27;8;13,9;7,5;N;N;30;59;86,44067797
Athens;555915;94;77;RatingTest;6;4397;411017;English;Repeated;27;8;13,9;7,5;N;N;30;59;86,44067797
Athens;555915;64;78;RatingTest;6;6328;411018;English;Repeated;27;8;13,9;7,5;N;N;30;59;86,44067797
Athens;555915;42;79;RatingTest;2;5595;411019;English;Repeated;27;8;13,9;7,5;N;N;30;59;86,44067797
Athens;555915;63;80;RatingTest;3;4395;411020;English;Repeated;27;8;13,9;7,5;N;N;30;59;86,44067797
Athens;555915;49;81;RatingTest;5;5047;411021;English;Repeated;27;8;13,9;7,5;N;N;30;59;86,44067797
Athens;555915;105;82;RatingTest;2;3151;411022;English;Repeated;27;8;13,9;7,5;N;N;30;59;86,44067797
Athens;555915;47;83;RatingTest;2;6042;411023;English;Repeated;27;8;13,9;7,5;N;N;30;59;86,44067797
Athens;555915;32;84;RatingTest;4;5681;411024;English;Repeated;27;8;13,9;7,5;N;N;30;59;86,44067797
Athens;555915;55;85;RatingTest;5;4442;411025;English;Repeated;27;8;13,9;7,5;N;N;30;59;86,44067797
Athens;555915;61;86;RatingTest;3;5397;411026;English;Repeated;27;8;13,9;7,5;N;N;30;59;86,44067797
Athens;555915;23;87;RatingTest;1;4565;411027;English;Repeated;27;8;13,9;7,5;N;N;30;59;86,44067797
Athens;555915;26;88;RatingTest;1;6613;411028;English;Repeated;27;8;13,9;7,5;N;N;30;59;86,44067797
Athens;555915;54;89;RatingTest;4;6904;411029;English;Repeated;27;8;13,9;7,5;N;N;30;59;86,44067797
Athens;555915;25;90;RatingTest;1;3905;411030;English;Repeated;27;8;13,9;7,5;N;N;30;59;86,44067797
Athens;555964;39;31;RatingTest;6;3254;311061;Greek;Repeated;21;8;79,8;9;N;Y;29;69;81,15942029
Athens;555964;93;32;RatingTest;1;2708;311062;Greek;Repeated;21;8;79,8;9;N;Y;29;69;81,15942029
Athens;555964;19;33;RatingTest;6;4216;311063;Greek;Repeated;21;8;79,8;9;N;Y;29;69;81,15942029
Athens;555964;46;34;RatingTest;6;3010;311064;Greek;Repeated;21;8;79,8;9;N;Y;29;69;81,15942029
Athens;555964;72;35;RatingTest;6;3623;311065;Greek;Repeated;21;8;79,8;9;N;Y;29;69;81,15942029
Athens;555964;77;36;RatingTest;1;3671;311066;Greek;Repeated;21;8;79,8;9;N;Y;29;69;81,15942029
Athens;555964;90;37;RatingTest;6;2941;311067;Greek;Repeated;21;8;79,8;9;N;Y;29;69;81,15942029
Athens;555964;85;38;RatingTest;6;2685;311068;Greek;Repeated;21;8;79,8;9;N;Y;29;69;81,15942029
Athens;555964;53;39;RatingTest;6;4371;311069;Greek;Repeated;21;8;79,8;9;N;Y;29;69;81,15942029
Athens;555964;16;40;RatingTest;6;2614;311070;Greek;Repeated;21;8;79,8;9;N;Y;29;69;81,15942029
Athens;555964;5;41;RatingTest;1;6378;311071;Greek;Repeated;21;8;79,8;9;N;Y;29;69;81,15942029
Athens;555964;79;42;RatingTest;1;2966;311072;Greek;Repeated;21;8;79,8;9;N;Y;29;69;81,15942029
Athens;555964;120;43;RatingTest;6;3626;311073;Greek;Repeated;21;8;79,8;9;N;Y;29;69;81,15942029
Athens;555964;58;44;RatingTest;6;2246;311074;Greek;Repeated;21;8;79,8;9;N;Y;29;69;81,15942029
Athens;555964;78;45;RatingTest;6;2327;311075;Greek;Repeated;21;8;79,8;9;N;Y;29;69;81,15942029
Athens;555964;112;46;RatingTest;6;2138;311076;Greek;Repeated;21;8;79,8;9;N;Y;29;69;81,15942029
Athens;555964;109;47;RatingTest;6;3246;311077;Greek;Repeated;21;8;79,8;9;N;Y;29;69;81,15942029
Athens;555964;84;48;RatingTest;1;4550;311078;Greek;Repeated;21;8;79,8;9;N;Y;29;69;81,15942029
Athens;555964;74;49;RatingTest;6;2476;311079;Greek;Repeated;21;8;79,8;9;N;Y;29;69;81,15942029
Athens;555964;118;50;RatingTest;6;1780;311080;Greek;Repeated;21;8;79,8;9;N;Y;29;69;81,15942029
Athens;555964;47;51;RatingTest;6;2528;311081;Greek;Repeated;21;8;79,8;9;N;Y;29;69;81,15942029
Athens;555964;9;52;RatingTest;6;5878;311082;Greek;Repeated;21;8;79,8;9;N;Y;29;69;81,15942029
Athens;555964;104;53;RatingTest;6;3848;311083;Greek;Repeated;21;8;79,8;9;N;Y;29;69;81,15942029
Athens;555964;114;54;RatingTest;5;5313;311084;Greek;Repeated;21;8;79,8;9;N;Y;29;69;81,15942029
Athens;555964;22;55;RatingTest;6;4853;311085;Greek;Repeated;21;8;79,8;9;N;Y;29;69;81,15942029
Athens;555964;36;56;RatingTest;6;3450;311086;Greek;Repeated;21;8;79,8;9;N;Y;29;69;81,15942029
Athens;555964;12;57;RatingTest;5;6042;311087;Greek;Repeated;21;8;79,8;9;N;Y;29;69;81,15942029
Athens;555964;21;58;RatingTest;6;2329;311088;Greek;Repeated;21;8;79,8;9;N;Y;29;69;81,15942029
Athens;555964;99;59;RatingTest;6;4112;311089;Greek;Repeated;21;8;79,8;9;N;Y;29;69;81,15942029
Athens;555964;95;60;RatingTest;1;3714;311090;Greek;Repeated;21;8;79,8;9;N;Y;29;69;81,15942029
Athens;555964;23;91;RatingTest;6;3695;521091;Greek;Repeated;21;8;79,8;9;N;Y;29;69;81,15942029
Athens;555964;32;92;RatingTest;1;4376;521092;Greek;Repeated;21;8;79,8;9;N;Y;29;69;81,15942029
Athens;555964;65;93;RatingTest;6;4117;521093;Greek;Repeated;21;8;79,8;9;N;Y;29;69;81,15942029
Athens;555964;75;94;RatingTest;2;3428;521094;Greek;Repeated;21;8;79,8;9;N;Y;29;69;81,15942029
Athens;555964;80;95;RatingTest;6;4259;521095;Greek;Repeated;21;8;79,8;9;N;Y;29;69;81,15942029
Athens;555964;62;96;RatingTest;2;4886;521096;Greek;Repeated;21;8;79,8;9;N;Y;29;69;81,15942029
Athens;555964;71;97;RatingTest;6;6346;521097;Greek;Repeated;21;8;79,8;9;N;Y;29;69;81,15942029
Athens;555964;7;98;RatingTest;6;3161;521098;Greek;Repeated;21;8;79,8;9;N;Y;29;69;81,15942029
Athens;555964;14;99;RatingTest;6;4600;521099;Greek;Repeated;21;8;79,8;9;N;Y;29;69;81,15942029
Athens;555964;82;100;RatingTest;2;4512;521100;Greek;Repeated;21;8;79,8;9;N;Y;29;69;81,15942029
Athens;555964;55;101;RatingTest;6;3482;521101;Greek;Repeated;21;8;79,8;9;N;Y;29;69;81,15942029
Athens;555964;108;102;RatingTest;6;3361;521102;Greek;Repeated;21;8;79,8;9;N;Y;29;69;81,15942029
Athens;555964;45;103;RatingTest;6;3090;521103;Greek;Repeated;21;8;79,8;9;N;Y;29;69;81,15942029
Athens;555964;91;104;RatingTest;6;2516;521104;Greek;Repeated;21;8;79,8;9;N;Y;29;69;81,15942029
Athens;555964;116;105;RatingTest;6;4722;521105;Greek;Repeated;21;8;79,8;9;N;Y;29;69;81,15942029
Athens;555964;61;106;RatingTest;6;4247;521106;Greek;Repeated;21;8;79,8;9;N;Y;29;69;81,15942029
Athens;555964;26;107;RatingTest;6;2835;521107;Greek;Repeated;21;8;79,8;9;N;Y;29;69;81,15942029
Athens;555964;110;108;RatingTest;6;2845;521108;Greek;Repeated;21;8;79,8;9;N;Y;29;69;81,15942029
Athens;555964;119;109;RatingTest;6;3509;521109;Greek;Repeated;21;8;79,8;9;N;Y;29;69;81,15942029
Athens;555964;49;110;RatingTest;6;2853;521110;Greek;Repeated;21;8;79,8;9;N;Y;29;69;81,15942029
Athens;555964;18;111;RatingTest;2;4207;521111;Greek;Repeated;21;8;79,8;9;N;Y;29;69;81,15942029
Athens;555964;37;112;RatingTest;6;5003;521112;Greek;Repeated;21;8;79,8;9;N;Y;29;69;81,15942029
Athens;555964;117;113;RatingTest;6;6238;521113;Greek;Repeated;21;8;79,8;9;N;Y;29;69;81,15942029
Athens;555964;57;114;RatingTest;1;3783;521114;Greek;Repeated;21;8;79,8;9;N;Y;29;69;81,15942029
Athens;555964;30;115;RatingTest;6;3553;521115;Greek;Repeated;21;8;79,8;9;N;Y;29;69;81,15942029
Athens;555964;52;116;RatingTest;6;3227;521116;Greek;Repeated;21;8;79,8;9;N;Y;29;69;81,15942029
Athens;555964;64;117;RatingTest;5;4614;521117;Greek;Repeated;21;8;79,8;9;N;Y;29;69;81,15942029
Athens;555964;1;118;RatingTest;NaN;NaN;521118;Greek;Repeated;21;8;79,8;9;N;Y;29;69;81,15942029
Athens;555964;89;119;RatingTest;1;5343;521119;Greek;Repeated;21;8;79,8;9;N;Y;29;69;81,15942029
Athens;555964;111;120;RatingTest;5;4021;521120;Greek;Repeated;21;8;79,8;9;N;Y;29;69;81,15942029
Athens;555997;23;1;RatingTest;6;6800;211001;Greek;Repeated;27;8;16,9;7,5;N;N;36;48;81,25
Athens;555997;15;2;RatingTest;6;5421;211002;Greek;Repeated;27;8;16,9;7,5;N;N;36;48;81,25
Athens;555997;27;3;RatingTest;6;3996;211003;Greek;Repeated;27;8;16,9;7,5;N;N;36;48;81,25
Athens;555997;101;4;RatingTest;6;4225;211004;Greek;Repeated;27;8;16,9;7,5;N;N;36;48;81,25
Athens;555997;113;5;RatingTest;6;6266;211005;Greek;Repeated;27;8;16,9;7,5;N;N;36;48;81,25
Athens;555997;98;6;RatingTest;6;3888;211006;Greek;Repeated;27;8;16,9;7,5;N;N;36;48;81,25
Athens;555997;66;7;RatingTest;6;5274;211007;Greek;Repeated;27;8;16,9;7,5;N;N;36;48;81,25
Athens;555997;35;8;RatingTest;6;5489;211008;Greek;Repeated;27;8;16,9;7,5;N;N;36;48;81,25
Athens;555997;47;9;RatingTest;6;4563;211009;Greek;Repeated;27;8;16,9;7,5;N;N;36;48;81,25
Athens;555997;8;10;RatingTest;6;5383;211010;Greek;Repeated;27;8;16,9;7,5;N;N;36;48;81,25
Athens;555997;86;11;RatingTest;6;4400;211011;Greek;Repeated;27;8;16,9;7,5;N;N;36;48;81,25
Athens;555997;70;12;RatingTest;6;4801;211012;Greek;Repeated;27;8;16,9;7,5;N;N;36;48;81,25
Athens;555997;87;13;RatingTest;6;4306;211013;Greek;Repeated;27;8;16,9;7,5;N;N;36;48;81,25
Athens;555997;7;14;RatingTest;6;3572;211014;Greek;Repeated;27;8;16,9;7,5;N;N;36;48;81,25
Athens;555997;79;15;RatingTest;6;5782;211015;Greek;Repeated;27;8;16,9;7,5;N;N;36;48;81,25
Athens;555997;1;16;RatingTest;NaN;NaN;211016;Greek;Repeated;27;8;16,9;7,5;N;N;36;48;81,25
Athens;555997;63;17;RatingTest;6;4760;211017;Greek;Repeated;27;8;16,9;7,5;N;N;36;48;81,25
Athens;555997;42;18;RatingTest;6;4386;211018;Greek;Repeated;27;8;16,9;7,5;N;N;36;48;81,25
Athens;555997;84;19;RatingTest;6;6220;211019;Greek;Repeated;27;8;16,9;7,5;N;N;36;48;81,25
Athens;555997;110;20;RatingTest;6;7526;211020;Greek;Repeated;27;8;16,9;7,5;N;N;36;48;81,25
Athens;555997;2;21;RatingTest;NaN;NaN;211021;Greek;Repeated;27;8;16,9;7,5;N;N;36;48;81,25
Athens;555997;11;22;RatingTest;6;4480;211022;Greek;Repeated;27;8;16,9;7,5;N;N;36;48;81,25
Athens;555997;20;23;RatingTest;6;6370;211023;Greek;Repeated;27;8;16,9;7,5;N;N;36;48;81,25
Athens;555997;74;24;RatingTest;6;4936;211024;Greek;Repeated;27;8;16,9;7,5;N;N;36;48;81,25
Athens;555997;51;25;RatingTest;6;5324;211025;Greek;Repeated;27;8;16,9;7,5;N;N;36;48;81,25
Athens;555997;107;26;RatingTest;6;3777;211026;Greek;Repeated;27;8;16,9;7,5;N;N;36;48;81,25
Athens;555997;108;27;RatingTest;1;9083;211027;Greek;Repeated;27;8;16,9;7,5;N;N;36;48;81,25
Athens;555997;12;28;RatingTest;6;3467;211028;Greek;Repeated;27;8;16,9;7,5;N;N;36;48;81,25
Athens;555997;109;29;RatingTest;6;7991;211029;Greek;Repeated;27;8;16,9;7,5;N;N;36;48;81,25
Athens;555997;105;30;RatingTest;6;4452;211030;Greek;Repeated;27;8;16,9;7,5;N;N;36;48;81,25
Athens;555997;114;61;RatingTest;6;6921;421031;Greek;Repeated;27;8;16,9;7,5;N;N;36;48;81,25
Athens;555997;46;62;RatingTest;6;4483;421032;Greek;Repeated;27;8;16,9;7,5;N;N;36;48;81,25
Athens;555997;31;63;RatingTest;6;5761;421033;Greek;Repeated;27;8;16,9;7,5;N;N;36;48;81,25
Athens;555997;6;64;RatingTest;6;3871;421034;Greek;Repeated;27;8;16,9;7,5;N;N;36;48;81,25
Athens;555997;91;65;RatingTest;6;3824;421035;Greek;Repeated;27;8;16,9;7,5;N;N;36;48;81,25
Athens;555997;4;66;RatingTest;6;7528;421036;Greek;Repeated;27;8;16,9;7,5;N;N;36;48;81,25
Athens;555997;75;67;RatingTest;6;3670;421037;Greek;Repeated;27;8;16,9;7,5;N;N;36;48;81,25
Athens;555997;28;68;RatingTest;6;4816;421038;Greek;Repeated;27;8;16,9;7,5;N;N;36;48;81,25
Athens;555997;55;69;RatingTest;6;4477;421039;Greek;Repeated;27;8;16,9;7,5;N;N;36;48;81,25
Athens;555997;89;70;RatingTest;6;5335;421040;Greek;Repeated;27;8;16,9;7,5;N;N;36;48;81,25
Athens;555997;59;71;RatingTest;6;5890;421041;Greek;Repeated;27;8;16,9;7,5;N;N;36;48;81,25
Athens;555997;19;72;RatingTest;6;4058;421042;Greek;Repeated;27;8;16,9;7,5;N;N;36;48;81,25
Athens;555997;64;73;RatingTest;1;7445;421043;Greek;Repeated;27;8;16,9;7,5;N;N;36;48;81,25
Athens;555997;68;74;RatingTest;6;4851;421044;Greek;Repeated;27;8;16,9;7,5;N;N;36;48;81,25
Athens;555997;37;75;RatingTest;6;4118;421045;Greek;Repeated;27;8;16,9;7,5;N;N;36;48;81,25
Athens;555997;57;76;RatingTest;1;5791;421046;Greek;Repeated;27;8;16,9;7,5;N;N;36;48;81,25
Athens;555997;118;77;RatingTest;6;3709;421047;Greek;Repeated;27;8;16,9;7,5;N;N;36;48;81,25
Athens;555997;93;78;RatingTest;6;6249;421048;Greek;Repeated;27;8;16,9;7,5;N;N;36;48;81,25
Athens;555997;26;79;RatingTest;6;4406;421049;Greek;Repeated;27;8;16,9;7,5;N;N;36;48;81,25
Athens;555997;82;80;RatingTest;6;4359;421050;Greek;Repeated;27;8;16,9;7,5;N;N;36;48;81,25
Athens;555997;52;81;RatingTest;6;4148;421051;Greek;Repeated;27;8;16,9;7,5;N;N;36;48;81,25
Athens;555997;88;82;RatingTest;6;4602;421052;Greek;Repeated;27;8;16,9;7,5;N;N;36;48;81,25
Athens;555997;24;83;RatingTest;6;4792;421053;Greek;Repeated;27;8;16,9;7,5;N;N;36;48;81,25
Athens;555997;119;84;RatingTest;6;4746;421054;Greek;Repeated;27;8;16,9;7,5;N;N;36;48;81,25
Athens;555997;120;85;RatingTest;6;3597;421055;Greek;Repeated;27;8;16,9;7,5;N;N;36;48;81,25
Athens;555997;44;86;RatingTest;6;4660;421056;Greek;Repeated;27;8;16,9;7,5;N;N;36;48;81,25
Athens;555997;62;87;RatingTest;6;5317;421057;Greek;Repeated;27;8;16,9;7,5;N;N;36;48;81,25
Athens;555997;56;88;RatingTest;6;4247;421058;Greek;Repeated;27;8;16,9;7,5;N;N;36;48;81,25
Athens;555997;14;89;RatingTest;2;8842;421059;Greek;Repeated;27;8;16,9;7,5;N;N;36;48;81,25
Athens;555997;5;90;RatingTest;6;5108;421060;Greek;Repeated;27;8;16,9;7,5;N;N;36;48;81,25
Athens;556127;54;31;RatingTest;6;3959;321091;English;Repeated;21;7;65,5;8,75;N;Y;29;50;86
Athens;556127;87;32;RatingTest;2;2324;321092;English;Repeated;21;7;65,5;8,75;N;Y;29;50;86
Athens;556127;45;33;RatingTest;6;4300;321093;English;Repeated;21;7;65,5;8,75;N;Y;29;50;86
Athens;556127;28;34;RatingTest;6;3273;321094;English;Repeated;21;7;65,5;8,75;N;Y;29;50;86
Athens;556127;86;35;RatingTest;6;2202;321095;English;Repeated;21;7;65,5;8,75;N;Y;29;50;86
Athens;556127;7;36;RatingTest;3;4422;321096;English;Repeated;21;7;65,5;8,75;N;Y;29;50;86
Athens;556127;27;37;RatingTest;6;3186;321097;English;Repeated;21;7;65,5;8,75;N;Y;29;50;86
Athens;556127;5;38;RatingTest;6;2317;321098;English;Repeated;21;7;65,5;8,75;N;Y;29;50;86
Athens;556127;36;39;RatingTest;6;2230;321099;English;Repeated;21;7;65,5;8,75;N;Y;29;50;86
Athens;556127;63;40;RatingTest;6;NaN;321100;English;Repeated;21;7;65,5;8,75;N;Y;29;50;86
Athens;556127;10;41;RatingTest;6;2675;321101;English;Repeated;21;7;65,5;8,75;N;Y;29;50;86
Athens;556127;118;42;RatingTest;2;2410;321102;English;Repeated;21;7;65,5;8,75;N;Y;29;50;86
Athens;556127;120;43;RatingTest;6;2395;321103;English;Repeated;21;7;65,5;8,75;N;Y;29;50;86
Athens;556127;1;44;RatingTest;6;7801;321104;English;Repeated;21;7;65,5;8,75;N;Y;29;50;86
Athens;556127;93;45;RatingTest;6;2686;321105;English;Repeated;21;7;65,5;8,75;N;Y;29;50;86
Athens;556127;96;46;RatingTest;6;2768;321106;English;Repeated;21;7;65,5;8,75;N;Y;29;50;86
Athens;556127;60;47;RatingTest;6;3567;321107;English;Repeated;21;7;65,5;8,75;N;Y;29;50;86
Athens;556127;34;48;RatingTest;6;2296;321108;English;Repeated;21;7;65,5;8,75;N;Y;29;50;86
Athens;556127;32;49;RatingTest;6;5970;321109;English;Repeated;21;7;65,5;8,75;N;Y;29;50;86
Athens;556127;116;50;RatingTest;6;2247;321110;English;Repeated;21;7;65,5;8,75;N;Y;29;50;86
Athens;556127;17;51;RatingTest;5;3508;321111;English;Repeated;21;7;65,5;8,75;N;Y;29;50;86
Athens;556127;117;52;RatingTest;6;3361;321112;English;Repeated;21;7;65,5;8,75;N;Y;29;50;86
Athens;556127;85;53;RatingTest;2;2124;321113;English;Repeated;21;7;65,5;8,75;N;Y;29;50;86
Athens;556127;39;54;RatingTest;6;3552;321114;English;Repeated;21;7;65,5;8,75;N;Y;29;50;86
Athens;556127;56;55;RatingTest;2;2784;321115;English;Repeated;21;7;65,5;8,75;N;Y;29;50;86
Athens;556127;33;56;RatingTest;6;4117;321116;English;Repeated;21;7;65,5;8,75;N;Y;29;50;86
Athens;556127;30;57;RatingTest;6;3960;321117;English;Repeated;21;7;65,5;8,75;N;Y;29;50;86
Athens;556127;104;58;RatingTest;6;2564;321118;English;Repeated;21;7;65,5;8,75;N;Y;29;50;86
Athens;556127;37;59;RatingTest;2;3154;321119;English;Repeated;21;7;65,5;8,75;N;Y;29;50;86
Athens;556127;61;60;RatingTest;6;3906;321120;English;Repeated;21;7;65,5;8,75;N;Y;29;50;86
Athens;556127;25;91;RatingTest;6;3113;511061;English;Repeated;21;7;65,5;8,75;N;Y;29;50;86
Athens;556127;105;92;RatingTest;2;2805;511062;English;Repeated;21;7;65,5;8,75;N;Y;29;50;86
Athens;556127;71;93;RatingTest;3;3072;511063;English;Repeated;21;7;65,5;8,75;N;Y;29;50;86
Athens;556127;78;94;RatingTest;6;2733;511064;English;Repeated;21;7;65,5;8,75;N;Y;29;50;86
Athens;556127;74;95;RatingTest;6;2202;511065;English;Repeated;21;7;65,5;8,75;N;Y;29;50;86
Athens;556127;3;96;RatingTest;6;2668;511066;English;Repeated;21;7;65,5;8,75;N;Y;29;50;86
Athens;556127;57;97;RatingTest;6;2276;511067;English;Repeated;21;7;65,5;8,75;N;Y;29;50;86
Athens;556127;52;98;RatingTest;6;3521;511068;English;Repeated;21;7;65,5;8,75;N;Y;29;50;86
Athens;556127;113;99;RatingTest;3;1917;511069;English;Repeated;21;7;65,5;8,75;N;Y;29;50;86
Athens;556127;4;100;RatingTest;6;4452;511070;English;Repeated;21;7;65,5;8,75;N;Y;29;50;86
Athens;556127;107;101;RatingTest;6;2762;511071;English;Repeated;21;7;65,5;8,75;N;Y;29;50;86
Athens;556127;41;102;RatingTest;6;3256;511072;English;Repeated;21;7;65,5;8,75;N;Y;29;50;86
Athens;556127;112;103;RatingTest;3;2670;511073;English;Repeated;21;7;65,5;8,75;N;Y;29;50;86
Athens;556127;31;104;RatingTest;6;4158;511074;English;Repeated;21;7;65,5;8,75;N;Y;29;50;86
Athens;556127;16;105;RatingTest;4;4743;511075;English;Repeated;21;7;65,5;8,75;N;Y;29;50;86
Athens;556127;35;106;RatingTest;6;2529;511076;English;Repeated;21;7;65,5;8,75;N;Y;29;50;86
Athens;556127;58;107;RatingTest;3;2477;511077;English;Repeated;21;7;65,5;8,75;N;Y;29;50;86
Athens;556127;102;108;RatingTest;6;3782;511078;English;Repeated;21;7;65,5;8,75;N;Y;29;50;86
Athens;556127;51;109;RatingTest;6;2536;511079;English;Repeated;21;7;65,5;8,75;N;Y;29;50;86
Athens;556127;79;110;RatingTest;6;1804;511080;English;Repeated;21;7;65,5;8,75;N;Y;29;50;86
Athens;556127;111;111;RatingTest;6;2190;511081;English;Repeated;21;7;65,5;8,75;N;Y;29;50;86
Athens;556127;19;112;RatingTest;6;3845;511082;English;Repeated;21;7;65,5;8,75;N;Y;29;50;86
Athens;556127;22;113;RatingTest;6;2480;511083;English;Repeated;21;7;65,5;8,75;N;Y;29;50;86
Athens;556127;88;114;RatingTest;3;2365;511084;English;Repeated;21;7;65,5;8,75;N;Y;29;50;86
Athens;556127;98;115;RatingTest;6;2656;511085;English;Repeated;21;7;65,5;8,75;N;Y;29;50;86
Athens;556127;43;116;RatingTest;6;2835;511086;English;Repeated;21;7;65,5;8,75;N;Y;29;50;86
Athens;556127;69;117;RatingTest;6;2483;511087;English;Repeated;21;7;65,5;8,75;N;Y;29;50;86
Athens;556127;26;118;RatingTest;6;2577;511088;English;Repeated;21;7;65,5;8,75;N;Y;29;50;86
Athens;556127;18;119;RatingTest;2;6645;511089;English;Repeated;21;7;65,5;8,75;N;Y;29;50;86
Athens;556127;55;120;RatingTest;2;2889;511090;English;Repeated;21;7;65,5;8,75;N;Y;29;50;86
Athens;556139;83;1;RatingTest;6;3751;211001;English;Repeated;21;7;49,5;9,75;N;N;14;50;78
Athens;556139;2;2;RatingTest;6;7917;211002;English;Repeated;21;7;49,5;9,75;N;N;14;50;78
Athens;556139;20;3;RatingTest;6;2812;211003;English;Repeated;21;7;49,5;9,75;N;N;14;50;78
Athens;556139;54;4;RatingTest;3;1871;211004;English;Repeated;21;7;49,5;9,75;N;N;14;50;78
Athens;556139;72;5;RatingTest;6;2316;211005;English;Repeated;21;7;49,5;9,75;N;N;14;50;78
Athens;556139;74;6;RatingTest;3;3917;211006;English;Repeated;21;7;49,5;9,75;N;N;14;50;78
Athens;556139;65;7;RatingTest;3;2059;211007;English;Repeated;21;7;49,5;9,75;N;N;14;50;78
Athens;556139;34;8;RatingTest;3;6657;211008;English;Repeated;21;7;49,5;9,75;N;N;14;50;78
Athens;556139;22;9;RatingTest;6;3198;211009;English;Repeated;21;7;49,5;9,75;N;N;14;50;78
Athens;556139;113;10;RatingTest;6;2413;211010;English;Repeated;21;7;49,5;9,75;N;N;14;50;78
Athens;556139;46;11;RatingTest;3;2204;211011;English;Repeated;21;7;49,5;9,75;N;N;14;50;78
Athens;556139;23;12;RatingTest;6;3747;211012;English;Repeated;21;7;49,5;9,75;N;N;14;50;78
Athens;556139;11;13;RatingTest;1;6393;211013;English;Repeated;21;7;49,5;9,75;N;N;14;50;78
Athens;556139;31;14;RatingTest;6;2840;211014;English;Repeated;21;7;49,5;9,75;N;N;14;50;78
Athens;556139;104;15;RatingTest;6;2291;211015;English;Repeated;21;7;49,5;9,75;N;N;14;50;78
Athens;556139;44;16;RatingTest;6;2243;211016;English;Repeated;21;7;49,5;9,75;N;N;14;50;78
Athens;556139;112;17;RatingTest;6;2312;211017;English;Repeated;21;7;49,5;9,75;N;N;14;50;78
Athens;556139;32;18;RatingTest;6;3360;211018;English;Repeated;21;7;49,5;9,75;N;N;14;50;78
Athens;556139;81;19;RatingTest;6;4540;211019;English;Repeated;21;7;49,5;9,75;N;N;14;50;78
Athens;556139;6;20;RatingTest;1;5234;211020;English;Repeated;21;7;49,5;9,75;N;N;14;50;78
Athens;556139;76;21;RatingTest;6;2181;211021;English;Repeated;21;7;49,5;9,75;N;N;14;50;78
Athens;556139;42;22;RatingTest;6;7321;211022;English;Repeated;21;7;49,5;9,75;N;N;14;50;78
Athens;556139;75;23;RatingTest;3;2371;211023;English;Repeated;21;7;49,5;9,75;N;N;14;50;78
Athens;556139;80;24;RatingTest;6;3497;211024;English;Repeated;21;7;49,5;9,75;N;N;14;50;78
Athens;556139;87;25;RatingTest;3;1500;211025;English;Repeated;21;7;49,5;9,75;N;N;14;50;78
Athens;556139;103;26;RatingTest;3;3083;211026;English;Repeated;21;7;49,5;9,75;N;N;14;50;78
Athens;556139;5;27;RatingTest;6;2836;211027;English;Repeated;21;7;49,5;9,75;N;N;14;50;78
Athens;556139;97;28;RatingTest;6;2632;211028;English;Repeated;21;7;49,5;9,75;N;N;14;50;78
Athens;556139;9;29;RatingTest;6;4702;211029;English;Repeated;21;7;49,5;9,75;N;N;14;50;78
Athens;556139;62;30;RatingTest;6;3717;211030;English;Repeated;21;7;49,5;9,75;N;N;14;50;78
Athens;556139;26;61;RatingTest;6;3222;421031;English;Repeated;21;7;49,5;9,75;N;N;14;50;78
Athens;556139;61;62;RatingTest;6;2099;421032;English;Repeated;21;7;49,5;9,75;N;N;14;50;78
Athens;556139;60;63;RatingTest;6;2555;421033;English;Repeated;21;7;49,5;9,75;N;N;14;50;78
Athens;556139;99;64;RatingTest;6;3589;421034;English;Repeated;21;7;49,5;9,75;N;N;14;50;78
Athens;556139;69;65;RatingTest;6;2711;421035;English;Repeated;21;7;49,5;9,75;N;N;14;50;78
Athens;556139;120;66;RatingTest;3;3773;421036;English;Repeated;21;7;49,5;9,75;N;N;14;50;78
Athens;556139;43;67;RatingTest;6;2361;421037;English;Repeated;21;7;49,5;9,75;N;N;14;50;78
Athens;556139;70;68;RatingTest;6;4403;421038;English;Repeated;21;7;49,5;9,75;N;N;14;50;78
Athens;556139;73;69;RatingTest;6;2493;421039;English;Repeated;21;7;49,5;9,75;N;N;14;50;78
Athens;556139;90;70;RatingTest;3;3658;421040;English;Repeated;21;7;49,5;9,75;N;N;14;50;78
Athens;556139;55;71;RatingTest;3;1846;421041;English;Repeated;21;7;49,5;9,75;N;N;14;50;78
Athens;556139;52;72;RatingTest;3;2587;421042;English;Repeated;21;7;49,5;9,75;N;N;14;50;78
Athens;556139;36;73;RatingTest;3;3797;421043;English;Repeated;21;7;49,5;9,75;N;N;14;50;78
Athens;556139;98;74;RatingTest;6;2372;421044;English;Repeated;21;7;49,5;9,75;N;N;14;50;78
Athens;556139;106;75;RatingTest;6;2023;421045;English;Repeated;21;7;49,5;9,75;N;N;14;50;78
Athens;556139;41;76;RatingTest;1;3321;421046;English;Repeated;21;7;49,5;9,75;N;N;14;50;78
Athens;556139;38;77;RatingTest;NaN;NaN;421047;English;Repeated;21;7;49,5;9,75;N;N;14;50;78
Athens;556139;116;78;RatingTest;6;2395;421048;English;Repeated;21;7;49,5;9,75;N;N;14;50;78
Athens;556139;78;79;RatingTest;2;3117;421049;English;Repeated;21;7;49,5;9,75;N;N;14;50;78
Athens;556139;82;80;RatingTest;6;4597;421050;English;Repeated;21;7;49,5;9,75;N;N;14;50;78
Athens;556139;58;81;RatingTest;1;5159;421051;English;Repeated;21;7;49,5;9,75;N;N;14;50;78
Athens;556139;12;82;RatingTest;6;4453;421052;English;Repeated;21;7;49,5;9,75;N;N;14;50;78
Athens;556139;24;83;RatingTest;6;4099;421053;English;Repeated;21;7;49,5;9,75;N;N;14;50;78
Athens;556139;92;84;RatingTest;6;2497;421054;English;Repeated;21;7;49,5;9,75;N;N;14;50;78
Athens;556139;68;85;RatingTest;6;2614;421055;English;Repeated;21;7;49,5;9,75;N;N;14;50;78
Athens;556139;64;86;RatingTest;3;2604;421056;English;Repeated;21;7;49,5;9,75;N;N;14;50;78
Athens;556139;19;87;RatingTest;6;3516;421057;English;Repeated;21;7;49,5;9,75;N;N;14;50;78
Athens;556139;88;88;RatingTest;6;2127;421058;English;Repeated;21;7;49,5;9,75;N;N;14;50;78
Athens;556139;15;89;RatingTest;6;4416;421059;English;Repeated;21;7;49,5;9,75;N;N;14;50;78
Athens;556139;1;90;RatingTest;NaN;NaN;421060;English;Repeated;21;7;49,5;9,75;N;N;14;50;78
Athens;556141;92;1;RatingTest;6;3691;221031;English;Repeated;22;6;73,3;8,25;N;Y;35;52;82,69230769
Athens;556141;117;2;RatingTest;6;2684;221032;English;Repeated;22;6;73,3;8,25;N;Y;35;52;82,69230769
Athens;556141;31;3;RatingTest;5;3535;221033;English;Repeated;22;6;73,3;8,25;N;Y;35;52;82,69230769
Athens;556141;24;4;RatingTest;6;4589;221034;English;Repeated;22;6;73,3;8,25;N;Y;35;52;82,69230769
Athens;556141;26;5;RatingTest;6;3221;221035;English;Repeated;22;6;73,3;8,25;N;Y;35;52;82,69230769
Athens;556141;25;6;RatingTest;6;4240;221036;English;Repeated;22;6;73,3;8,25;N;Y;35;52;82,69230769
Athens;556141;16;7;RatingTest;6;4583;221037;English;Repeated;22;6;73,3;8,25;N;Y;35;52;82,69230769
Athens;556141;27;8;RatingTest;6;4101;221038;English;Repeated;22;6;73,3;8,25;N;Y;35;52;82,69230769
Athens;556141;47;9;RatingTest;6;3178;221039;English;Repeated;22;6;73,3;8,25;N;Y;35;52;82,69230769
Athens;556141;13;10;RatingTest;6;3633;221040;English;Repeated;22;6;73,3;8,25;N;Y;35;52;82,69230769
Athens;556141;76;11;RatingTest;6;3656;221041;English;Repeated;22;6;73,3;8,25;N;Y;35;52;82,69230769
Athens;556141;102;12;RatingTest;6;3905;221042;English;Repeated;22;6;73,3;8,25;N;Y;35;52;82,69230769
Athens;556141;88;13;RatingTest;1;4782;221043;English;Repeated;22;6;73,3;8,25;N;Y;35;52;82,69230769
Athens;556141;104;14;RatingTest;6;4953;221044;English;Repeated;22;6;73,3;8,25;N;Y;35;52;82,69230769
Athens;556141;103;15;RatingTest;6;2825;221045;English;Repeated;22;6;73,3;8,25;N;Y;35;52;82,69230769
Athens;556141;96;16;RatingTest;6;3439;221046;English;Repeated;22;6;73,3;8,25;N;Y;35;52;82,69230769
Athens;556141;109;17;RatingTest;6;3057;221047;English;Repeated;22;6;73,3;8,25;N;Y;35;52;82,69230769
Athens;556141;61;18;RatingTest;6;4785;221048;English;Repeated;22;6;73,3;8,25;N;Y;35;52;82,69230769
Athens;556141;74;19;RatingTest;6;3083;221049;English;Repeated;22;6;73,3;8,25;N;Y;35;52;82,69230769
Athens;556141;48;20;RatingTest;6;7891;221050;English;Repeated;22;6;73,3;8,25;N;Y;35;52;82,69230769
Athens;556141;33;21;RatingTest;6;3832;221051;English;Repeated;22;6;73,3;8,25;N;Y;35;52;82,69230769
Athens;556141;105;22;RatingTest;6;3291;221052;English;Repeated;22;6;73,3;8,25;N;Y;35;52;82,69230769
Athens;556141;38;23;RatingTest;6;3939;221053;English;Repeated;22;6;73,3;8,25;N;Y;35;52;82,69230769
Athens;556141;110;24;RatingTest;3;4241;221054;English;Repeated;22;6;73,3;8,25;N;Y;35;52;82,69230769
Athens;556141;115;25;RatingTest;6;3358;221055;English;Repeated;22;6;73,3;8,25;N;Y;35;52;82,69230769
Athens;556141;56;26;RatingTest;6;3443;221056;English;Repeated;22;6;73,3;8,25;N;Y;35;52;82,69230769
Athens;556141;45;27;RatingTest;6;7793;221057;English;Repeated;22;6;73,3;8,25;N;Y;35;52;82,69230769
Athens;556141;43;28;RatingTest;6;2867;221058;English;Repeated;22;6;73,3;8,25;N;Y;35;52;82,69230769
Athens;556141;6;29;RatingTest;6;7970;221059;English;Repeated;22;6;73,3;8,25;N;Y;35;52;82,69230769
Athens;556141;72;30;RatingTest;6;3316;221060;English;Repeated;22;6;73,3;8,25;N;Y;35;52;82,69230769
Athens;556141;95;61;RatingTest;6;2836;411001;English;Repeated;22;6;73,3;8,25;N;Y;35;52;82,69230769
Athens;556141;90;62;RatingTest;6;3526;411002;English;Repeated;22;6;73,3;8,25;N;Y;35;52;82,69230769
Athens;556141;19;63;RatingTest;6;4241;411003;English;Repeated;22;6;73,3;8,25;N;Y;35;52;82,69230769
Athens;556141;35;64;RatingTest;5;4459;411004;English;Repeated;22;6;73,3;8,25;N;Y;35;52;82,69230769
Athens;556141;12;65;RatingTest;2;4399;411005;English;Repeated;22;6;73,3;8,25;N;Y;35;52;82,69230769
Athens;556141;83;66;RatingTest;6;4203;411006;English;Repeated;22;6;73,3;8,25;N;Y;35;52;82,69230769
Athens;556141;17;67;RatingTest;6;8883;411007;English;Repeated;22;6;73,3;8,25;N;Y;35;52;82,69230769
Athens;556141;106;68;RatingTest;6;2968;411008;English;Repeated;22;6;73,3;8,25;N;Y;35;52;82,69230769
Athens;556141;93;69;RatingTest;6;3153;411009;English;Repeated;22;6;73,3;8,25;N;Y;35;52;82,69230769
Athens;556141;63;70;RatingTest;6;2966;411010;English;Repeated;22;6;73,3;8,25;N;Y;35;52;82,69230769
Athens;556141;15;71;RatingTest;6;3958;411011;English;Repeated;22;6;73,3;8,25;N;Y;35;52;82,69230769
Athens;556141;99;72;RatingTest;6;5643;411012;English;Repeated;22;6;73,3;8,25;N;Y;35;52;82,69230769
Athens;556141;73;73;RatingTest;6;3189;411013;English;Repeated;22;6;73,3;8,25;N;Y;35;52;82,69230769
Athens;556141;34;74;RatingTest;6;3789;411014;English;Repeated;22;6;73,3;8,25;N;Y;35;52;82,69230769
Athens;556141;18;75;RatingTest;6;3808;411015;English;Repeated;22;6;73,3;8,25;N;Y;35;52;82,69230769
Athens;556141;7;76;RatingTest;6;4475;411016;English;Repeated;22;6;73,3;8,25;N;Y;35;52;82,69230769
Athens;556141;97;77;RatingTest;6;5285;411017;English;Repeated;22;6;73,3;8,25;N;Y;35;52;82,69230769
Athens;556141;20;78;RatingTest;6;9348;411018;English;Repeated;22;6;73,3;8,25;N;Y;35;52;82,69230769
Athens;556141;71;79;RatingTest;6;3524;411019;English;Repeated;22;6;73,3;8,25;N;Y;35;52;82,69230769
Athens;556141;55;80;RatingTest;2;3625;411020;English;Repeated;22;6;73,3;8,25;N;Y;35;52;82,69230769
Athens;556141;69;81;RatingTest;6;3136;411021;English;Repeated;22;6;73,3;8,25;N;Y;35;52;82,69230769
Athens;556141;60;82;RatingTest;6;3361;411022;English;Repeated;22;6;73,3;8,25;N;Y;35;52;82,69230769
Athens;556141;46;83;RatingTest;6;3418;411023;English;Repeated;22;6;73,3;8,25;N;Y;35;52;82,69230769
Athens;556141;80;84;RatingTest;6;3389;411024;English;Repeated;22;6;73,3;8,25;N;Y;35;52;82,69230769
Athens;556141;32;85;RatingTest;1;5390;411025;English;Repeated;22;6;73,3;8,25;N;Y;35;52;82,69230769
Athens;556141;22;86;RatingTest;6;3825;411026;English;Repeated;22;6;73,3;8,25;N;Y;35;52;82,69230769
Athens;556141;82;87;RatingTest;6;3600;411027;English;Repeated;22;6;73,3;8,25;N;Y;35;52;82,69230769
Athens;556141;3;88;RatingTest;6;4791;411028;English;Repeated;22;6;73,3;8,25;N;Y;35;52;82,69230769
Athens;556141;62;89;RatingTest;3;3753;411029;English;Repeated;22;6;73,3;8,25;N;Y;35;52;82,69230769
Athens;556141;57;90;RatingTest;6;3470;411030;English;Repeated;22;6;73,3;8,25;N;Y;35;52;82,69230769
Athens;556220;93;1;RatingTest;4;4171;221031;Greek;Repeated;21;7;59,9;8;N;N;36;45;73,33333333
Athens;556220;70;2;RatingTest;1;4435;221032;Greek;Repeated;21;7;59,9;8;N;N;36;45;73,33333333
Athens;556220;52;3;RatingTest;6;3191;221033;Greek;Repeated;21;7;59,9;8;N;N;36;45;73,33333333
Athens;556220;68;4;RatingTest;6;2913;221034;Greek;Repeated;21;7;59,9;8;N;N;36;45;73,33333333
Athens;556220;65;5;RatingTest;4;4162;221035;Greek;Repeated;21;7;59,9;8;N;N;36;45;73,33333333
Athens;556220;38;6;RatingTest;5;5159;221036;Greek;Repeated;21;7;59,9;8;N;N;36;45;73,33333333
Athens;556220;80;7;RatingTest;6;3855;221037;Greek;Repeated;21;7;59,9;8;N;N;36;45;73,33333333
Athens;556220;86;8;RatingTest;6;4417;221038;Greek;Repeated;21;7;59,9;8;N;N;36;45;73,33333333
Athens;556220;92;9;RatingTest;5;4466;221039;Greek;Repeated;21;7;59,9;8;N;N;36;45;73,33333333
Athens;556220;18;10;RatingTest;5;4082;221040;Greek;Repeated;21;7;59,9;8;N;N;36;45;73,33333333
Athens;556220;108;11;RatingTest;4;5261;221041;Greek;Repeated;21;7;59,9;8;N;N;36;45;73,33333333
Athens;556220;12;12;RatingTest;1;4301;221042;Greek;Repeated;21;7;59,9;8;N;N;36;45;73,33333333
Athens;556220;73;13;RatingTest;5;5379;221043;Greek;Repeated;21;7;59,9;8;N;N;36;45;73,33333333
Athens;556220;55;14;RatingTest;6;3619;221044;Greek;Repeated;21;7;59,9;8;N;N;36;45;73,33333333
Athens;556220;26;15;RatingTest;6;4803;221045;Greek;Repeated;21;7;59,9;8;N;N;36;45;73,33333333
Athens;556220;30;16;RatingTest;2;4868;221046;Greek;Repeated;21;7;59,9;8;N;N;36;45;73,33333333
Athens;556220;118;17;RatingTest;6;4560;221047;Greek;Repeated;21;7;59,9;8;N;N;36;45;73,33333333
Athens;556220;62;18;RatingTest;4;6242;221048;Greek;Repeated;21;7;59,9;8;N;N;36;45;73,33333333
Athens;556220;94;19;RatingTest;6;3433;221049;Greek;Repeated;21;7;59,9;8;N;N;36;45;73,33333333
Athens;556220;76;20;RatingTest;6;5252;221050;Greek;Repeated;21;7;59,9;8;N;N;36;45;73,33333333
Athens;556220;16;21;RatingTest;6;3663;221051;Greek;Repeated;21;7;59,9;8;N;N;36;45;73,33333333
Athens;556220;35;22;RatingTest;6;3551;221052;Greek;Repeated;21;7;59,9;8;N;N;36;45;73,33333333
Athens;556220;5;23;RatingTest;6;4365;221053;Greek;Repeated;21;7;59,9;8;N;N;36;45;73,33333333
Athens;556220;77;24;RatingTest;6;3789;221054;Greek;Repeated;21;7;59,9;8;N;N;36;45;73,33333333
Athens;556220;4;25;RatingTest;6;4386;221055;Greek;Repeated;21;7;59,9;8;N;N;36;45;73,33333333
Athens;556220;42;26;RatingTest;6;4205;221056;Greek;Repeated;21;7;59,9;8;N;N;36;45;73,33333333
Athens;556220;91;27;RatingTest;6;5801;221057;Greek;Repeated;21;7;59,9;8;N;N;36;45;73,33333333
Athens;556220;109;28;RatingTest;6;2916;221058;Greek;Repeated;21;7;59,9;8;N;N;36;45;73,33333333
Athens;556220;116;29;RatingTest;6;4594;221059;Greek;Repeated;21;7;59,9;8;N;N;36;45;73,33333333
Athens;556220;56;30;RatingTest;5;5852;221060;Greek;Repeated;21;7;59,9;8;N;N;36;45;73,33333333
Athens;556220;75;61;RatingTest;6;3566;411001;Greek;Repeated;21;7;59,9;8;N;N;36;45;73,33333333
Athens;556220;99;62;RatingTest;6;4223;411002;Greek;Repeated;21;7;59,9;8;N;N;36;45;73,33333333
Athens;556220;20;63;RatingTest;5;5956;411003;Greek;Repeated;21;7;59,9;8;N;N;36;45;73,33333333
Athens;556220;104;64;RatingTest;5;3759;411004;Greek;Repeated;21;7;59,9;8;N;N;36;45;73,33333333
Athens;556220;120;65;RatingTest;6;3094;411005;Greek;Repeated;21;7;59,9;8;N;N;36;45;73,33333333
Athens;556220;46;66;RatingTest;6;3604;411006;Greek;Repeated;21;7;59,9;8;N;N;36;45;73,33333333
Athens;556220;119;67;RatingTest;4;5645;411007;Greek;Repeated;21;7;59,9;8;N;N;36;45;73,33333333
Athens;556220;102;68;RatingTest;5;5039;411008;Greek;Repeated;21;7;59,9;8;N;N;36;45;73,33333333
Athens;556220;67;69;RatingTest;6;4966;411009;Greek;Repeated;21;7;59,9;8;N;N;36;45;73,33333333
Athens;556220;19;70;RatingTest;6;3198;411010;Greek;Repeated;21;7;59,9;8;N;N;36;45;73,33333333
Athens;556220;78;71;RatingTest;6;4901;411011;Greek;Repeated;21;7;59,9;8;N;N;36;45;73,33333333
Athens;556220;88;72;RatingTest;6;4121;411012;Greek;Repeated;21;7;59,9;8;N;N;36;45;73,33333333
Athens;556220;41;73;RatingTest;5;5751;411013;Greek;Repeated;21;7;59,9;8;N;N;36;45;73,33333333
Athens;556220;114;74;RatingTest;6;3663;411014;Greek;Repeated;21;7;59,9;8;N;N;36;45;73,33333333
Athens;556220;44;75;RatingTest;5;4483;411015;Greek;Repeated;21;7;59,9;8;N;N;36;45;73,33333333
Athens;556220;1;76;RatingTest;6;9290;411016;Greek;Repeated;21;7;59,9;8;N;N;36;45;73,33333333
Athens;556220;71;77;RatingTest;6;6035;411017;Greek;Repeated;21;7;59,9;8;N;N;36;45;73,33333333
Athens;556220;105;78;RatingTest;6;3869;411018;Greek;Repeated;21;7;59,9;8;N;N;36;45;73,33333333
Athens;556220;34;79;RatingTest;5;4396;411019;Greek;Repeated;21;7;59,9;8;N;N;36;45;73,33333333
Athens;556220;49;80;RatingTest;6;5314;411020;Greek;Repeated;21;7;59,9;8;N;N;36;45;73,33333333
Athens;556220;84;81;RatingTest;6;4106;411021;Greek;Repeated;21;7;59,9;8;N;N;36;45;73,33333333
Athens;556220;106;82;RatingTest;6;3131;411022;Greek;Repeated;21;7;59,9;8;N;N;36;45;73,33333333
Athens;556220;117;83;RatingTest;5;4813;411023;Greek;Repeated;21;7;59,9;8;N;N;36;45;73,33333333
Athens;556220;22;84;RatingTest;2;3848;411024;Greek;Repeated;21;7;59,9;8;N;N;36;45;73,33333333
Athens;556220;87;85;RatingTest;4;4396;411025;Greek;Repeated;21;7;59,9;8;N;N;36;45;73,33333333
Athens;556220;13;86;RatingTest;1;4501;411026;Greek;Repeated;21;7;59,9;8;N;N;36;45;73,33333333
Athens;556220;113;87;RatingTest;6;3337;411027;Greek;Repeated;21;7;59,9;8;N;N;36;45;73,33333333
Athens;556220;43;88;RatingTest;6;4084;411028;Greek;Repeated;21;7;59,9;8;N;N;36;45;73,33333333
Athens;556220;8;89;RatingTest;1;3996;411029;Greek;Repeated;21;7;59,9;8;N;N;36;45;73,33333333
Athens;556220;90;90;RatingTest;6;4621;411030;Greek;Repeated;21;7;59,9;8;N;N;36;45;73,33333333
Athens;556242;28;31;RatingTest;6;6254;321091;Greek;Repeated;21;6;52,3;6,75;N;Y;20;66;87,87878788
Athens;556242;111;32;RatingTest;4;5532;321092;Greek;Repeated;21;6;52,3;6,75;N;Y;20;66;87,87878788
Athens;556242;107;33;RatingTest;4;2060;321093;Greek;Repeated;21;6;52,3;6,75;N;Y;20;66;87,87878788
Athens;556242;64;34;RatingTest;5;3125;321094;Greek;Repeated;21;6;52,3;6,75;N;Y;20;66;87,87878788
Athens;556242;59;35;RatingTest;5;4329;321095;Greek;Repeated;21;6;52,3;6,75;N;Y;20;66;87,87878788
Athens;556242;34;36;RatingTest;5;8983;321096;Greek;Repeated;21;6;52,3;6,75;N;Y;20;66;87,87878788
Athens;556242;3;37;RatingTest;5;2856;321097;Greek;Repeated;21;6;52,3;6,75;N;Y;20;66;87,87878788
Athens;556242;56;38;RatingTest;6;2774;321098;Greek;Repeated;21;6;52,3;6,75;N;Y;20;66;87,87878788
Athens;556242;51;39;RatingTest;3;3126;321099;Greek;Repeated;21;6;52,3;6,75;N;Y;20;66;87,87878788
Athens;556242;92;40;RatingTest;4;7626;321100;Greek;Repeated;21;6;52,3;6,75;N;Y;20;66;87,87878788
Athens;556242;18;41;RatingTest;5;3052;321101;Greek;Repeated;21;6;52,3;6,75;N;Y;20;66;87,87878788
Athens;556242;90;42;RatingTest;6;3417;321102;Greek;Repeated;21;6;52,3;6,75;N;Y;20;66;87,87878788
Athens;556242;89;43;RatingTest;3;2789;321103;Greek;Repeated;21;6;52,3;6,75;N;Y;20;66;87,87878788
Athens;556242;47;44;RatingTest;2;4604;321104;Greek;Repeated;21;6;52,3;6,75;N;Y;20;66;87,87878788
Athens;556242;73;45;RatingTest;6;4928;321105;Greek;Repeated;21;6;52,3;6,75;N;Y;20;66;87,87878788
Athens;556242;100;46;RatingTest;4;2109;321106;Greek;Repeated;21;6;52,3;6,75;N;Y;20;66;87,87878788
Athens;556242;54;47;RatingTest;6;2312;321107;Greek;Repeated;21;6;52,3;6,75;N;Y;20;66;87,87878788
Athens;556242;12;48;RatingTest;6;7040;321108;Greek;Repeated;21;6;52,3;6,75;N;Y;20;66;87,87878788
Athens;556242;113;49;RatingTest;4;2116;321109;Greek;Repeated;21;6;52,3;6,75;N;Y;20;66;87,87878788
Athens;556242;83;50;RatingTest;2;2981;321110;Greek;Repeated;21;6;52,3;6,75;N;Y;20;66;87,87878788
Athens;556242;94;51;RatingTest;3;6310;321111;Greek;Repeated;21;6;52,3;6,75;N;Y;20;66;87,87878788
Athens;556242;43;52;RatingTest;6;2654;321112;Greek;Repeated;21;6;52,3;6,75;N;Y;20;66;87,87878788
Athens;556242;72;53;RatingTest;4;2853;321113;Greek;Repeated;21;6;52,3;6,75;N;Y;20;66;87,87878788
Athens;556242;55;54;RatingTest;6;2873;321114;Greek;Repeated;21;6;52,3;6,75;N;Y;20;66;87,87878788
Athens;556242;29;55;RatingTest;6;2721;321115;Greek;Repeated;21;6;52,3;6,75;N;Y;20;66;87,87878788
Athens;556242;119;56;RatingTest;5;3782;321116;Greek;Repeated;21;6;52,3;6,75;N;Y;20;66;87,87878788
Athens;556242;71;57;RatingTest;6;3538;321117;Greek;Repeated;21;6;52,3;6,75;N;Y;20;66;87,87878788
Athens;556242;52;58;RatingTest;6;2639;321118;Greek;Repeated;21;6;52,3;6,75;N;Y;20;66;87,87878788
Athens;556242;58;59;RatingTest;6;3063;321119;Greek;Repeated;21;6;52,3;6,75;N;Y;20;66;87,87878788
Athens;556242;9;60;RatingTest;2;5202;321120;Greek;Repeated;21;6;52,3;6,75;N;Y;20;66;87,87878788
Athens;556242;66;91;RatingTest;6;2864;511061;Greek;Repeated;21;6;52,3;6,75;N;Y;20;66;87,87878788
Athens;556242;117;92;RatingTest;6;3101;511062;Greek;Repeated;21;6;52,3;6,75;N;Y;20;66;87,87878788
Athens;556242;48;93;RatingTest;6;4990;511063;Greek;Repeated;21;6;52,3;6,75;N;Y;20;66;87,87878788
Athens;556242;70;94;RatingTest;4;5328;511064;Greek;Repeated;21;6;52,3;6,75;N;Y;20;66;87,87878788
Athens;556242;108;95;RatingTest;2;2355;511065;Greek;Repeated;21;6;52,3;6,75;N;Y;20;66;87,87878788
Athens;556242;23;96;RatingTest;6;2911;511066;Greek;Repeated;21;6;52,3;6,75;N;Y;20;66;87,87878788
Athens;556242;105;97;RatingTest;4;1836;511067;Greek;Repeated;21;6;52,3;6,75;N;Y;20;66;87,87878788
Athens;556242;21;98;RatingTest;6;2787;511068;Greek;Repeated;21;6;52,3;6,75;N;Y;20;66;87,87878788
Athens;556242;82;99;RatingTest;6;2902;511069;Greek;Repeated;21;6;52,3;6,75;N;Y;20;66;87,87878788
Athens;556242;27;100;RatingTest;6;2420;511070;Greek;Repeated;21;6;52,3;6,75;N;Y;20;66;87,87878788
Athens;556242;37;101;RatingTest;6;2777;511071;Greek;Repeated;21;6;52,3;6,75;N;Y;20;66;87,87878788
Athens;556242;114;102;RatingTest;2;6807;511072;Greek;Repeated;21;6;52,3;6,75;N;Y;20;66;87,87878788
Athens;556242;76;103;RatingTest;4;2171;511073;Greek;Repeated;21;6;52,3;6,75;N;Y;20;66;87,87878788
Athens;556242;75;104;RatingTest;6;2058;511074;Greek;Repeated;21;6;52,3;6,75;N;Y;20;66;87,87878788
Athens;556242;39;105;RatingTest;6;2576;511075;Greek;Repeated;21;6;52,3;6,75;N;Y;20;66;87,87878788
Athens;556242;102;106;RatingTest;4;4490;511076;Greek;Repeated;21;6;52,3;6,75;N;Y;20;66;87,87878788
Athens;556242;98;107;RatingTest;2;5065;511077;Greek;Repeated;21;6;52,3;6,75;N;Y;20;66;87,87878788
Athens;556242;8;108;RatingTest;6;3950;511078;Greek;Repeated;21;6;52,3;6,75;N;Y;20;66;87,87878788
Athens;556242;104;109;RatingTest;6;2861;511079;Greek;Repeated;21;6;52,3;6,75;N;Y;20;66;87,87878788
Athens;556242;49;110;RatingTest;6;3277;511080;Greek;Repeated;21;6;52,3;6,75;N;Y;20;66;87,87878788
Athens;556242;84;111;RatingTest;6;5763;511081;Greek;Repeated;21;6;52,3;6,75;N;Y;20;66;87,87878788
Athens;556242;115;112;RatingTest;2;1026;511082;Greek;Repeated;21;6;52,3;6,75;N;Y;20;66;87,87878788
Athens;556242;62;113;RatingTest;6;2573;511083;Greek;Repeated;21;6;52,3;6,75;N;Y;20;66;87,87878788
Athens;556242;85;114;RatingTest;3;5225;511084;Greek;Repeated;21;6;52,3;6,75;N;Y;20;66;87,87878788
Athens;556242;50;115;RatingTest;4;4682;511085;Greek;Repeated;21;6;52,3;6,75;N;Y;20;66;87,87878788
Athens;556242;120;116;RatingTest;2;2555;511086;Greek;Repeated;21;6;52,3;6,75;N;Y;20;66;87,87878788
Athens;556242;99;117;RatingTest;5;2660;511087;Greek;Repeated;21;6;52,3;6,75;N;Y;20;66;87,87878788
Athens;556242;60;118;RatingTest;6;5079;511088;Greek;Repeated;21;6;52,3;6,75;N;Y;20;66;87,87878788
Athens;556242;67;119;RatingTest;3;2927;511089;Greek;Repeated;21;6;52,3;6,75;N;Y;20;66;87,87878788
Athens;556242;77;120;RatingTest;3;2512;511090;Greek;Repeated;21;6;52,3;6,75;N;Y;20;66;87,87878788
Athens;556332;87;31;RatingTest;2;5886;311061;English;Repeated;22;7;59;8,75;N;Y;53;65;92,30769231
Athens;556332;98;32;RatingTest;4;5132;311062;English;Repeated;22;7;59;8,75;N;Y;53;65;92,30769231
Athens;556332;89;33;RatingTest;4;4492;311063;English;Repeated;22;7;59;8,75;N;Y;53;65;92,30769231
Athens;556332;65;34;RatingTest;5;3357;311064;English;Repeated;22;7;59;8,75;N;Y;53;65;92,30769231
Athens;556332;25;35;RatingTest;3;4817;311065;English;Repeated;22;7;59;8,75;N;Y;53;65;92,30769231
Athens;556332;19;36;RatingTest;4;3981;311066;English;Repeated;22;7;59;8,75;N;Y;53;65;92,30769231
Athens;556332;59;37;RatingTest;3;3937;311067;English;Repeated;22;7;59;8,75;N;Y;53;65;92,30769231
Athens;556332;84;38;RatingTest;4;2357;311068;English;Repeated;22;7;59;8,75;N;Y;53;65;92,30769231
Athens;556332;28;39;RatingTest;6;3787;311069;English;Repeated;22;7;59;8,75;N;Y;53;65;92,30769231
Athens;556332;44;40;RatingTest;5;2733;311070;English;Repeated;22;7;59;8,75;N;Y;53;65;92,30769231
Athens;556332;37;41;RatingTest;4;4344;311071;English;Repeated;22;7;59;8,75;N;Y;53;65;92,30769231
Athens;556332;57;42;RatingTest;4;9296;311072;English;Repeated;22;7;59;8,75;N;Y;53;65;92,30769231
Athens;556332;67;43;RatingTest;4;6328;311073;English;Repeated;22;7;59;8,75;N;Y;53;65;92,30769231
Athens;556332;58;44;RatingTest;4;3445;311074;English;Repeated;22;7;59;8,75;N;Y;53;65;92,30769231
Athens;556332;71;45;RatingTest;4;3616;311075;English;Repeated;22;7;59;8,75;N;Y;53;65;92,30769231
Athens;556332;21;46;RatingTest;3;5528;311076;English;Repeated;22;7;59;8,75;N;Y;53;65;92,30769231
Athens;556332;14;47;RatingTest;5;2537;311077;English;Repeated;22;7;59;8,75;N;Y;53;65;92,30769231
Athens;556332;109;48;RatingTest;3;3542;311078;English;Repeated;22;7;59;8,75;N;Y;53;65;92,30769231
Athens;556332;31;49;RatingTest;4;4121;311079;English;Repeated;22;7;59;8,75;N;Y;53;65;92,30769231
Athens;556332;90;50;RatingTest;4;2452;311080;English;Repeated;22;7;59;8,75;N;Y;53;65;92,30769231
Athens;556332;56;51;RatingTest;5;2721;311081;English;Repeated;22;7;59;8,75;N;Y;53;65;92,30769231
Athens;556332;7;52;RatingTest;6;7766;311082;English;Repeated;22;7;59;8,75;N;Y;53;65;92,30769231
Athens;556332;81;53;RatingTest;4;6133;311083;English;Repeated;22;7;59;8,75;N;Y;53;65;92,30769231
Athens;556332;119;54;RatingTest;5;3816;311084;English;Repeated;22;7;59;8,75;N;Y;53;65;92,30769231
Athens;556332;48;55;RatingTest;6;4224;311085;English;Repeated;22;7;59;8,75;N;Y;53;65;92,30769231
Athens;556332;113;56;RatingTest;1;4935;311086;English;Repeated;22;7;59;8,75;N;Y;53;65;92,30769231
Athens;556332;36;57;RatingTest;4;4222;311087;English;Repeated;22;7;59;8,75;N;Y;53;65;92,30769231
Athens;556332;64;58;RatingTest;2;5761;311088;English;Repeated;22;7;59;8,75;N;Y;53;65;92,30769231
Athens;556332;61;59;RatingTest;4;5529;311089;English;Repeated;22;7;59;8,75;N;Y;53;65;92,30769231
Athens;556332;8;60;RatingTest;4;7114;311090;English;Repeated;22;7;59;8,75;N;Y;53;65;92,30769231
Athens;556332;13;91;RatingTest;5;2918;521091;English;Repeated;22;7;59;8,75;N;Y;53;65;92,30769231
Athens;556332;11;92;RatingTest;5;4544;521092;English;Repeated;22;7;59;8,75;N;Y;53;65;92,30769231
Athens;556332;30;93;RatingTest;4;4575;521093;English;Repeated;22;7;59;8,75;N;Y;53;65;92,30769231
Athens;556332;100;94;RatingTest;4;3148;521094;English;Repeated;22;7;59;8,75;N;Y;53;65;92,30769231
Athens;556332;106;95;RatingTest;1;2889;521095;English;Repeated;22;7;59;8,75;N;Y;53;65;92,30769231
Athens;556332;96;96;RatingTest;1;5273;521096;English;Repeated;22;7;59;8,75;N;Y;53;65;92,30769231
Athens;556332;112;97;RatingTest;1;2958;521097;English;Repeated;22;7;59;8,75;N;Y;53;65;92,30769231
Athens;556332;45;98;RatingTest;6;4605;521098;English;Repeated;22;7;59;8,75;N;Y;53;65;92,30769231
Athens;556332;82;99;RatingTest;5;5609;521099;English;Repeated;22;7;59;8,75;N;Y;53;65;92,30769231
Athens;556332;18;100;RatingTest;4;5184;521100;English;Repeated;22;7;59;8,75;N;Y;53;65;92,30769231
Athens;556332;40;101;RatingTest;4;7257;521101;English;Repeated;22;7;59;8,75;N;Y;53;65;92,30769231
Athens;556332;54;102;RatingTest;5;4006;521102;English;Repeated;22;7;59;8,75;N;Y;53;65;92,30769231
Athens;556332;23;103;RatingTest;2;6519;521103;English;Repeated;22;7;59;8,75;N;Y;53;65;92,30769231
Athens;556332;107;104;RatingTest;6;4583;521104;English;Repeated;22;7;59;8,75;N;Y;53;65;92,30769231
Athens;556332;17;105;RatingTest;5;2430;521105;English;Repeated;22;7;59;8,75;N;Y;53;65;92,30769231
Athens;556332;69;106;RatingTest;5;3382;521106;English;Repeated;22;7;59;8,75;N;Y;53;65;92,30769231
Athens;556332;20;107;RatingTest;5;5993;521107;English;Repeated;22;7;59;8,75;N;Y;53;65;92,30769231
Athens;556332;29;108;RatingTest;5;3922;521108;English;Repeated;22;7;59;8,75;N;Y;53;65;92,30769231
Athens;556332;80;109;RatingTest;4;6982;521109;English;Repeated;22;7;59;8,75;N;Y;53;65;92,30769231
Athens;556332;101;110;RatingTest;1;8314;521110;English;Repeated;22;7;59;8,75;N;Y;53;65;92,30769231
Athens;556332;103;111;RatingTest;1;4563;521111;English;Repeated;22;7;59;8,75;N;Y;53;65;92,30769231
Athens;556332;60;112;RatingTest;4;4047;521112;English;Repeated;22;7;59;8,75;N;Y;53;65;92,30769231
Athens;556332;32;113;RatingTest;5;4275;521113;English;Repeated;22;7;59;8,75;N;Y;53;65;92,30769231
Athens;556332;77;114;RatingTest;3;5500;521114;English;Repeated;22;7;59;8,75;N;Y;53;65;92,30769231
Athens;556332;47;115;RatingTest;3;6230;521115;English;Repeated;22;7;59;8,75;N;Y;53;65;92,30769231
Athens;556332;74;116;RatingTest;3;3909;521116;English;Repeated;22;7;59;8,75;N;Y;53;65;92,30769231
Athens;556332;73;117;RatingTest;4;5781;521117;English;Repeated;22;7;59;8,75;N;Y;53;65;92,30769231
Athens;556332;72;118;RatingTest;4;4310;521118;English;Repeated;22;7;59;8,75;N;Y;53;65;92,30769231
Athens;556332;24;119;RatingTest;2;5327;521119;English;Repeated;22;7;59;8,75;N;Y;53;65;92,30769231
Athens;556332;99;120;RatingTest;3;5441;521120;English;Repeated;22;7;59;8,75;N;Y;53;65;92,30769231
Athens;556579;101;1;RatingTest;6;2879;211001;Greek;Repeated;34;7;54,5;8,75;N;Y;31;55;83,63636364
Athens;556579;56;2;RatingTest;2;3173;211002;Greek;Repeated;34;7;54,5;8,75;N;Y;31;55;83,63636364
Athens;556579;59;3;RatingTest;3;3814;211003;Greek;Repeated;34;7;54,5;8,75;N;Y;31;55;83,63636364
Athens;556579;107;4;RatingTest;3;2543;211004;Greek;Repeated;34;7;54,5;8,75;N;Y;31;55;83,63636364
Athens;556579;86;5;RatingTest;1;2957;211005;Greek;Repeated;34;7;54,5;8,75;N;Y;31;55;83,63636364
Athens;556579;66;6;RatingTest;2;4350;211006;Greek;Repeated;34;7;54,5;8,75;N;Y;31;55;83,63636364
Athens;556579;89;7;RatingTest;2;3479;211007;Greek;Repeated;34;7;54,5;8,75;N;Y;31;55;83,63636364
Athens;556579;39;8;RatingTest;3;4179;211008;Greek;Repeated;34;7;54,5;8,75;N;Y;31;55;83,63636364
Athens;556579;3;9;RatingTest;1;3884;211009;Greek;Repeated;34;7;54,5;8,75;N;Y;31;55;83,63636364
Athens;556579;68;10;RatingTest;2;5684;211010;Greek;Repeated;34;7;54,5;8,75;N;Y;31;55;83,63636364
Athens;556579;48;11;RatingTest;5;3563;211011;Greek;Repeated;34;7;54,5;8,75;N;Y;31;55;83,63636364
Athens;556579;115;12;RatingTest;1;3556;211012;Greek;Repeated;34;7;54,5;8,75;N;Y;31;55;83,63636364
Athens;556579;26;13;RatingTest;3;5168;211013;Greek;Repeated;34;7;54,5;8,75;N;Y;31;55;83,63636364
Athens;556579;65;14;RatingTest;3;3781;211014;Greek;Repeated;34;7;54,5;8,75;N;Y;31;55;83,63636364
Athens;556579;24;15;RatingTest;3;6275;211015;Greek;Repeated;34;7;54,5;8,75;N;Y;31;55;83,63636364
Athens;556579;5;16;RatingTest;3;3723;211016;Greek;Repeated;34;7;54,5;8,75;N;Y;31;55;83,63636364
Athens;556579;67;17;RatingTest;2;5163;211017;Greek;Repeated;34;7;54,5;8,75;N;Y;31;55;83,63636364
Athens;556579;97;18;RatingTest;2;5328;211018;Greek;Repeated;34;7;54,5;8,75;N;Y;31;55;83,63636364
Athens;556579;80;19;RatingTest;3;3694;211019;Greek;Repeated;34;7;54,5;8,75;N;Y;31;55;83,63636364
Athens;556579;15;20;RatingTest;4;5294;211020;Greek;Repeated;34;7;54,5;8,75;N;Y;31;55;83,63636364
Athens;556579;2;21;RatingTest;5;6494;211021;Greek;Repeated;34;7;54,5;8,75;N;Y;31;55;83,63636364
Athens;556579;18;22;RatingTest;6;2681;211022;Greek;Repeated;34;7;54,5;8,75;N;Y;31;55;83,63636364
Athens;556579;73;23;RatingTest;3;5254;211023;Greek;Repeated;34;7;54,5;8,75;N;Y;31;55;83,63636364
Athens;556579;12;24;RatingTest;2;3003;211024;Greek;Repeated;34;7;54,5;8,75;N;Y;31;55;83,63636364
Athens;556579;118;25;RatingTest;3;3283;211025;Greek;Repeated;34;7;54,5;8,75;N;Y;31;55;83,63636364
Athens;556579;99;26;RatingTest;4;3113;211026;Greek;Repeated;34;7;54,5;8,75;N;Y;31;55;83,63636364
Athens;556579;74;27;RatingTest;4;6625;211027;Greek;Repeated;34;7;54,5;8,75;N;Y;31;55;83,63636364
Athens;556579;11;28;RatingTest;5;4496;211028;Greek;Repeated;34;7;54,5;8,75;N;Y;31;55;83,63636364
Athens;556579;7;29;RatingTest;1;3825;211029;Greek;Repeated;34;7;54,5;8,75;N;Y;31;55;83,63636364
Athens;556579;114;30;RatingTest;6;5748;211030;Greek;Repeated;34;7;54,5;8,75;N;Y;31;55;83,63636364
Athens;556579;63;61;RatingTest;6;2549;421031;Greek;Repeated;34;7;54,5;8,75;N;Y;31;55;83,63636364
Athens;556579;110;62;RatingTest;6;2632;421032;Greek;Repeated;34;7;54,5;8,75;N;Y;31;55;83,63636364
Athens;556579;20;63;RatingTest;3;2673;421033;Greek;Repeated;34;7;54,5;8,75;N;Y;31;55;83,63636364
Athens;556579;100;64;RatingTest;2;3169;421034;Greek;Repeated;34;7;54,5;8,75;N;Y;31;55;83,63636364
Athens;556579;77;65;RatingTest;4;2025;421035;Greek;Repeated;34;7;54,5;8,75;N;Y;31;55;83,63636364
Athens;556579;57;66;RatingTest;3;5613;421036;Greek;Repeated;34;7;54,5;8,75;N;Y;31;55;83,63636364
Athens;556579;23;67;RatingTest;2;5430;421037;Greek;Repeated;34;7;54,5;8,75;N;Y;31;55;83,63636364
Athens;556579;49;68;RatingTest;2;3445;421038;Greek;Repeated;34;7;54,5;8,75;N;Y;31;55;83,63636364
Athens;556579;43;69;RatingTest;1;2812;421039;Greek;Repeated;34;7;54,5;8,75;N;Y;31;55;83,63636364
Athens;556579;14;70;RatingTest;2;5497;421040;Greek;Repeated;34;7;54,5;8,75;N;Y;31;55;83,63636364
Athens;556579;47;71;RatingTest;3;2965;421041;Greek;Repeated;34;7;54,5;8,75;N;Y;31;55;83,63636364
Athens;556579;91;72;RatingTest;4;3214;421042;Greek;Repeated;34;7;54,5;8,75;N;Y;31;55;83,63636364
Athens;556579;31;73;RatingTest;6;5618;421043;Greek;Repeated;34;7;54,5;8,75;N;Y;31;55;83,63636364
Athens;556579;83;74;RatingTest;2;2071;421044;Greek;Repeated;34;7;54,5;8,75;N;Y;31;55;83,63636364
Athens;556579;88;75;RatingTest;3;2906;421045;Greek;Repeated;34;7;54,5;8,75;N;Y;31;55;83,63636364
Athens;556579;61;76;RatingTest;3;4617;421046;Greek;Repeated;34;7;54,5;8,75;N;Y;31;55;83,63636364
Athens;556579;95;77;RatingTest;5;3335;421047;Greek;Repeated;34;7;54,5;8,75;N;Y;31;55;83,63636364
Athens;556579;36;78;RatingTest;4;3138;421048;Greek;Repeated;34;7;54,5;8,75;N;Y;31;55;83,63636364
Athens;556579;29;79;RatingTest;2;2345;421049;Greek;Repeated;34;7;54,5;8,75;N;Y;31;55;83,63636364
Athens;556579;9;80;RatingTest;1;3784;421050;Greek;Repeated;34;7;54,5;8,75;N;Y;31;55;83,63636364
Athens;556579;42;81;RatingTest;3;4074;421051;Greek;Repeated;34;7;54,5;8,75;N;Y;31;55;83,63636364
Athens;556579;105;82;RatingTest;1;3381;421052;Greek;Repeated;34;7;54,5;8,75;N;Y;31;55;83,63636364
Athens;556579;98;83;RatingTest;1;3236;421053;Greek;Repeated;34;7;54,5;8,75;N;Y;31;55;83,63636364
Athens;556579;45;84;RatingTest;1;4096;421054;Greek;Repeated;34;7;54,5;8,75;N;Y;31;55;83,63636364
Athens;556579;75;85;RatingTest;6;3338;421055;Greek;Repeated;34;7;54,5;8,75;N;Y;31;55;83,63636364
Athens;556579;82;86;RatingTest;2;4179;421056;Greek;Repeated;34;7;54,5;8,75;N;Y;31;55;83,63636364
Athens;556579;28;87;RatingTest;6;5392;421057;Greek;Repeated;34;7;54,5;8,75;N;Y;31;55;83,63636364
Athens;556579;41;88;RatingTest;1;3766;421058;Greek;Repeated;34;7;54,5;8,75;N;Y;31;55;83,63636364
Athens;556579;120;89;RatingTest;2;3631;421059;Greek;Repeated;34;7;54,5;8,75;N;Y;31;55;83,63636364
Athens;556579;46;90;RatingTest;3;4692;421060;Greek;Repeated;34;7;54,5;8,75;N;Y;31;55;83,63636364
Athens;556633;82;1;RatingTest;4;3574;221031;English;Repeated;34;1;85,5;9,5;N;N;41;51;84,31372549
Athens;556633;113;2;RatingTest;6;2628;221032;English;Repeated;34;1;85,5;9,5;N;N;41;51;84,31372549
Athens;556633;27;3;RatingTest;6;3387;221033;English;Repeated;34;1;85,5;9,5;N;N;41;51;84,31372549
Athens;556633;41;4;RatingTest;6;3153;221034;English;Repeated;34;1;85,5;9,5;N;N;41;51;84,31372549
Athens;556633;47;5;RatingTest;6;3175;221035;English;Repeated;34;1;85,5;9,5;N;N;41;51;84,31372549
Athens;556633;71;6;RatingTest;6;3358;221036;English;Repeated;34;1;85,5;9,5;N;N;41;51;84,31372549
Athens;556633;28;7;RatingTest;6;3294;221037;English;Repeated;34;1;85,5;9,5;N;N;41;51;84,31372549
Athens;556633;3;8;RatingTest;6;5265;221038;English;Repeated;34;1;85,5;9,5;N;N;41;51;84,31372549
Athens;556633;25;9;RatingTest;6;3990;221039;English;Repeated;34;1;85,5;9,5;N;N;41;51;84,31372549
Athens;556633;21;10;RatingTest;6;4241;221040;English;Repeated;34;1;85,5;9,5;N;N;41;51;84,31372549
Athens;556633;40;11;RatingTest;6;3934;221041;English;Repeated;34;1;85,5;9,5;N;N;41;51;84,31372549
Athens;556633;75;12;RatingTest;6;3701;221042;English;Repeated;34;1;85,5;9,5;N;N;41;51;84,31372549
Athens;556633;49;13;RatingTest;2;5520;221043;English;Repeated;34;1;85,5;9,5;N;N;41;51;84,31372549
Athens;556633;55;14;RatingTest;6;2789;221044;English;Repeated;34;1;85,5;9,5;N;N;41;51;84,31372549
Athens;556633;16;15;RatingTest;6;3622;221045;English;Repeated;34;1;85,5;9,5;N;N;41;51;84,31372549
Athens;556633;66;16;RatingTest;6;3137;221046;English;Repeated;34;1;85,5;9,5;N;N;41;51;84,31372549
Athens;556633;7;17;RatingTest;6;3727;221047;English;Repeated;34;1;85,5;9,5;N;N;41;51;84,31372549
Athens;556633;44;18;RatingTest;6;4244;221048;English;Repeated;34;1;85,5;9,5;N;N;41;51;84,31372549
Athens;556633;104;19;RatingTest;6;2754;221049;English;Repeated;34;1;85,5;9,5;N;N;41;51;84,31372549
Athens;556633;22;20;RatingTest;6;3479;221050;English;Repeated;34;1;85,5;9,5;N;N;41;51;84,31372549
Athens;556633;105;21;RatingTest;6;3337;221051;English;Repeated;34;1;85,5;9,5;N;N;41;51;84,31372549
Athens;556633;50;22;RatingTest;6;5289;221052;English;Repeated;34;1;85,5;9,5;N;N;41;51;84,31372549
Athens;556633;8;23;RatingTest;6;3594;221053;English;Repeated;34;1;85,5;9,5;N;N;41;51;84,31372549
Athens;556633;36;24;RatingTest;6;3928;221054;English;Repeated;34;1;85,5;9,5;N;N;41;51;84,31372549
Athens;556633;53;25;RatingTest;6;3374;221055;English;Repeated;34;1;85,5;9,5;N;N;41;51;84,31372549
Athens;556633;103;26;RatingTest;6;3776;221056;English;Repeated;34;1;85,5;9,5;N;N;41;51;84,31372549
Athens;556633;58;27;RatingTest;6;5051;221057;English;Repeated;34;1;85,5;9,5;N;N;41;51;84,31372549
Athens;556633;14;28;RatingTest;6;3475;221058;English;Repeated;34;1;85,5;9,5;N;N;41;51;84,31372549
Athens;556633;117;29;RatingTest;6;3268;221059;English;Repeated;34;1;85,5;9,5;N;N;41;51;84,31372549
