"","subject","statement_identifier","procedure_identifier","within_identifier","between_identifier","response","repeated","rt","trial"
"1",397545,1059,1,"Foreign",1,NA,0,NA,1
"2",397545,1041,1,"Foreign",1,"2",1,NA,2
"3",397545,1014,1,"Foreign",1,"4",0,NA,3
"4",397545,1036,1,"Foreign",1,"2",0,NA,4
"5",397545,1048,1,"Foreign",1,"3",1,NA,5
"6",397545,1021,1,"Foreign",1,"3",0,NA,6
"7",397545,1015,1,"Foreign",1,"4",0,NA,7
"8",397545,1043,1,"Foreign",1,"3",0,NA,8
"9",397545,1075,1,"Foreign",1,"3",1,NA,9
"10",397545,1077,1,"Foreign",1,"2",1,NA,10
"11",397545,1040,1,"Foreign",1,"2",1,NA,11
"12",397545,1001,1,"Foreign",1,"2",0,NA,12
"13",397545,1013,1,"Foreign",1,"3",1,NA,13
"14",397545,1064,1,"Foreign",1,"3",0,NA,14
"15",397545,1030,1,"Foreign",1,"2",0,NA,15
"16",397545,1009,1,"Foreign",1,"3",1,NA,16
"17",397545,1057,1,"Foreign",1,"2",0,NA,17
"18",397545,1054,1,"Foreign",1,"3",0,NA,18
"19",397545,1011,1,"Foreign",1,"2",0,NA,19
"20",397545,1074,1,"Foreign",1,"3",0,NA,20
"21",397545,1037,1,"Foreign",1,"3",1,NA,21
"22",397545,1024,1,"Foreign",1,"3",1,NA,22
"23",397545,1065,1,"Foreign",1,"5",1,NA,23
"24",397545,1029,1,"Foreign",1,"3",1,NA,24
"25",397545,1016,1,"Foreign",1,"3",0,NA,25
"26",397545,1010,1,"Foreign",1,"4",1,NA,26
"27",397545,1035,1,"Foreign",1,"3",1,NA,27
"28",397545,1061,1,"Foreign",1,"2",0,NA,28
"29",397545,1046,1,"Foreign",1,"4",1,NA,29
"30",397545,1042,1,"Foreign",1,"2",1,NA,30
"31",397545,1019,1,"Foreign",1,"3",0,NA,31
"32",397545,1076,1,"Foreign",1,"4",0,NA,32
"33",397545,1033,1,"Foreign",1,"3",0,NA,33
"34",397545,1052,1,"Foreign",1,"2",0,NA,34
"35",397545,1017,1,"Foreign",1,"5",1,NA,35
"36",397545,1004,1,"Foreign",1,"3",1,NA,36
"37",397545,1079,1,"Foreign",1,"4",0,NA,37
"38",397545,1012,1,"Foreign",1,"3",0,NA,38
"39",397545,1018,1,"Foreign",1,"5",1,NA,39
"40",397545,1039,1,"Foreign",1,"2",1,NA,40
"41",397545,1026,1,"Foreign",1,"5",0,NA,41
"42",397545,1022,1,"Foreign",1,"2",0,NA,42
"43",397545,1003,1,"Foreign",1,"2",0,NA,43
"44",397545,1050,1,"Foreign",1,"3",1,NA,44
"45",397545,1027,1,"Foreign",1,"1",1,NA,45
"46",397545,1058,1,"Foreign",1,"4",1,NA,46
"47",397545,1032,1,"Foreign",1,"2",1,NA,47
"48",397545,1062,1,"Foreign",1,"3",1,NA,48
"49",397545,1071,1,"Foreign",1,"4",1,NA,49
"50",397545,1020,1,"Foreign",1,"3",0,NA,50
"51",397545,1072,1,"Foreign",1,"2",0,NA,51
"52",397545,1067,1,"Foreign",1,"2",1,NA,52
"53",397545,1070,1,"Foreign",1,"1",1,NA,53
"54",397545,1008,1,"Foreign",1,"4",0,NA,54
"55",397545,1056,1,"Foreign",1,"2",1,NA,55
"56",397545,1063,1,"Foreign",1,"5",1,NA,56
"57",397545,1053,1,"Foreign",1,"3",0,NA,57
"58",397545,1066,1,"Foreign",1,"3",1,NA,58
"59",397545,1002,1,"Foreign",1,"4",0,NA,59
"60",397545,1031,1,"Foreign",1,"3",0,NA,60
"61",397545,1078,1,"Foreign",1,"2",1,NA,61
"62",397545,1006,1,"Foreign",1,"3",1,NA,62
"63",397545,1055,1,"Foreign",1,"3",0,NA,63
"64",397545,1007,1,"Foreign",1,"3",0,NA,64
"65",397545,1080,1,"Foreign",1,"1",1,NA,65
"66",397545,1060,1,"Foreign",1,"1",1,NA,66
"67",397545,1038,1,"Foreign",1,"3",0,NA,67
"68",397545,1023,1,"Foreign",1,"3",0,NA,68
"69",397545,1025,1,"Foreign",1,"2",1,NA,69
"70",397545,1073,1,"Foreign",1,"5",0,NA,70
"71",397545,1034,1,"Foreign",1,"5",0,NA,71
"72",397545,1051,1,"Foreign",1,"4",0,NA,72
"73",397545,1044,1,"Foreign",1,"2",0,NA,73
"74",397545,1049,1,"Foreign",1,"3",0,NA,74
"75",397545,1069,1,"Foreign",1,"1",1,NA,75
"76",397545,1047,1,"Foreign",1,"3",0,NA,76
"77",397545,1045,1,"Foreign",1,"5",1,NA,77
"78",397545,1068,1,"Foreign",1,"3",1,NA,78
"79",397545,1005,1,"Foreign",1,"3",1,NA,79
"80",397545,1028,1,"Foreign",1,"1",1,NA,80
"81",397759,1015,1,"Native",1,"3",0,NA,1
"82",397759,1048,1,"Native",1,"1",1,NA,2
"83",397759,1029,1,"Native",1,"3",1,NA,3
"84",397759,1031,1,"Native",1,"2",0,NA,4
"85",397759,1044,1,"Native",1,"3",0,NA,5
"86",397759,1056,1,"Native",1,"4",1,NA,6
"87",397759,1035,1,"Native",1,"4",1,NA,7
"88",397759,1074,1,"Native",1,"4",0,NA,8
"89",397759,1059,1,"Native",1,"4",0,NA,9
"90",397759,1021,1,"Native",1,"4",0,NA,10
"91",397759,1080,1,"Native",1,"5",1,NA,11
"92",397759,1038,1,"Native",1,"3",0,NA,12
"93",397759,1009,1,"Native",1,"5",1,NA,13
"94",397759,1047,1,"Native",1,"3",0,NA,14
"95",397759,1062,1,"Native",1,"6",1,NA,15
"96",397759,1033,1,"Native",1,"3",0,NA,16
"97",397759,1020,1,"Native",1,"4",0,NA,17
"98",397759,1053,1,"Native",1,"4",0,NA,18
"99",397759,1006,1,"Native",1,"5",1,NA,19
"100",397759,1039,1,"Native",1,"3",1,NA,20
"101",397759,1007,1,"Native",1,"4",0,NA,21
"102",397759,1016,1,"Native",1,"4",0,NA,22
"103",397759,1045,1,"Native",1,"6",1,NA,23
"104",397759,1073,1,"Native",1,"3",0,NA,24
"105",397759,1075,1,"Native",1,"5",1,NA,25
"106",397759,1036,1,"Native",1,"4",0,NA,26
"107",397759,1060,1,"Native",1,"4",1,NA,27
"108",397759,1008,1,"Native",1,"4",0,NA,28
"109",397759,1072,1,"Native",1,"4",0,NA,29
"110",397759,1014,1,"Native",1,"4",0,NA,30
"111",397759,1058,1,"Native",1,"3",1,NA,31
"112",397759,1057,1,"Native",1,"3",0,NA,32
"113",397759,1049,1,"Native",1,"4",0,NA,33
"114",397759,1055,1,"Native",1,"4",0,NA,34
"115",397759,1041,1,"Native",1,"3",1,NA,35
"116",397759,1010,1,"Native",1,"4",1,NA,36
"117",397759,1018,1,"Native",1,"4",1,NA,37
"118",397759,1022,1,"Native",1,"4",0,NA,38
"119",397759,1011,1,"Native",1,"2",0,NA,39
"120",397759,1023,1,"Native",1,"3",0,NA,40
"121",397759,1070,1,"Native",1,"4",1,NA,41
"122",397759,1037,1,"Native",1,"5",1,NA,42
"123",397759,1071,1,"Native",1,"4",1,NA,43
"124",397759,1017,1,"Native",1,"3",1,NA,44
"125",397759,1046,1,"Native",1,"4",1,NA,45
"126",397759,1050,1,"Native",1,"4",1,NA,46
"127",397759,1028,1,"Native",1,"4",1,NA,47
"128",397759,1004,1,"Native",1,"3",1,NA,48
"129",397759,1067,1,"Native",1,"3",1,NA,49
"130",397759,1069,1,"Native",1,"4",1,NA,50
"131",397759,1043,1,"Native",1,"4",0,NA,51
"132",397759,1034,1,"Native",1,"4",0,NA,52
"133",397759,1025,1,"Native",1,"4",1,NA,53
"134",397759,1078,1,"Native",1,"4",1,NA,54
"135",397759,1030,1,"Native",1,"3",0,NA,55
"136",397759,1051,1,"Native",1,"3",0,NA,56
"137",397759,1032,1,"Native",1,"2",1,NA,57
"138",397759,1063,1,"Native",1,"3",1,NA,58
"139",397759,1068,1,"Native",1,"3",1,NA,59
"140",397759,1042,1,"Native",1,"4",1,NA,60
"141",397759,1076,1,"Native",1,"4",0,NA,61
"142",397759,1079,1,"Native",1,"4",0,NA,62
"143",397759,1040,1,"Native",1,"4",1,NA,63
"144",397759,1026,1,"Native",1,"4",0,NA,64
"145",397759,1077,1,"Native",1,"4",1,NA,65
"146",397759,1019,1,"Native",1,"4",0,NA,66
"147",397759,1061,1,"Native",1,"5",0,NA,67
"148",397759,1003,1,"Native",1,"4",0,NA,68
"149",397759,1052,1,"Native",1,"3",0,NA,69
"150",397759,1001,1,"Native",1,"4",0,NA,70
"151",397759,1013,1,"Native",1,"4",1,NA,71
"152",397759,1066,1,"Native",1,"4",1,NA,72
"153",397759,1027,1,"Native",1,"4",1,NA,73
"154",397759,1024,1,"Native",1,"4",1,NA,74
"155",397759,1005,1,"Native",1,"4",1,NA,75
"156",397759,1054,1,"Native",1,"4",0,NA,76
"157",397759,1012,1,"Native",1,"4",0,NA,77
"158",397759,1065,1,"Native",1,"4",1,NA,78
"159",397759,1064,1,"Native",1,"4",0,NA,79
"160",397759,1002,1,"Native",1,"3",0,NA,80
"161",398488,1010,1,"Foreign",1,"4",0,NA,1
"162",398488,1058,1,"Foreign",1,"3",0,NA,2
"163",398488,1032,1,"Foreign",1,"2",0,NA,3
"164",398488,1041,1,"Foreign",1,"1",0,NA,4
"165",398488,1052,1,"Foreign",1,"3",1,NA,5
"166",398488,1059,1,"Foreign",1,"4",1,NA,6
"167",398488,1044,1,"Foreign",1,"4",1,NA,7
"168",398488,1015,1,"Foreign",1,"2",1,NA,8
"169",398488,1030,1,"Foreign",1,"4",1,NA,9
"170",398488,1013,1,"Foreign",1,"3",0,NA,10
"171",398488,1018,1,"Foreign",1,"2",0,NA,11
"172",398488,1070,1,"Foreign",1,"1",0,NA,12
"173",398488,1009,1,"Foreign",1,"4",0,NA,13
"174",398488,1028,1,"Foreign",1,"3",0,NA,14
"175",398488,1020,1,"Foreign",1,"5",1,NA,15
"176",398488,1004,1,"Foreign",1,"4",0,NA,16
"177",398488,1029,1,"Foreign",1,"5",0,NA,17
"178",398488,1021,1,"Foreign",1,"5",1,NA,18
"179",398488,1079,1,"Foreign",1,"4",1,NA,19
"180",398488,1007,1,"Foreign",1,"3",1,NA,20
"181",398488,1056,1,"Foreign",1,"5",0,NA,21
"182",398488,1067,1,"Foreign",1,"2",0,NA,22
"183",398488,1033,1,"Foreign",1,"5",1,NA,23
"184",398488,1060,1,"Foreign",1,"1",0,NA,24
"185",398488,1031,1,"Foreign",1,"5",1,NA,25
"186",398488,1011,1,"Foreign",1,"2",1,NA,26
"187",398488,1040,1,"Foreign",1,"6",0,NA,27
"188",398488,1034,1,"Foreign",1,"4",1,NA,28
"189",398488,1062,1,"Foreign",1,"3",0,NA,29
"190",398488,1005,1,"Foreign",1,"4",0,NA,30
"191",398488,1037,1,"Foreign",1,"3",0,NA,31
"192",398488,1017,1,"Foreign",1,"4",0,NA,32
"193",398488,1069,1,"Foreign",1,"4",0,NA,33
"194",398488,1061,1,"Foreign",1,"5",1,NA,34
"195",398488,1049,1,"Foreign",1,"4",1,NA,35
"196",398488,1027,1,"Foreign",1,"3",0,NA,36
"197",398488,1003,1,"Foreign",1,"5",1,NA,37
"198",398488,1053,1,"Foreign",1,"3",1,NA,38
"199",398488,1065,1,"Foreign",1,"4",0,NA,39
"200",398488,1042,1,"Foreign",1,"3",0,NA,40
"201",398488,1071,1,"Foreign",1,"5",0,NA,41
"202",398488,1039,1,"Foreign",1,"2",0,NA,42
"203",398488,1024,1,"Foreign",1,"5",0,NA,43
"204",398488,1043,1,"Foreign",1,"4",1,NA,44
"205",398488,1068,1,"Foreign",1,"3",0,NA,45
"206",398488,1026,1,"Foreign",1,"4",1,NA,46
"207",398488,1066,1,"Foreign",1,"5",0,NA,47
"208",398488,1072,1,"Foreign",1,"6",1,NA,48
"209",398488,1025,1,"Foreign",1,"4",0,NA,49
"210",398488,1016,1,"Foreign",1,"5",1,NA,50
"211",398488,1001,1,"Foreign",1,"4",1,NA,51
"212",398488,1023,1,"Foreign",1,"5",1,NA,52
"213",398488,1036,1,"Foreign",1,"4",1,NA,53
"214",398488,1045,1,"Foreign",1,"3",0,NA,54
"215",398488,1048,1,"Foreign",1,"2",0,NA,55
"216",398488,1054,1,"Foreign",1,"5",1,NA,56
"217",398488,1019,1,"Foreign",1,"4",1,NA,57
"218",398488,1038,1,"Foreign",1,"5",1,NA,58
"219",398488,1057,1,"Foreign",1,"2",1,NA,59
"220",398488,1064,1,"Foreign",1,"2",1,NA,60
"221",398488,1046,1,"Foreign",1,"5",0,NA,61
"222",398488,1002,1,"Foreign",1,"3",1,NA,62
"223",398488,1035,1,"Foreign",1,"2",0,NA,63
"224",398488,1077,1,"Foreign",1,"5",0,NA,64
"225",398488,1063,1,"Foreign",1,"2",0,NA,65
"226",398488,1008,1,"Foreign",1,"5",1,NA,66
"227",398488,1012,1,"Foreign",1,"4",1,NA,67
"228",398488,1006,1,"Foreign",1,"5",0,NA,68
"229",398488,1055,1,"Foreign",1,"4",1,NA,69
"230",398488,1047,1,"Foreign",1,"5",1,NA,70
"231",398488,1051,1,"Foreign",1,"5",1,NA,71
"232",398488,1014,1,"Foreign",1,"5",1,NA,72
"233",398488,1080,1,"Foreign",1,"2",0,NA,73
"234",398488,1075,1,"Foreign",1,"6",0,NA,74
"235",398488,1050,1,"Foreign",1,"4",0,NA,75
"236",398488,1022,1,"Foreign",1,"5",1,NA,76
"237",398488,1076,1,"Foreign",1,"3",1,NA,77
"238",398488,1073,1,"Foreign",1,"3",1,NA,78
"239",398488,1074,1,"Foreign",1,"5",1,NA,79
"240",398488,1078,1,"Foreign",1,"4",0,NA,80
"241",399733,1058,1,"Native",1,NA,0,NA,1
"242",399733,1013,1,"Native",1,NA,0,NA,2
"243",399733,1047,1,"Native",1,NA,1,NA,3
"244",399733,1074,1,"Native",1,NA,1,NA,4
"245",399733,1068,1,"Native",1,NA,0,NA,5
"246",399733,1039,1,"Native",1,NA,0,NA,6
"247",399733,1014,1,"Native",1,NA,1,NA,7
"248",399733,1002,1,"Native",1,NA,1,NA,8
"249",399733,1043,1,"Native",1,NA,1,NA,9
"250",399733,1033,1,"Native",1,NA,1,NA,10
"251",399733,1063,1,"Native",1,NA,0,NA,11
"252",399733,1069,1,"Native",1,NA,0,NA,12
"253",399733,1052,1,"Native",1,"2",1,NA,13
"254",399733,1037,1,"Native",1,"2",0,NA,14
"255",399733,1010,1,"Native",1,"2",0,NA,15
"256",399733,1053,1,"Native",1,"1",1,NA,16
"257",399733,1021,1,"Native",1,"4",1,NA,17
"258",399733,1073,1,"Native",1,"3",1,NA,18
"259",399733,1062,1,"Native",1,"5",0,NA,19
"260",399733,1004,1,"Native",1,"5",0,NA,20
"261",399733,1034,1,"Native",1,"3",1,NA,21
"262",399733,1051,1,"Native",1,"4",1,NA,22
"263",399733,1040,1,"Native",1,"4",0,NA,23
"264",399733,1072,1,"Native",1,"5",1,NA,24
"265",399733,1048,1,"Native",1,"5",0,NA,25
"266",399733,1015,1,"Native",1,"3",1,NA,26
"267",399733,1057,1,"Native",1,"5",1,NA,27
"268",399733,1012,1,"Native",1,"2",1,NA,28
"269",399733,1031,1,"Native",1,"1",1,NA,29
"270",399733,1026,1,"Native",1,"5",1,NA,30
"271",399733,1080,1,"Native",1,"2",0,NA,31
"272",399733,1050,1,"Native",1,"4",0,NA,32
"273",399733,1005,1,"Native",1,"2",0,NA,33
"274",399733,1046,1,"Native",1,"5",0,NA,34
"275",399733,1032,1,"Native",1,"1",0,NA,35
"276",399733,1019,1,"Native",1,"3",1,NA,36
"277",399733,1017,1,"Native",1,"2",0,NA,37
"278",399733,1064,1,"Native",1,"2",1,NA,38
"279",399733,1023,1,"Native",1,"4",1,NA,39
"280",399733,1061,1,"Native",1,"2",1,NA,40
"281",399733,1078,1,"Native",1,"4",0,NA,41
"282",399733,1035,1,"Native",1,"5",0,NA,42
"283",399733,1075,1,"Native",1,"5",0,NA,43
"284",399733,1041,1,"Native",1,"2",0,NA,44
"285",399733,1016,1,"Native",1,"3",1,NA,45
"286",399733,1066,1,"Native",1,"4",0,NA,46
"287",399733,1077,1,"Native",1,"4",0,NA,47
"288",399733,1022,1,"Native",1,"2",1,NA,48
"289",399733,1006,1,"Native",1,"3",0,NA,49
"290",399733,1065,1,"Native",1,"4",0,NA,50
"291",399733,1024,1,"Native",1,"5",0,NA,51
"292",399733,1070,1,"Native",1,"1",0,NA,52
"293",399733,1018,1,"Native",1,"2",0,NA,53
"294",399733,1038,1,"Native",1,"3",1,NA,54
"295",399733,1025,1,"Native",1,"2",0,NA,55
"296",399733,1056,1,"Native",1,"3",0,NA,56
"297",399733,1009,1,"Native",1,"2",0,NA,57
"298",399733,1020,1,"Native",1,"2",1,NA,58
"299",399733,1042,1,"Native",1,"2",0,NA,59
"300",399733,1059,1,"Native",1,"4",1,NA,60
"301",399733,1011,1,"Native",1,"2",1,NA,61
"302",399733,1049,1,"Native",1,"4",1,NA,62
"303",399733,1007,1,"Native",1,"2",1,NA,63
"304",399733,1060,1,"Native",1,"2",0,NA,64
"305",399733,1001,1,"Native",1,"4",1,NA,65
"306",399733,1045,1,"Native",1,"2",0,NA,66
"307",399733,1079,1,"Native",1,"4",1,NA,67
"308",399733,1028,1,"Native",1,"2",0,NA,68
"309",399733,1030,1,"Native",1,"3",1,NA,69
"310",399733,1055,1,"Native",1,"5",1,NA,70
"311",399733,1044,1,"Native",1,"6",1,NA,71
"312",399733,1003,1,"Native",1,"4",1,NA,72
"313",399733,1008,1,"Native",1,"4",1,NA,73
"314",399733,1036,1,"Native",1,"3",1,NA,74
"315",399733,1027,1,"Native",1,"2",0,NA,75
"316",399733,1054,1,"Native",1,"4",1,NA,76
"317",399733,1071,1,"Native",1,"4",0,NA,77
"318",399733,1029,1,"Native",1,"3",0,NA,78
"319",399733,1076,1,"Native",1,"4",1,NA,79
"320",399733,1067,1,"Native",1,"1",0,NA,80
"321",400245,1056,1,"Foreign",1,"4",0,NA,1
"322",400245,1075,1,"Foreign",1,"6",0,NA,2
"323",400245,1006,1,"Foreign",1,"6",0,NA,3
"324",400245,1079,1,"Foreign",1,"6",1,NA,4
"325",400245,1015,1,"Foreign",1,"6",1,NA,5
"326",400245,1027,1,"Foreign",1,"1",0,NA,6
"327",400245,1024,1,"Foreign",1,"3",0,NA,7
"328",400245,1039,1,"Foreign",1,"3",0,NA,8
"329",400245,1040,1,"Foreign",1,"3",0,NA,9
"330",400245,1065,1,"Foreign",1,"6",0,NA,10
"331",400245,1038,1,"Foreign",1,"6",1,NA,11
"332",400245,1037,1,"Foreign",1,"1",0,NA,12
"333",400245,1007,1,"Foreign",1,"3",1,NA,13
"334",400245,1002,1,"Foreign",1,"3",1,NA,14
"335",400245,1062,1,"Foreign",1,"6",0,NA,15
"336",400245,1074,1,"Foreign",1,"6",1,NA,16
"337",400245,1058,1,"Foreign",1,"1",0,NA,17
"338",400245,1028,1,"Foreign",1,"6",0,NA,18
"339",400245,1009,1,"Foreign",1,"6",0,NA,19
"340",400245,1073,1,"Foreign",1,"6",1,NA,20
"341",400245,1048,1,"Foreign",1,"5",0,NA,21
"342",400245,1004,1,"Foreign",1,"4",0,NA,22
"343",400245,1050,1,"Foreign",1,"4",0,NA,23
"344",400245,1061,1,"Foreign",1,"6",1,NA,24
"345",400245,1031,1,"Foreign",1,"2",1,NA,25
"346",400245,1077,1,"Foreign",1,"3",0,NA,26
"347",400245,1023,1,"Foreign",1,"6",1,NA,27
"348",400245,1068,1,"Foreign",1,"3",0,NA,28
"349",400245,1069,1,"Foreign",1,"6",0,NA,29
"350",400245,1034,1,"Foreign",1,"6",1,NA,30
"351",400245,1064,1,"Foreign",1,"6",1,NA,31
"352",400245,1066,1,"Foreign",1,"4",0,NA,32
"353",400245,1033,1,"Foreign",1,"6",1,NA,33
"354",400245,1017,1,"Foreign",1,"2",0,NA,34
"355",400245,1053,1,"Foreign",1,"4",1,NA,35
"356",400245,1013,1,"Foreign",1,"3",0,NA,36
"357",400245,1049,1,"Foreign",1,"4",1,NA,37
"358",400245,1025,1,"Foreign",1,"6",0,NA,38
"359",400245,1001,1,"Foreign",1,"6",1,NA,39
"360",400245,1067,1,"Foreign",1,"1",0,NA,40
"361",400245,1072,1,"Foreign",1,"1",1,NA,41
"362",400245,1080,1,"Foreign",1,"1",0,NA,42
"363",400245,1030,1,"Foreign",1,"6",1,NA,43
"364",400245,1012,1,"Foreign",1,"4",1,NA,44
"365",400245,1054,1,"Foreign",1,"1",1,NA,45
"366",400245,1051,1,"Foreign",1,"6",1,NA,46
"367",400245,1019,1,"Foreign",1,"6",1,NA,47
"368",400245,1052,1,"Foreign",1,"1",1,NA,48
"369",400245,1022,1,"Foreign",1,"3",1,NA,49
"370",400245,1003,1,"Foreign",1,"6",1,NA,50
"371",400245,1008,1,"Foreign",1,"6",1,NA,51
"372",400245,1043,1,"Foreign",1,"3",1,NA,52
"373",400245,1018,1,"Foreign",1,"1",0,NA,53
"374",400245,1071,1,"Foreign",1,"1",0,NA,54
"375",400245,1029,1,"Foreign",1,"1",0,NA,55
"376",400245,1026,1,"Foreign",1,"1",1,NA,56
"377",400245,1035,1,"Foreign",1,"1",0,NA,57
"378",400245,1036,1,"Foreign",1,"6",1,NA,58
"379",400245,1076,1,"Foreign",1,"3",1,NA,59
"380",400245,1063,1,"Foreign",1,"1",0,NA,60
"381",400245,1057,1,"Foreign",1,"2",1,NA,61
"382",400245,1010,1,"Foreign",1,"6",0,NA,62
"383",400245,1041,1,"Foreign",1,"3",0,NA,63
"384",400245,1005,1,"Foreign",1,"6",0,NA,64
"385",400245,1021,1,"Foreign",1,"1",1,NA,65
"386",400245,1045,1,"Foreign",1,"3",0,NA,66
"387",400245,1047,1,"Foreign",1,"6",1,NA,67
"388",400245,1078,1,"Foreign",1,"3",0,NA,68
"389",400245,1016,1,"Foreign",1,"3",1,NA,69
"390",400245,1032,1,"Foreign",1,"1",0,NA,70
"391",400245,1055,1,"Foreign",1,"1",1,NA,71
"392",400245,1011,1,"Foreign",1,"1",1,NA,72
"393",400245,1060,1,"Foreign",1,"2",0,NA,73
"394",400245,1014,1,"Foreign",1,"1",1,NA,74
"395",400245,1059,1,"Foreign",1,"1",1,NA,75
"396",400245,1020,1,"Foreign",1,"3",1,NA,76
"397",400245,1046,1,"Foreign",1,"1",0,NA,77
"398",400245,1042,1,"Foreign",1,"3",0,NA,78
"399",400245,1044,1,"Foreign",1,"6",1,NA,79
"400",400245,1070,1,"Foreign",1,"3",0,NA,80
"401",400263,1003,1,"Native",1,NA,1,NA,1
"402",400263,1051,1,"Native",1,"6",1,NA,2
"403",400263,1029,1,"Native",1,"4",0,NA,3
"404",400263,1069,1,"Native",1,"1",0,NA,4
"405",400263,1028,1,"Native",1,NA,0,NA,5
"406",400263,1026,1,"Native",1,"6",1,NA,6
"407",400263,1031,1,"Native",1,"6",1,NA,7
"408",400263,1055,1,"Native",1,"6",1,NA,8
"409",400263,1042,1,"Native",1,NA,0,NA,9
"410",400263,1065,1,"Native",1,"4",0,NA,10
"411",400263,1032,1,"Native",1,NA,0,NA,11
"412",400263,1072,1,"Native",1,"5",1,NA,12
"413",400263,1024,1,"Native",1,"3",0,NA,13
"414",400263,1015,1,"Native",1,"6",1,NA,14
"415",400263,1008,1,"Native",1,"6",1,NA,15
"416",400263,1045,1,"Native",1,"6",0,NA,16
"417",400263,1057,1,"Native",1,"6",1,NA,17
"418",400263,1064,1,"Native",1,"6",1,NA,18
"419",400263,1009,1,"Native",1,"5",0,NA,19
"420",400263,1073,1,"Native",1,"6",1,NA,20
"421",400263,1016,1,"Native",1,"6",1,NA,21
"422",400263,1004,1,"Native",1,NA,0,NA,22
"423",400263,1023,1,"Native",1,"6",1,NA,23
"424",400263,1002,1,"Native",1,NA,1,NA,24
"425",400263,1061,1,"Native",1,"6",1,NA,25
"426",400263,1034,1,"Native",1,"4",1,NA,26
"427",400263,1043,1,"Native",1,NA,1,NA,27
"428",400263,1068,1,"Native",1,NA,0,NA,28
"429",400263,1025,1,"Native",1,NA,0,NA,29
"430",400263,1052,1,"Native",1,NA,1,NA,30
"431",400263,1019,1,"Native",1,"6",1,NA,31
"432",400263,1058,1,"Native",1,NA,0,NA,32
"433",400263,1006,1,"Native",1,NA,0,NA,33
"434",400263,1062,1,"Native",1,"4",0,NA,34
"435",400263,1079,1,"Native",1,"6",1,NA,35
"436",400263,1053,1,"Native",1,"6",1,NA,36
"437",400263,1036,1,"Native",1,"6",1,NA,37
"438",400263,1012,1,"Native",1,"6",1,NA,38
"439",400263,1044,1,"Native",1,"6",1,NA,39
"440",400263,1040,1,"Native",1,"4",0,NA,40
"441",400263,1059,1,"Native",1,"6",1,NA,41
"442",400263,1080,1,"Native",1,"3",0,NA,42
"443",400263,1001,1,"Native",1,"6",1,NA,43
"444",400263,1066,1,"Native",1,"3",0,NA,44
"445",400263,1074,1,"Native",1,"6",1,NA,45
"446",400263,1035,1,"Native",1,"5",0,NA,46
"447",400263,1010,1,"Native",1,"2",0,NA,47
"448",400263,1048,1,"Native",1,"3",0,NA,48
"449",400263,1067,1,"Native",1,"5",0,NA,49
"450",400263,1056,1,"Native",1,"5",0,NA,50
"451",400263,1060,1,"Native",1,"3",0,NA,51
"452",400263,1039,1,"Native",1,"3",0,NA,52
"453",400263,1078,1,"Native",1,"4",0,NA,53
"454",400263,1014,1,"Native",1,"5",1,NA,54
"455",400263,1011,1,"Native",1,"6",1,NA,55
"456",400263,1033,1,"Native",1,"6",1,NA,56
"457",400263,1021,1,"Native",1,"6",1,NA,57
"458",400263,1054,1,"Native",1,"6",1,NA,58
"459",400263,1037,1,"Native",1,"3",0,NA,59
"460",400263,1013,1,"Native",1,"3",0,NA,60
"461",400263,1070,1,"Native",1,"4",0,NA,61
"462",400263,1017,1,"Native",1,"4",0,NA,62
"463",400263,1041,1,"Native",1,"4",0,NA,63
"464",400263,1005,1,"Native",1,"4",0,NA,64
"465",400263,1038,1,"Native",1,"6",1,NA,65
"466",400263,1049,1,"Native",1,"6",1,NA,66
"467",400263,1020,1,"Native",1,"6",1,NA,67
"468",400263,1063,1,"Native",1,"4",0,NA,68
"469",400263,1077,1,"Native",1,"4",0,NA,69
"470",400263,1075,1,"Native",1,"5",0,NA,70
"471",400263,1050,1,"Native",1,"4",0,NA,71
"472",400263,1071,1,"Native",1,"4",0,NA,72
"473",400263,1018,1,"Native",1,"5",0,NA,73
"474",400263,1046,1,"Native",1,"4",0,NA,74
"475",400263,1076,1,"Native",1,"6",1,NA,75
"476",400263,1007,1,"Native",1,"6",1,NA,76
"477",400263,1047,1,"Native",1,"6",1,NA,77
"478",400263,1030,1,"Native",1,"6",1,NA,78
"479",400263,1027,1,"Native",1,"4",0,NA,79
"480",400263,1022,1,"Native",1,"6",1,NA,80
"481",400264,1056,1,"Native",1,"6",1,NA,1
"482",400264,1051,1,"Native",1,"6",0,NA,2
"483",400264,1013,1,"Native",1,"1",1,NA,3
"484",400264,1050,1,"Native",1,"5",1,NA,4
"485",400264,1008,1,"Native",1,"4",0,NA,5
"486",400264,1011,1,"Native",1,"3",0,NA,6
"487",400264,1016,1,"Native",1,"3",0,NA,7
"488",400264,1033,1,"Native",1,"5",0,NA,8
"489",400264,1015,1,"Native",1,"4",0,NA,9
"490",400264,1048,1,"Native",1,"5",1,NA,10
"491",400264,1028,1,"Native",1,"5",1,NA,11
"492",400264,1078,1,"Native",1,"5",1,NA,12
"493",400264,1057,1,"Native",1,"4",0,NA,13
"494",400264,1079,1,"Native",1,"4",0,NA,14
"495",400264,1002,1,"Native",1,"5",0,NA,15
"496",400264,1060,1,"Native",1,"2",1,NA,16
"497",400264,1077,1,"Native",1,"4",1,NA,17
"498",400264,1067,1,"Native",1,"6",1,NA,18
"499",400264,1003,1,"Native",1,"3",0,NA,19
"500",400264,1032,1,"Native",1,"4",1,NA,20
"501",400264,1052,1,"Native",1,"2",0,NA,21
"502",400264,1069,1,"Native",1,"4",1,NA,22
"503",400264,1022,1,"Native",1,"3",0,NA,23
"504",400264,1053,1,"Native",1,"4",0,NA,24
"505",400264,1049,1,"Native",1,"4",0,NA,25
"506",400264,1014,1,"Native",1,"5",0,NA,26
"507",400264,1040,1,"Native",1,"5",1,NA,27
"508",400264,1034,1,"Native",1,"3",0,NA,28
"509",400264,1023,1,"Native",1,"4",0,NA,29
"510",400264,1010,1,"Native",1,"6",1,NA,30
"511",400264,1044,1,"Native",1,"4",0,NA,31
"512",400264,1080,1,"Native",1,"5",1,NA,32
"513",400264,1065,1,"Native",1,"5",1,NA,33
"514",400264,1066,1,"Native",1,"3",1,NA,34
"515",400264,1073,1,"Native",1,"3",0,NA,35
"516",400264,1061,1,"Native",1,"4",0,NA,36
"517",400264,1046,1,"Native",1,"5",1,NA,37
"518",400264,1058,1,"Native",1,"5",1,NA,38
"519",400264,1020,1,"Native",1,"4",0,NA,39
"520",400264,1031,1,"Native",1,"6",0,NA,40
"521",400264,1025,1,"Native",1,"4",1,NA,41
"522",400264,1042,1,"Native",1,"4",1,NA,42
"523",400264,1075,1,"Native",1,"6",1,NA,43
"524",400264,1021,1,"Native",1,"3",0,NA,44
"525",400264,1006,1,"Native",1,"3",1,NA,45
"526",400264,1059,1,"Native",1,"3",0,NA,46
"527",400264,1007,1,"Native",1,"4",0,NA,47
"528",400264,1063,1,"Native",1,"4",1,NA,48
"529",400264,1018,1,"Native",1,"4",1,NA,49
"530",400264,1039,1,"Native",1,"5",1,NA,50
"531",400264,1045,1,"Native",1,"4",1,NA,51
"532",400264,1071,1,"Native",1,"5",1,NA,52
"533",400264,1005,1,"Native",1,"5",1,NA,53
"534",400264,1064,1,"Native",1,"3",0,NA,54
"535",400264,1029,1,"Native",1,"4",1,NA,55
"536",400264,1004,1,"Native",1,"4",1,NA,56
"537",400264,1017,1,"Native",1,"4",1,NA,57
"538",400264,1026,1,"Native",1,"4",0,NA,58
"539",400264,1043,1,"Native",1,"4",0,NA,59
"540",400264,1009,1,"Native",1,"4",1,NA,60
"541",400264,1041,1,"Native",1,"4",1,NA,61
"542",400264,1030,1,"Native",1,"4",0,NA,62
"543",400264,1036,1,"Native",1,"4",0,NA,63
"544",400264,1068,1,"Native",1,"4",1,NA,64
"545",400264,1024,1,"Native",1,"5",1,NA,65
"546",400264,1047,1,"Native",1,"5",0,NA,66
"547",400264,1055,1,"Native",1,"4",0,NA,67
"548",400264,1054,1,"Native",1,"4",0,NA,68
"549",400264,1019,1,"Native",1,"4",0,NA,69
"550",400264,1001,1,"Native",1,"3",0,NA,70
"551",400264,1074,1,"Native",1,"4",0,NA,71
"552",400264,1072,1,"Native",1,"6",0,NA,72
"553",400264,1076,1,"Native",1,"3",0,NA,73
"554",400264,1037,1,"Native",1,"4",1,NA,74
"555",400264,1027,1,"Native",1,"4",1,NA,75
"556",400264,1070,1,"Native",1,"4",1,NA,76
"557",400264,1035,1,"Native",1,"5",1,NA,77
"558",400264,1012,1,"Native",1,"4",0,NA,78
"559",400264,1038,1,"Native",1,"4",0,NA,79
"560",400264,1062,1,"Native",1,"5",1,NA,80
"561",400327,1063,1,"Foreign",1,NA,1,NA,1
"562",400327,1037,1,"Foreign",1,NA,1,NA,2
"563",400327,1022,1,"Foreign",1,"1",0,NA,3
"564",400327,1069,1,"Foreign",1,"6",1,NA,4
"565",400327,1068,1,"Foreign",1,"4",1,NA,5
"566",400327,1067,1,"Foreign",1,"5",1,NA,6
"567",400327,1066,1,"Foreign",1,"5",1,NA,7
"568",400327,1055,1,"Foreign",1,"4",0,NA,8
"569",400327,1041,1,"Foreign",1,"6",1,NA,9
"570",400327,1079,1,"Foreign",1,"6",0,NA,10
"571",400327,1045,1,"Foreign",1,"4",1,NA,11
"572",400327,1011,1,"Foreign",1,"1",0,NA,12
"573",400327,1071,1,"Foreign",1,"5",1,NA,13
"574",400327,1061,1,"Foreign",1,"5",0,NA,14
"575",400327,1026,1,"Foreign",1,"1",0,NA,15
"576",400327,1077,1,"Foreign",1,"4",1,NA,16
"577",400327,1054,1,"Foreign",1,"1",0,NA,17
"578",400327,1019,1,"Foreign",1,"2",0,NA,18
"579",400327,1001,1,"Foreign",1,"2",0,NA,19
"580",400327,1057,1,"Foreign",1,"3",0,NA,20
"581",400327,1032,1,"Foreign",1,"6",1,NA,21
"582",400327,1043,1,"Foreign",1,"1",0,NA,22
"583",400327,1050,1,"Foreign",1,"6",1,NA,23
"584",400327,1046,1,"Foreign",1,"5",1,NA,24
"585",400327,1065,1,"Foreign",1,"5",1,NA,25
"586",400327,1005,1,"Foreign",1,"5",1,NA,26
"587",400327,1013,1,"Foreign",1,"3",1,NA,27
"588",400327,1074,1,"Foreign",1,"2",0,NA,28
"589",400327,1062,1,"Foreign",1,"5",1,NA,29
"590",400327,1018,1,"Foreign",1,"5",1,NA,30
"591",400327,1073,1,"Foreign",1,"4",0,NA,31
"592",400327,1021,1,"Foreign",1,"3",0,NA,32
"593",400327,1014,1,"Foreign",1,"1",0,NA,33
"594",400327,1053,1,"Foreign",1,"3",0,NA,34
"595",400327,1031,1,"Foreign",1,"1",0,NA,35
"596",400327,1040,1,"Foreign",1,"5",1,NA,36
"597",400327,1064,1,"Foreign",1,"4",0,NA,37
"598",400327,1038,1,"Foreign",1,"2",0,NA,38
"599",400327,1033,1,"Foreign",1,"3",0,NA,39
"600",400327,1029,1,"Foreign",1,"4",1,NA,40
"601",400327,1056,1,"Foreign",1,"5",1,NA,41
"602",400327,1006,1,"Foreign",1,"5",1,NA,42
"603",400327,1017,1,"Foreign",1,"6",1,NA,43
"604",400327,1023,1,"Foreign",1,"5",0,NA,44
"605",400327,1060,1,"Foreign",1,"5",1,NA,45
"606",400327,1024,1,"Foreign",1,"5",1,NA,46
"607",400327,1044,1,"Foreign",1,"6",0,NA,47
"608",400327,1078,1,"Foreign",1,"5",1,NA,48
"609",400327,1039,1,"Foreign",1,"3",1,NA,49
"610",400327,1010,1,"Foreign",1,"5",1,NA,50
"611",400327,1003,1,"Foreign",1,NA,0,NA,51
"612",400327,1036,1,"Foreign",1,"3",0,NA,52
"613",400327,1020,1,"Foreign",1,"2",0,NA,53
"614",400327,1015,1,"Foreign",1,"2",0,NA,54
"615",400327,1047,1,"Foreign",1,"3",0,NA,55
"616",400327,1025,1,"Foreign",1,"3",1,NA,56
"617",400327,1034,1,"Foreign",1,"3",0,NA,57
"618",400327,1075,1,"Foreign",1,"5",1,NA,58
"619",400327,1051,1,"Foreign",1,"5",0,NA,59
"620",400327,1008,1,"Foreign",1,"1",0,NA,60
"621",400327,1002,1,"Foreign",1,"2",0,NA,61
"622",400327,1052,1,"Foreign",1,"1",0,NA,62
"623",400327,1080,1,"Foreign",1,"3",1,NA,63
"624",400327,1007,1,"Foreign",1,"2",0,NA,64
"625",400327,1027,1,"Foreign",1,"3",1,NA,65
"626",400327,1004,1,"Foreign",1,"5",1,NA,66
"627",400327,1012,1,"Foreign",1,"2",0,NA,67
"628",400327,1009,1,"Foreign",1,"5",1,NA,68
"629",400327,1042,1,"Foreign",1,"6",1,NA,69
"630",400327,1049,1,"Foreign",1,"4",0,NA,70
"631",400327,1072,1,"Foreign",1,"2",0,NA,71
"632",400327,1030,1,"Foreign",1,"3",0,NA,72
"633",400327,1048,1,"Foreign",1,"6",1,NA,73
"634",400327,1035,1,"Foreign",1,"3",1,NA,74
"635",400327,1076,1,"Foreign",1,"4",0,NA,75
"636",400327,1059,1,"Foreign",1,"6",0,NA,76
"637",400327,1028,1,"Foreign",1,"4",1,NA,77
"638",400327,1070,1,"Foreign",1,"4",1,NA,78
"639",400327,1016,1,"Foreign",1,"4",0,NA,79
"640",400327,1058,1,"Foreign",1,"5",1,NA,80
"641",400336,1034,1,"Native",1,"6",0,NA,1
"642",400336,1006,1,"Native",1,"1",1,NA,2
"643",400336,1028,1,"Native",1,"3",1,NA,3
"644",400336,1032,1,"Native",1,"6",1,NA,4
"645",400336,1054,1,"Native",1,"6",0,NA,5
"646",400336,1074,1,"Native",1,"4",0,NA,6
"647",400336,1044,1,"Native",1,"6",0,NA,7
"648",400336,1022,1,"Native",1,"5",0,NA,8
"649",400336,1026,1,"Native",1,"6",0,NA,9
"650",400336,1069,1,"Native",1,"6",1,NA,10
"651",400336,1070,1,"Native",1,"1",1,NA,11
"652",400336,1053,1,"Native",1,"4",0,NA,12
"653",400336,1020,1,"Native",1,"3",0,NA,13
"654",400336,1052,1,"Native",1,"3",0,NA,14
"655",400336,1019,1,"Native",1,"5",0,NA,15
"656",400336,1036,1,"Native",1,"6",0,NA,16
"657",400336,1076,1,"Native",1,"2",0,NA,17
"658",400336,1030,1,"Native",1,"6",0,NA,18
"659",400336,1062,1,"Native",1,"6",1,NA,19
"660",400336,1010,1,"Native",1,"1",1,NA,20
"661",400336,1016,1,"Native",1,"4",0,NA,21
"662",400336,1072,1,"Native",1,"4",0,NA,22
"663",400336,1067,1,"Native",1,"5",1,NA,23
"664",400336,1075,1,"Native",1,"6",1,NA,24
"665",400336,1060,1,"Native",1,"1",1,NA,25
"666",400336,1080,1,"Native",1,"1",1,NA,26
"667",400336,1049,1,"Native",1,"1",0,NA,27
"668",400336,1025,1,"Native",1,"6",1,NA,28
"669",400336,1055,1,"Native",1,"6",0,NA,29
"670",400336,1015,1,"Native",1,"1",0,NA,30
"671",400336,1050,1,"Native",1,"4",1,NA,31
"672",400336,1038,1,"Native",1,"3",0,NA,32
"673",400336,1048,1,"Native",1,"5",1,NA,33
"674",400336,1024,1,"Native",1,"6",1,NA,34
"675",400336,1056,1,"Native",1,"5",1,NA,35
"676",400336,1066,1,"Native",1,"3",1,NA,36
"677",400336,1042,1,"Native",1,"6",1,NA,37
"678",400336,1017,1,"Native",1,"3",1,NA,38
"679",400336,1061,1,"Native",1,"6",0,NA,39
"680",400336,1073,1,"Native",1,"6",0,NA,40
"681",400336,1079,1,"Native",1,"2",0,NA,41
"682",400336,1078,1,"Native",1,"2",1,NA,42
"683",400336,1029,1,"Native",1,"3",1,NA,43
"684",400336,1003,1,"Native",1,"5",0,NA,44
"685",400336,1027,1,"Native",1,"1",1,NA,45
"686",400336,1065,1,"Native",1,"6",1,NA,46
"687",400336,1039,1,"Native",1,"3",1,NA,47
"688",400336,1046,1,"Native",1,"5",1,NA,48
"689",400336,1043,1,"Native",1,"4",0,NA,49
"690",400336,1004,1,"Native",1,"1",1,NA,50
"691",400336,1018,1,"Native",1,"1",1,NA,51
"692",400336,1059,1,"Native",1,"5",0,NA,52
"693",400336,1002,1,"Native",1,"6",0,NA,53
"694",400336,1063,1,"Native",1,"3",1,NA,54
"695",400336,1051,1,"Native",1,"4",0,NA,55
"696",400336,1045,1,"Native",1,"3",1,NA,56
"697",400336,1007,1,"Native",1,"2",0,NA,57
"698",400336,1041,1,"Native",1,"4",1,NA,58
"699",400336,1068,1,"Native",1,"3",1,NA,59
"700",400336,1057,1,"Native",1,"1",0,NA,60
"701",400336,1031,1,"Native",1,"1",0,NA,61
"702",400336,1040,1,"Native",1,"1",1,NA,62
"703",400336,1012,1,"Native",1,"4",0,NA,63
"704",400336,1058,1,"Native",1,"6",1,NA,64
"705",400336,1009,1,"Native",1,"6",1,NA,65
"706",400336,1035,1,"Native",1,"3",1,NA,66
"707",400336,1008,1,"Native",1,"4",0,NA,67
"708",400336,1023,1,"Native",1,"5",0,NA,68
"709",400336,1014,1,"Native",1,"1",0,NA,69
"710",400336,1021,1,"Native",1,"2",0,NA,70
"711",400336,1011,1,"Native",1,"1",0,NA,71
"712",400336,1077,1,"Native",1,"4",1,NA,72
"713",400336,1033,1,"Native",1,"3",0,NA,73
"714",400336,1001,1,"Native",1,"5",0,NA,74
"715",400336,1037,1,"Native",1,"3",1,NA,75
"716",400336,1013,1,"Native",1,"4",1,NA,76
"717",400336,1047,1,"Native",1,"5",0,NA,77
"718",400336,1005,1,"Native",1,"4",1,NA,78
"719",400336,1071,1,"Native",1,"3",1,NA,79
"720",400336,1064,1,"Native",1,"2",0,NA,80
"721",400350,1029,1,"Foreign",1,NA,0,NA,1
"722",400350,1057,1,"Foreign",1,NA,1,NA,2
"723",400350,1008,1,"Foreign",1,NA,1,NA,3
"724",400350,1040,1,"Foreign",1,NA,0,NA,4
"725",400350,1050,1,"Foreign",1,"4",0,NA,5
"726",400350,1003,1,"Foreign",1,"4",1,NA,6
"727",400350,1065,1,"Foreign",1,"6",0,NA,7
"728",400350,1042,1,"Foreign",1,"3",0,NA,8
"729",400350,1019,1,"Foreign",1,"3",1,NA,9
"730",400350,1073,1,"Foreign",1,"5",1,NA,10
"731",400350,1036,1,"Foreign",1,"5",1,NA,11
"732",400350,1043,1,"Foreign",1,"5",1,NA,12
"733",400350,1066,1,"Foreign",1,"4",0,NA,13
"734",400350,1012,1,"Foreign",1,"3",1,NA,14
"735",400350,1076,1,"Foreign",1,"6",1,NA,15
"736",400350,1061,1,"Foreign",1,"5",1,NA,16
"737",400350,1015,1,"Foreign",1,"2",1,NA,17
"738",400350,1068,1,"Foreign",1,"4",0,NA,18
"739",400350,1039,1,"Foreign",1,"2",0,NA,19
"740",400350,1032,1,"Foreign",1,"3",0,NA,20
"741",400350,1028,1,"Foreign",1,"3",0,NA,21
"742",400350,1071,1,"Foreign",1,"5",0,NA,22
"743",400350,1051,1,"Foreign",1,"4",1,NA,23
"744",400350,1056,1,"Foreign",1,"4",0,NA,24
"745",400350,1013,1,"Foreign",1,"3",0,NA,25
"746",400350,1007,1,"Foreign",1,"3",1,NA,26
"747",400350,1041,1,"Foreign",1,"4",0,NA,27
"748",400350,1022,1,"Foreign",1,"4",1,NA,28
"749",400350,1014,1,"Foreign",1,"3",1,NA,29
"750",400350,1004,1,"Foreign",1,"1",0,NA,30
"751",400350,1072,1,"Foreign",1,"4",1,NA,31
"752",400350,1033,1,"Foreign",1,"5",1,NA,32
"753",400350,1053,1,"Foreign",1,"2",1,NA,33
"754",400350,1067,1,"Foreign",1,"6",0,NA,34
"755",400350,1052,1,"Foreign",1,"2",1,NA,35
"756",400350,1034,1,"Foreign",1,"2",1,NA,36
"757",400350,1070,1,"Foreign",1,"3",0,NA,37
"758",400350,1006,1,"Foreign",1,"6",0,NA,38
"759",400350,1048,1,"Foreign",1,"6",0,NA,39
"760",400350,1020,1,"Foreign",1,"4",1,NA,40
"761",400350,1063,1,"Foreign",1,"3",0,NA,41
"762",400350,1038,1,"Foreign",1,"4",1,NA,42
"763",400350,1025,1,"Foreign",1,"5",0,NA,43
"764",400350,1054,1,"Foreign",1,"4",1,NA,44
"765",400350,1037,1,"Foreign",1,"5",0,NA,45
"766",400350,1079,1,"Foreign",1,"6",1,NA,46
"767",400350,1047,1,"Foreign",1,"5",1,NA,47
"768",400350,1018,1,"Foreign",1,"4",0,NA,48
"769",400350,1074,1,"Foreign",1,"2",1,NA,49
"770",400350,1062,1,"Foreign",1,"5",0,NA,50
"771",400350,1059,1,"Foreign",1,"5",1,NA,51
"772",400350,1027,1,"Foreign",1,"3",0,NA,52
"773",400350,1005,1,"Foreign",1,"4",0,NA,53
"774",400350,1010,1,"Foreign",1,"3",0,NA,54
"775",400350,1021,1,"Foreign",1,"4",1,NA,55
"776",400350,1080,1,"Foreign",1,"5",0,NA,56
"777",400350,1016,1,"Foreign",1,"4",1,NA,57
"778",400350,1077,1,"Foreign",1,"4",0,NA,58
"779",400350,1001,1,"Foreign",1,"3",1,NA,59
"780",400350,1058,1,"Foreign",1,"4",0,NA,60
"781",400350,1060,1,"Foreign",1,"5",0,NA,61
"782",400350,1030,1,"Foreign",1,"5",1,NA,62
"783",400350,1026,1,"Foreign",1,"5",1,NA,63
"784",400350,1075,1,"Foreign",1,"4",0,NA,64
"785",400350,1045,1,"Foreign",1,"4",0,NA,65
"786",400350,1046,1,"Foreign",1,"5",0,NA,66
"787",400350,1011,1,"Foreign",1,"5",1,NA,67
"788",400350,1044,1,"Foreign",1,"5",1,NA,68
"789",400350,1078,1,"Foreign",1,"3",0,NA,69
"790",400350,1055,1,"Foreign",1,"5",1,NA,70
"791",400350,1023,1,"Foreign",1,"6",1,NA,71
"792",400350,1024,1,"Foreign",1,"4",0,NA,72
"793",400350,1064,1,"Foreign",1,"4",1,NA,73
"794",400350,1069,1,"Foreign",1,"3",0,NA,74
"795",400350,1035,1,"Foreign",1,"4",0,NA,75
"796",400350,1002,1,"Foreign",1,"4",1,NA,76
"797",400350,1049,1,"Foreign",1,"5",1,NA,77
"798",400350,1017,1,"Foreign",1,"3",0,NA,78
"799",400350,1009,1,"Foreign",1,"4",0,NA,79
"800",400350,1031,1,"Foreign",1,"5",1,NA,80
"801",401164,1051,1,"Foreign",1,"3",0,NA,1
"802",401164,1011,1,"Foreign",1,"2",0,NA,2
"803",401164,1070,1,"Foreign",1,"2",1,NA,3
"804",401164,1017,1,"Foreign",1,"5",1,NA,4
"805",401164,1037,1,"Foreign",1,"5",1,NA,5
"806",401164,1063,1,"Foreign",1,"4",1,NA,6
"807",401164,1019,1,"Foreign",1,"4",0,NA,7
"808",401164,1028,1,"Foreign",1,"3",1,NA,8
"809",401164,1008,1,"Foreign",1,"5",0,NA,9
"810",401164,1013,1,"Foreign",1,"4",1,NA,10
"811",401164,1035,1,"Foreign",1,"5",1,NA,11
"812",401164,1069,1,"Foreign",1,"4",1,NA,12
"813",401164,1030,1,"Foreign",1,"2",0,NA,13
"814",401164,1071,1,"Foreign",1,"5",1,NA,14
"815",401164,1029,1,"Foreign",1,"3",1,NA,15
"816",401164,1001,1,"Foreign",1,"5",0,NA,16
"817",401164,1031,1,"Foreign",1,"2",0,NA,17
"818",401164,1020,1,"Foreign",1,"3",0,NA,18
"819",401164,1026,1,"Foreign",1,"4",0,NA,19
"820",401164,1042,1,"Foreign",1,"4",1,NA,20
"821",401164,1058,1,"Foreign",1,"3",1,NA,21
"822",401164,1065,1,"Foreign",1,"4",1,NA,22
"823",401164,1078,1,"Foreign",1,"3",1,NA,23
"824",401164,1022,1,"Foreign",1,"3",0,NA,24
"825",401164,1055,1,"Foreign",1,"3",0,NA,25
"826",401164,1053,1,"Foreign",1,"3",0,NA,26
"827",401164,1007,1,"Foreign",1,"2",0,NA,27
"828",401164,1044,1,"Foreign",1,"2",0,NA,28
"829",401164,1034,1,"Foreign",1,"4",0,NA,29
"830",401164,1014,1,"Foreign",1,"4",0,NA,30
"831",401164,1077,1,"Foreign",1,"3",1,NA,31
"832",401164,1021,1,"Foreign",1,"3",0,NA,32
"833",401164,1002,1,"Foreign",1,"4",0,NA,33
"834",401164,1064,1,"Foreign",1,"5",0,NA,34
"835",401164,1041,1,"Foreign",1,"3",1,NA,35
"836",401164,1059,1,"Foreign",1,"2",0,NA,36
"837",401164,1062,1,"Foreign",1,"5",1,NA,37
"838",401164,1023,1,"Foreign",1,"5",0,NA,38
"839",401164,1079,1,"Foreign",1,"5",0,NA,39
"840",401164,1018,1,"Foreign",1,"4",1,NA,40
"841",401164,1067,1,"Foreign",1,"4",1,NA,41
"842",401164,1012,1,"Foreign",1,"2",0,NA,42
"843",401164,1009,1,"Foreign",1,"2",1,NA,43
"844",401164,1045,1,"Foreign",1,"2",1,NA,44
"845",401164,1040,1,"Foreign",1,"5",1,NA,45
"846",401164,1036,1,"Foreign",1,"5",0,NA,46
"847",401164,1016,1,"Foreign",1,"5",0,NA,47
"848",401164,1024,1,"Foreign",1,"3",1,NA,48
"849",401164,1027,1,"Foreign",1,"2",1,NA,49
"850",401164,1047,1,"Foreign",1,"2",0,NA,50
"851",401164,1049,1,"Foreign",1,"5",0,NA,51
"852",401164,1048,1,"Foreign",1,"2",1,NA,52
"853",401164,1054,1,"Foreign",1,"3",0,NA,53
"854",401164,1066,1,"Foreign",1,"4",1,NA,54
"855",401164,1025,1,"Foreign",1,"4",1,NA,55
"856",401164,1072,1,"Foreign",1,"5",0,NA,56
"857",401164,1038,1,"Foreign",1,"5",0,NA,57
"858",401164,1039,1,"Foreign",1,"3",1,NA,58
"859",401164,1006,1,"Foreign",1,"4",1,NA,59
"860",401164,1015,1,"Foreign",1,"2",0,NA,60
"861",401164,1074,1,"Foreign",1,"2",0,NA,61
"862",401164,1032,1,"Foreign",1,"2",1,NA,62
"863",401164,1046,1,"Foreign",1,"4",1,NA,63
"864",401164,1080,1,"Foreign",1,"2",1,NA,64
"865",401164,1075,1,"Foreign",1,"5",1,NA,65
"866",401164,1043,1,"Foreign",1,"4",0,NA,66
"867",401164,1004,1,"Foreign",1,"4",1,NA,67
"868",401164,1010,1,"Foreign",1,"3",1,NA,68
"869",401164,1073,1,"Foreign",1,"4",0,NA,69
"870",401164,1033,1,"Foreign",1,"3",0,NA,70
"871",401164,1061,1,"Foreign",1,"5",0,NA,71
"872",401164,1005,1,"Foreign",1,"4",1,NA,72
"873",401164,1003,1,"Foreign",1,"2",0,NA,73
"874",401164,1076,1,"Foreign",1,"5",0,NA,74
"875",401164,1056,1,"Foreign",1,"3",1,NA,75
"876",401164,1052,1,"Foreign",1,"2",0,NA,76
"877",401164,1050,1,"Foreign",1,"3",1,NA,77
"878",401164,1060,1,"Foreign",1,"3",1,NA,78
"879",401164,1068,1,"Foreign",1,"5",1,NA,79
"880",401164,1057,1,"Foreign",1,"3",0,NA,80
"881",401175,1011,1,"Native",1,"1",1,NA,1
"882",401175,1025,1,"Native",1,"3",0,NA,2
"883",401175,1019,1,"Native",1,"4",1,NA,3
"884",401175,1016,1,"Native",1,"3",1,NA,4
"885",401175,1046,1,"Native",1,"4",0,NA,5
"886",401175,1027,1,"Native",1,"1",0,NA,6
"887",401175,1001,1,"Native",1,"4",1,NA,7
"888",401175,1071,1,"Native",1,"5",0,NA,8
"889",401175,1007,1,"Native",1,"3",1,NA,9
"890",401175,1057,1,"Native",1,"3",1,NA,10
"891",401175,1008,1,"Native",1,"5",1,NA,11
"892",401175,1056,1,"Native",1,"2",0,NA,12
"893",401175,1041,1,"Native",1,"4",0,NA,13
"894",401175,1024,1,"Native",1,"4",0,NA,14
"895",401175,1079,1,"Native",1,"4",1,NA,15
"896",401175,1030,1,"Native",1,"4",1,NA,16
"897",401175,1021,1,"Native",1,"4",1,NA,17
"898",401175,1009,1,"Native",1,"4",0,NA,18
"899",401175,1068,1,"Native",1,"3",0,NA,19
"900",401175,1063,1,"Native",1,"2",0,NA,20
"901",401175,1051,1,"Native",1,"5",1,NA,21
"902",401175,1048,1,"Native",1,"4",0,NA,22
"903",401175,1036,1,"Native",1,"3",1,NA,23
"904",401175,1012,1,"Native",1,"3",1,NA,24
"905",401175,1075,1,"Native",1,"5",0,NA,25
"906",401175,1059,1,"Native",1,"5",1,NA,26
"907",401175,1054,1,"Native",1,"4",1,NA,27
"908",401175,1039,1,"Native",1,"3",0,NA,28
"909",401175,1032,1,"Native",1,"1",0,NA,29
"910",401175,1028,1,"Native",1,"4",0,NA,30
"911",401175,1010,1,"Native",1,"2",0,NA,31
"912",401175,1070,1,"Native",1,"3",0,NA,32
"913",401175,1018,1,"Native",1,"5",0,NA,33
"914",401175,1042,1,"Native",1,"3",0,NA,34
"915",401175,1073,1,"Native",1,"5",1,NA,35
"916",401175,1060,1,"Native",1,"4",0,NA,36
"917",401175,1034,1,"Native",1,"5",1,NA,37
"918",401175,1062,1,"Native",1,"3",0,NA,38
"919",401175,1043,1,"Native",1,"4",1,NA,39
"920",401175,1058,1,"Native",1,"4",0,NA,40
"921",401175,1077,1,"Native",1,"4",0,NA,41
"922",401175,1031,1,"Native",1,"4",1,NA,42
"923",401175,1049,1,"Native",1,"5",1,NA,43
"924",401175,1003,1,"Native",1,"2",1,NA,44
"925",401175,1052,1,"Native",1,"2",1,NA,45
"926",401175,1017,1,"Native",1,"3",0,NA,46
"927",401175,1013,1,"Native",1,"4",0,NA,47
"928",401175,1015,1,"Native",1,"6",1,NA,48
"929",401175,1050,1,"Native",1,"5",0,NA,49
"930",401175,1067,1,"Native",1,"4",0,NA,50
"931",401175,1006,1,"Native",1,"4",0,NA,51
"932",401175,1029,1,"Native",1,"5",0,NA,52
"933",401175,1076,1,"Native",1,"4",1,NA,53
"934",401175,1022,1,"Native",1,"5",1,NA,54
"935",401175,1037,1,"Native",1,"2",0,NA,55
"936",401175,1044,1,"Native",1,"6",1,NA,56
"937",401175,1065,1,"Native",1,"5",0,NA,57
"938",401175,1005,1,"Native",1,"4",0,NA,58
"939",401175,1004,1,"Native",1,"4",0,NA,59
"940",401175,1080,1,"Native",1,"1",0,NA,60
"941",401175,1069,1,"Native",1,"2",0,NA,61
"942",401175,1064,1,"Native",1,"3",1,NA,62
"943",401175,1033,1,"Native",1,"4",1,NA,63
"944",401175,1038,1,"Native",1,"4",1,NA,64
"945",401175,1055,1,"Native",1,"3",1,NA,65
"946",401175,1040,1,"Native",1,"6",0,NA,66
"947",401175,1002,1,"Native",1,"3",1,NA,67
"948",401175,1020,1,"Native",1,"4",1,NA,68
"949",401175,1026,1,"Native",1,"6",1,NA,69
"950",401175,1072,1,"Native",1,"5",1,NA,70
"951",401175,1045,1,"Native",1,"3",0,NA,71
"952",401175,1014,1,"Native",1,"4",1,NA,72
"953",401175,1047,1,"Native",1,"1",1,NA,73
"954",401175,1066,1,"Native",1,"4",0,NA,74
"955",401175,1053,1,"Native",1,"4",1,NA,75
"956",401175,1074,1,"Native",1,"4",1,NA,76
"957",401175,1078,1,"Native",1,"5",0,NA,77
"958",401175,1061,1,"Native",1,"3",1,NA,78
"959",401175,1035,1,"Native",1,"4",0,NA,79
"960",401175,1023,1,"Native",1,"6",1,NA,80
"961",401181,1076,1,"Foreign",1,"4",1,NA,1
"962",401181,1071,1,"Foreign",1,"4",0,NA,2
"963",401181,1073,1,"Foreign",1,"3",1,NA,3
"964",401181,1027,1,"Foreign",1,"3",0,NA,4
"965",401181,1042,1,"Foreign",1,"4",0,NA,5
"966",401181,1070,1,"Foreign",1,"3",0,NA,6
"967",401181,1063,1,"Foreign",1,"4",0,NA,7
"968",401181,1016,1,"Foreign",1,"3",1,NA,8
"969",401181,1078,1,"Foreign",1,"4",0,NA,9
"970",401181,1020,1,"Foreign",1,"5",1,NA,10
"971",401181,1041,1,"Foreign",1,"4",0,NA,11
"972",401181,1048,1,"Foreign",1,"4",0,NA,12
"973",401181,1061,1,"Foreign",1,"3",1,NA,13
"974",401181,1014,1,"Foreign",1,"4",1,NA,14
"975",401181,1034,1,"Foreign",1,"4",1,NA,15
"976",401181,1066,1,"Foreign",1,"3",0,NA,16
"977",401181,1055,1,"Foreign",1,"3",1,NA,17
"978",401181,1026,1,"Foreign",1,"3",1,NA,18
"979",401181,1038,1,"Foreign",1,"4",1,NA,19
"980",401181,1050,1,"Foreign",1,"4",0,NA,20
"981",401181,1036,1,"Foreign",1,"3",1,NA,21
"982",401181,1080,1,"Foreign",1,"3",0,NA,22
"983",401181,1043,1,"Foreign",1,"4",1,NA,23
"984",401181,1049,1,"Foreign",1,"4",1,NA,24
"985",401181,1067,1,"Foreign",1,"3",0,NA,25
"986",401181,1079,1,"Foreign",1,"4",1,NA,26
"987",401181,1032,1,"Foreign",1,"5",0,NA,27
"988",401181,1069,1,"Foreign",1,"4",0,NA,28
"989",401181,1077,1,"Foreign",1,"4",0,NA,29
"990",401181,1015,1,"Foreign",1,"3",1,NA,30
"991",401181,1011,1,"Foreign",1,"2",1,NA,31
"992",401181,1006,1,"Foreign",1,"4",0,NA,32
"993",401181,1007,1,"Foreign",1,"3",1,NA,33
"994",401181,1045,1,"Foreign",1,"3",0,NA,34
"995",401181,1001,1,"Foreign",1,"4",1,NA,35
"996",401181,1009,1,"Foreign",1,"4",0,NA,36
"997",401181,1005,1,"Foreign",1,"4",0,NA,37
"998",401181,1022,1,"Foreign",1,"3",1,NA,38
"999",401181,1059,1,"Foreign",1,"3",1,NA,39
"1000",401181,1021,1,"Foreign",1,"4",1,NA,40
"1001",401181,1051,1,"Foreign",1,"4",1,NA,41
"1002",401181,1075,1,"Foreign",1,"4",0,NA,42
"1003",401181,1003,1,"Foreign",1,"4",1,NA,43
"1004",401181,1013,1,"Foreign",1,"3",0,NA,44
"1005",401181,1053,1,"Foreign",1,"4",1,NA,45
"1006",401181,1017,1,"Foreign",1,"4",0,NA,46
"1007",401181,1019,1,"Foreign",1,"3",1,NA,47
"1008",401181,1064,1,"Foreign",1,"3",1,NA,48
"1009",401181,1044,1,"Foreign",1,"4",1,NA,49
"1010",401181,1062,1,"Foreign",1,"4",0,NA,50
"1011",401181,1065,1,"Foreign",1,"4",0,NA,51
"1012",401181,1039,1,"Foreign",1,"3",0,NA,52
"1013",401181,1074,1,"Foreign",1,"4",1,NA,53
"1014",401181,1028,1,"Foreign",1,"3",0,NA,54
"1015",401181,1012,1,"Foreign",1,"4",1,NA,55
"1016",401181,1024,1,"Foreign",1,"3",0,NA,56
"1017",401181,1029,1,"Foreign",1,"4",0,NA,57
"1018",401181,1030,1,"Foreign",1,"3",1,NA,58
"1019",401181,1054,1,"Foreign",1,"4",1,NA,59
"1020",401181,1002,1,"Foreign",1,"3",1,NA,60
"1021",401181,1008,1,"Foreign",1,"4",1,NA,61
"1022",401181,1023,1,"Foreign",1,"4",1,NA,62
"1023",401181,1004,1,"Foreign",1,"3",0,NA,63
"1024",401181,1033,1,"Foreign",1,"3",1,NA,64
"1025",401181,1068,1,"Foreign",1,"4",0,NA,65
"1026",401181,1052,1,"Foreign",1,"4",1,NA,66
"1027",401181,1018,1,"Foreign",1,"3",0,NA,67
"1028",401181,1040,1,"Foreign",1,"4",0,NA,68
"1029",401181,1025,1,"Foreign",1,"4",0,NA,69
"1030",401181,1058,1,"Foreign",1,"5",0,NA,70
"1031",401181,1035,1,"Foreign",1,"4",0,NA,71
"1032",401181,1047,1,"Foreign",1,"4",1,NA,72
"1033",401181,1037,1,"Foreign",1,"2",0,NA,73
"1034",401181,1010,1,"Foreign",1,"4",0,NA,74
"1035",401181,1031,1,"Foreign",1,"3",1,NA,75
"1036",401181,1072,1,"Foreign",1,"4",1,NA,76
"1037",401181,1046,1,"Foreign",1,"3",0,NA,77
"1038",401181,1057,1,"Foreign",1,"3",1,NA,78
"1039",401181,1056,1,"Foreign",1,"4",0,NA,79
"1040",401181,1060,1,"Foreign",1,"4",0,NA,80
"1041",401195,1057,1,"Native",1,"4",0,NA,1
"1042",401195,1021,1,"Native",1,"3",0,NA,2
"1043",401195,1004,1,"Native",1,"5",1,NA,3
"1044",401195,1011,1,"Native",1,"3",0,NA,4
"1045",401195,1058,1,"Native",1,"2",1,NA,5
"1046",401195,1013,1,"Native",1,"4",1,NA,6
"1047",401195,1035,1,"Native",1,"4",1,NA,7
"1048",401195,1063,1,"Native",1,"5",1,NA,8
"1049",401195,1045,1,"Native",1,"4",1,NA,9
"1050",401195,1062,1,"Native",1,"3",1,NA,10
"1051",401195,1001,1,"Native",1,"5",0,NA,11
"1052",401195,1014,1,"Native",1,"5",0,NA,12
"1053",401195,1039,1,"Native",1,"4",1,NA,13
"1054",401195,1040,1,"Native",1,"5",1,NA,14
"1055",401195,1041,1,"Native",1,"3",1,NA,15
"1056",401195,1042,1,"Native",1,"4",1,NA,16
"1057",401195,1008,1,"Native",1,"5",0,NA,17
"1058",401195,1068,1,"Native",1,"4",1,NA,18
"1059",401195,1074,1,"Native",1,"4",0,NA,19
"1060",401195,1067,1,"Native",1,"4",1,NA,20
"1061",401195,1003,1,"Native",1,"3",0,NA,21
"1062",401195,1070,1,"Native",1,"3",1,NA,22
"1063",401195,1025,1,"Native",1,"4",1,NA,23
"1064",401195,1033,1,"Native",1,"4",0,NA,24
"1065",401195,1044,1,"Native",1,"3",0,NA,25
"1066",401195,1027,1,"Native",1,"3",1,NA,26
"1067",401195,1071,1,"Native",1,"4",1,NA,27
"1068",401195,1052,1,"Native",1,"3",0,NA,28
"1069",401195,1043,1,"Native",1,"4",0,NA,29
"1070",401195,1032,1,"Native",1,"2",1,NA,30
"1071",401195,1030,1,"Native",1,"3",0,NA,31
"1072",401195,1076,1,"Native",1,"5",0,NA,32
"1073",401195,1056,1,"Native",1,"3",1,NA,33
"1074",401195,1022,1,"Native",1,"4",0,NA,34
"1075",401195,1065,1,"Native",1,"3",1,NA,35
"1076",401195,1047,1,"Native",1,"3",0,NA,36
"1077",401195,1010,1,"Native",1,"2",1,NA,37
"1078",401195,1007,1,"Native",1,"2",0,NA,38
"1079",401195,1028,1,"Native",1,"3",1,NA,39
"1080",401195,1079,1,"Native",1,"4",0,NA,40
"1081",401195,1019,1,"Native",1,"3",0,NA,41
"1082",401195,1061,1,"Native",1,"5",0,NA,42
"1083",401195,1002,1,"Native",1,"2",0,NA,43
"1084",401195,1064,1,"Native",1,"2",0,NA,44
"1085",401195,1036,1,"Native",1,"3",0,NA,45
"1086",401195,1023,1,"Native",1,"3",0,NA,46
"1087",401195,1059,1,"Native",1,"3",0,NA,47
"1088",401195,1020,1,"Native",1,"3",0,NA,48
"1089",401195,1049,1,"Native",1,"3",0,NA,49
"1090",401195,1051,1,"Native",1,"4",0,NA,50
"1091",401195,1006,1,"Native",1,"5",1,NA,51
"1092",401195,1038,1,"Native",1,"4",0,NA,52
"1093",401195,1029,1,"Native",1,"3",1,NA,53
"1094",401195,1031,1,"Native",1,"2",0,NA,54
"1095",401195,1066,1,"Native",1,"2",1,NA,55
"1096",401195,1026,1,"Native",1,"3",0,NA,56
"1097",401195,1046,1,"Native",1,"5",1,NA,57
"1098",401195,1017,1,"Native",1,"4",1,NA,58
"1099",401195,1073,1,"Native",1,"4",0,NA,59
"1100",401195,1078,1,"Native",1,"3",1,NA,60
"1101",401195,1012,1,"Native",1,"3",0,NA,61
"1102",401195,1072,1,"Native",1,"4",0,NA,62
"1103",401195,1037,1,"Native",1,"3",1,NA,63
"1104",401195,1053,1,"Native",1,"4",0,NA,64
"1105",401195,1077,1,"Native",1,"4",1,NA,65
"1106",401195,1034,1,"Native",1,"3",0,NA,66
"1107",401195,1075,1,"Native",1,"5",1,NA,67
"1108",401195,1054,1,"Native",1,"4",0,NA,68
"1109",401195,1048,1,"Native",1,"5",1,NA,69
"1110",401195,1005,1,"Native",1,"4",1,NA,70
"1111",401195,1024,1,"Native",1,"4",1,NA,71
"1112",401195,1018,1,"Native",1,"4",1,NA,72
"1113",401195,1069,1,"Native",1,"3",1,NA,73
"1114",401195,1009,1,"Native",1,"4",1,NA,74
"1115",401195,1016,1,"Native",1,"4",0,NA,75
"1116",401195,1055,1,"Native",1,"5",0,NA,76
"1117",401195,1015,1,"Native",1,"3",0,NA,77
"1118",401195,1060,1,"Native",1,"3",1,NA,78
"1119",401195,1050,1,"Native",1,"4",1,NA,79
"1120",401195,1080,1,"Native",1,"4",1,NA,80
"1121",401344,1036,1,"Native",1,"4",1,NA,1
"1122",401344,1041,1,"Native",1,"4",0,NA,2
"1123",401344,1052,1,"Native",1,"3",1,NA,3
"1124",401344,1070,1,"Native",1,"4",0,NA,4
"1125",401344,1043,1,"Native",1,"4",1,NA,5
"1126",401344,1002,1,"Native",1,"5",1,NA,6
"1127",401344,1025,1,"Native",1,"4",0,NA,7
"1128",401344,1005,1,"Native",1,"4",0,NA,8
"1129",401344,1054,1,"Native",1,"4",1,NA,9
"1130",401344,1038,1,"Native",1,"3",1,NA,10
"1131",401344,1076,1,"Native",1,"5",1,NA,11
"1132",401344,1058,1,"Native",1,"4",0,NA,12
"1133",401344,1004,1,"Native",1,"4",0,NA,13
"1134",401344,1065,1,"Native",1,"3",0,NA,14
"1135",401344,1049,1,"Native",1,"4",1,NA,15
"1136",401344,1015,1,"Native",1,"2",1,NA,16
"1137",401344,1078,1,"Native",1,"3",0,NA,17
"1138",401344,1021,1,"Native",1,"4",1,NA,18
"1139",401344,1037,1,"Native",1,NA,0,NA,19
"1140",401344,1062,1,"Native",1,"4",0,NA,20
"1141",401344,1059,1,"Native",1,"5",1,NA,21
"1142",401344,1056,1,"Native",1,"2",0,NA,22
"1143",401344,1014,1,"Native",1,"5",1,NA,23
"1144",401344,1034,1,"Native",1,"4",1,NA,24
"1145",401344,1026,1,"Native",1,"4",1,NA,25
"1146",401344,1011,1,"Native",1,"3",1,NA,26
"1147",401344,1048,1,"Native",1,"4",0,NA,27
"1148",401344,1028,1,"Native",1,"4",0,NA,28
"1149",401344,1068,1,"Native",1,"3",0,NA,29
"1150",401344,1050,1,"Native",1,"3",0,NA,30
"1151",401344,1069,1,"Native",1,"3",0,NA,31
"1152",401344,1074,1,"Native",1,"4",1,NA,32
"1153",401344,1017,1,"Native",1,"4",0,NA,33
"1154",401344,1009,1,"Native",1,"4",0,NA,34
"1155",401344,1027,1,"Native",1,"3",0,NA,35
"1156",401344,1045,1,"Native",1,"4",0,NA,36
"1157",401344,1013,1,"Native",1,"2",0,NA,37
"1158",401344,1020,1,"Native",1,"4",1,NA,38
"1159",401344,1040,1,"Native",1,"1",0,NA,39
"1160",401344,1067,1,"Native",1,"3",0,NA,40
"1161",401344,1039,1,"Native",1,"3",0,NA,41
"1162",401344,1031,1,"Native",1,"4",1,NA,42
"1163",401344,1047,1,"Native",1,"4",1,NA,43
"1164",401344,1001,1,"Native",1,"2",1,NA,44
"1165",401344,1003,1,"Native",1,"4",1,NA,45
"1166",401344,1060,1,"Native",1,"3",0,NA,46
"1167",401344,1077,1,"Native",1,"3",0,NA,47
"1168",401344,1080,1,"Native",1,"2",0,NA,48
"1169",401344,1057,1,"Native",1,"5",1,NA,49
"1170",401344,1012,1,"Native",1,"4",1,NA,50
"1171",401344,1064,1,"Native",1,"4",1,NA,51
"1172",401344,1079,1,"Native",1,"3",1,NA,52
"1173",401344,1044,1,"Native",1,"3",1,NA,53
"1174",401344,1019,1,"Native",1,"4",1,NA,54
"1175",401344,1029,1,"Native",1,"4",0,NA,55
"1176",401344,1032,1,"Native",1,"3",0,NA,56
"1177",401344,1072,1,"Native",1,"2",1,NA,57
"1178",401344,1024,1,"Native",1,"3",0,NA,58
"1179",401344,1066,1,"Native",1,"2",0,NA,59
"1180",401344,1023,1,"Native",1,"3",1,NA,60
"1181",401344,1022,1,"Native",1,"2",1,NA,61
"1182",401344,1075,1,"Native",1,"3",0,NA,62
"1183",401344,1042,1,"Native",1,"4",0,NA,63
"1184",401344,1061,1,"Native",1,"3",1,NA,64
"1185",401344,1051,1,"Native",1,"4",1,NA,65
"1186",401344,1071,1,"Native",1,"3",0,NA,66
"1187",401344,1035,1,"Native",1,"4",0,NA,67
"1188",401344,1046,1,"Native",1,"4",0,NA,68
"1189",401344,1030,1,"Native",1,"5",1,NA,69
"1190",401344,1033,1,"Native",1,"3",1,NA,70
"1191",401344,1010,1,"Native",1,"3",0,NA,71
"1192",401344,1007,1,"Native",1,"4",1,NA,72
"1193",401344,1018,1,"Native",1,"2",0,NA,73
"1194",401344,1006,1,"Native",1,"2",0,NA,74
"1195",401344,1055,1,"Native",1,"3",1,NA,75
"1196",401344,1008,1,"Native",1,"4",1,NA,76
"1197",401344,1016,1,"Native",1,"3",1,NA,77
"1198",401344,1073,1,"Native",1,"4",1,NA,78
"1199",401344,1063,1,"Native",1,"4",0,NA,79
"1200",401344,1053,1,"Native",1,"4",1,NA,80
"1201",401402,1025,1,"Foreign",1,NA,1,NA,1
"1202",401402,1058,1,"Foreign",1,NA,1,NA,2
"1203",401402,1028,1,"Foreign",1,"6",1,NA,3
"1204",401402,1059,1,"Foreign",1,"4",0,NA,4
"1205",401402,1077,1,"Foreign",1,"6",1,NA,5
"1206",401402,1042,1,"Foreign",1,"6",1,NA,6
"1207",401402,1074,1,"Foreign",1,"3",0,NA,7
"1208",401402,1008,1,"Foreign",1,"3",0,NA,8
"1209",401402,1022,1,"Foreign",1,"4",0,NA,9
"1210",401402,1032,1,"Foreign",1,"6",1,NA,10
"1211",401402,1072,1,"Foreign",1,"4",0,NA,11
"1212",401402,1005,1,"Foreign",1,"6",1,NA,12
"1213",401402,1070,1,"Foreign",1,"6",1,NA,13
"1214",401402,1015,1,"Foreign",1,"3",0,NA,14
"1215",401402,1036,1,"Foreign",1,"4",0,NA,15
"1216",401402,1007,1,"Foreign",1,"3",0,NA,16
"1217",401402,1055,1,"Foreign",1,"3",0,NA,17
"1218",401402,1013,1,"Foreign",1,"6",1,NA,18
"1219",401402,1014,1,"Foreign",1,"2",0,NA,19
"1220",401402,1061,1,"Foreign",1,"4",0,NA,20
"1221",401402,1066,1,"Foreign",1,"5",1,NA,21
"1222",401402,1048,1,"Foreign",1,"6",1,NA,22
"1223",401402,1021,1,"Foreign",1,"3",0,NA,23
"1224",401402,1039,1,"Foreign",1,"6",1,NA,24
"1225",401402,1062,1,"Foreign",1,"6",1,NA,25
"1226",401402,1023,1,"Foreign",1,"4",0,NA,26
"1227",401402,1065,1,"Foreign",1,"6",1,NA,27
"1228",401402,1044,1,"Foreign",1,NA,0,NA,28
"1229",401402,1056,1,"Foreign",1,"5",1,NA,29
"1230",401402,1018,1,"Foreign",1,"2",1,NA,30
"1231",401402,1064,1,"Foreign",1,"3",0,NA,31
"1232",401402,1051,1,"Foreign",1,"3",0,NA,32
"1233",401402,1041,1,"Foreign",1,"2",1,NA,33
"1234",401402,1011,1,"Foreign",1,"1",0,NA,34
"1235",401402,1019,1,"Foreign",1,"4",0,NA,35
"1236",401402,1037,1,"Foreign",1,"2",1,NA,36
"1237",401402,1017,1,"Foreign",1,"4",1,NA,37
"1238",401402,1004,1,"Foreign",1,"4",1,NA,38
"1239",401402,1030,1,"Foreign",1,"4",0,NA,39
"1240",401402,1060,1,"Foreign",1,"4",1,NA,40
"1241",401402,1069,1,"Foreign",1,"4",1,NA,41
"1242",401402,1035,1,"Foreign",1,"4",1,NA,42
"1243",401402,1063,1,"Foreign",1,"2",1,NA,43
"1244",401402,1080,1,"Foreign",1,"3",1,NA,44
"1245",401402,1009,1,"Foreign",1,"4",1,NA,45
"1246",401402,1047,1,"Foreign",1,"3",0,NA,46
"1247",401402,1027,1,"Foreign",1,"2",1,NA,47
"1248",401402,1050,1,"Foreign",1,"5",1,NA,48
"1249",401402,1043,1,"Foreign",1,"4",0,NA,49
"1250",401402,1002,1,"Foreign",1,"4",0,NA,50
"1251",401402,1026,1,"Foreign",1,"6",0,NA,51
"1252",401402,1045,1,"Foreign",1,"4",1,NA,52
"1253",401402,1038,1,"Foreign",1,"3",0,NA,53
"1254",401402,1010,1,"Foreign",1,"2",1,NA,54
"1255",401402,1012,1,"Foreign",1,"2",0,NA,55
"1256",401402,1024,1,"Foreign",1,"4",1,NA,56
"1257",401402,1020,1,"Foreign",1,"4",0,NA,57
"1258",401402,1079,1,"Foreign",1,"4",0,NA,58
"1259",401402,1029,1,"Foreign",1,"4",1,NA,59
"1260",401402,1031,1,"Foreign",1,"5",0,NA,60
"1261",401402,1068,1,"Foreign",1,"4",1,NA,61
"1262",401402,1073,1,"Foreign",1,"4",0,NA,62
"1263",401402,1057,1,"Foreign",1,"2",0,NA,63
"1264",401402,1001,1,"Foreign",1,"5",0,NA,64
"1265",401402,1078,1,"Foreign",1,"3",1,NA,65
"1266",401402,1053,1,"Foreign",1,"4",0,NA,66
"1267",401402,1076,1,"Foreign",1,"3",0,NA,67
"1268",401402,1067,1,"Foreign",1,"5",1,NA,68
"1269",401402,1052,1,"Foreign",1,"2",0,NA,69
"1270",401402,1054,1,"Foreign",1,"5",0,NA,70
"1271",401402,1040,1,"Foreign",1,"4",1,NA,71
"1272",401402,1003,1,"Foreign",1,"5",0,NA,72
"1273",401402,1046,1,"Foreign",1,"5",1,NA,73
"1274",401402,1033,1,"Foreign",1,"4",0,NA,74
"1275",401402,1034,1,"Foreign",1,"4",0,NA,75
"1276",401402,1049,1,"Foreign",1,"4",0,NA,76
"1277",401402,1071,1,"Foreign",1,"4",1,NA,77
"1278",401402,1016,1,"Foreign",1,"4",0,NA,78
"1279",401402,1006,1,"Foreign",1,"2",1,NA,79
"1280",401402,1075,1,"Foreign",1,"5",1,NA,80
"1281",401435,1071,1,"Native",1,NA,1,NA,1
"1282",401435,1057,1,"Native",1,"5",0,NA,2
"1283",401435,1026,1,"Native",1,"5",0,NA,3
"1284",401435,1066,1,"Native",1,"6",1,NA,4
"1285",401435,1048,1,"Native",1,"6",1,NA,5
"1286",401435,1011,1,"Native",1,"2",0,NA,6
"1287",401435,1068,1,"Native",1,"6",1,NA,7
"1288",401435,1063,1,"Native",1,"3",1,NA,8
"1289",401435,1039,1,"Native",1,"5",1,NA,9
"1290",401435,1077,1,"Native",1,"5",1,NA,10
"1291",401435,1080,1,"Native",1,"4",1,NA,11
"1292",401435,1015,1,"Native",1,"5",0,NA,12
"1293",401435,1021,1,"Native",1,"5",0,NA,13
"1294",401435,1035,1,"Native",1,"3",1,NA,14
"1295",401435,1070,1,"Native",1,"5",1,NA,15
"1296",401435,1059,1,"Native",1,"3",0,NA,16
"1297",401435,1060,1,"Native",1,"4",1,NA,17
"1298",401435,1051,1,"Native",1,"4",0,NA,18
"1299",401435,1006,1,"Native",1,"6",1,NA,19
"1300",401435,1024,1,"Native",1,"4",1,NA,20
"1301",401435,1003,1,"Native",1,"3",0,NA,21
"1302",401435,1076,1,"Native",1,"5",0,NA,22
"1303",401435,1031,1,"Native",1,"4",0,NA,23
"1304",401435,1001,1,"Native",1,"4",0,NA,24
"1305",401435,1062,1,"Native",1,"6",1,NA,25
"1306",401435,1056,1,"Native",1,"4",1,NA,26
"1307",401435,1049,1,"Native",1,"3",0,NA,27
"1308",401435,1020,1,"Native",1,"3",0,NA,28
"1309",401435,1047,1,"Native",1,"3",0,NA,29
"1310",401435,1075,1,"Native",1,"5",1,NA,30
"1311",401435,1038,1,"Native",1,"5",0,NA,31
"1312",401435,1019,1,"Native",1,"3",0,NA,32
"1313",401435,1074,1,"Native",1,"3",0,NA,33
"1314",401435,1023,1,"Native",1,"4",0,NA,34
"1315",401435,1022,1,"Native",1,"4",0,NA,35
"1316",401435,1034,1,"Native",1,"3",0,NA,36
"1317",401435,1044,1,"Native",1,"2",0,NA,37
"1318",401435,1064,1,"Native",1,"4",0,NA,38
"1319",401435,1002,1,"Native",1,"3",0,NA,39
"1320",401435,1046,1,"Native",1,"6",1,NA,40
"1321",401435,1058,1,"Native",1,"6",1,NA,41
"1322",401435,1052,1,"Native",1,"4",0,NA,42
"1323",401435,1032,1,"Native",1,"3",1,NA,43
"1324",401435,1030,1,"Native",1,"2",0,NA,44
"1325",401435,1040,1,"Native",1,"6",1,NA,45
"1326",401435,1078,1,"Native",1,"6",1,NA,46
"1327",401435,1007,1,"Native",1,"2",0,NA,47
"1328",401435,1014,1,"Native",1,"4",0,NA,48
"1329",401435,1017,1,"Native",1,"6",1,NA,49
"1330",401435,1054,1,"Native",1,"3",0,NA,50
"1331",401435,1053,1,"Native",1,"2",0,NA,51
"1332",401435,1067,1,"Native",1,"5",1,NA,52
"1333",401435,1033,1,"Native",1,"3",0,NA,53
"1334",401435,1013,1,"Native",1,"4",1,NA,54
"1335",401435,1027,1,"Native",1,"1",1,NA,55
"1336",401435,1005,1,"Native",1,"5",1,NA,56
"1337",401435,1018,1,"Native",1,"5",1,NA,57
"1338",401435,1036,1,"Native",1,"4",0,NA,58
"1339",401435,1025,1,"Native",1,"6",1,NA,59
"1340",401435,1042,1,"Native",1,"6",1,NA,60
"1341",401435,1041,1,"Native",1,"1",1,NA,61
"1342",401435,1050,1,"Native",1,"5",1,NA,62
"1343",401435,1028,1,"Native",1,"3",1,NA,63
"1344",401435,1016,1,"Native",1,"4",0,NA,64
"1345",401435,1010,1,"Native",1,"1",1,NA,65
"1346",401435,1004,1,"Native",1,"1",1,NA,66
"1347",401435,1073,1,"Native",1,"2",0,NA,67
"1348",401435,1009,1,"Native",1,"5",1,NA,68
"1349",401435,1029,1,"Native",1,"1",1,NA,69
"1350",401435,1045,1,"Native",1,"1",1,NA,70
"1351",401435,1037,1,"Native",1,"6",1,NA,71
"1352",401435,1069,1,"Native",1,"5",1,NA,72
"1353",401435,1055,1,"Native",1,"1",0,NA,73
"1354",401435,1008,1,"Native",1,"1",0,NA,74
"1355",401435,1065,1,"Native",1,"1",1,NA,75
"1356",401435,1043,1,"Native",1,"4",0,NA,76
"1357",401435,1079,1,"Native",1,"4",0,NA,77
"1358",401435,1061,1,"Native",1,"2",0,NA,78
"1359",401435,1012,1,"Native",1,"2",0,NA,79
"1360",401435,1072,1,"Native",1,"3",0,NA,80
"1361",401516,1059,1,"Native",1,NA,1,NA,1
"1362",401516,1068,1,"Native",1,NA,0,NA,2
"1363",401516,1017,1,"Native",1,NA,0,NA,3
"1364",401516,1019,1,"Native",1,"5",1,NA,4
"1365",401516,1066,1,"Native",1,"5",0,NA,5
"1366",401516,1014,1,"Native",1,"2",1,NA,6
"1367",401516,1075,1,"Native",1,"5",0,NA,7
"1368",401516,1035,1,"Native",1,"2",0,NA,8
"1369",401516,1021,1,"Native",1,"5",1,NA,9
"1370",401516,1034,1,"Native",1,"5",1,NA,10
"1371",401516,1073,1,"Native",1,"5",1,NA,11
"1372",401516,1020,1,"Native",1,"2",1,NA,12
"1373",401516,1006,1,"Native",1,"5",0,NA,13
"1374",401516,1016,1,"Native",1,NA,1,NA,14
"1375",401516,1004,1,"Native",1,"2",0,NA,15
"1376",401516,1009,1,"Native",1,"4",0,NA,16
"1377",401516,1027,1,"Native",1,"1",0,NA,17
"1378",401516,1080,1,"Native",1,"1",0,NA,18
"1379",401516,1005,1,"Native",1,"2",0,NA,19
"1380",401516,1023,1,"Native",1,"5",1,NA,20
"1381",401516,1039,1,"Native",1,"2",0,NA,21
"1382",401516,1026,1,"Native",1,"5",1,NA,22
"1383",401516,1048,1,"Native",1,"4",0,NA,23
"1384",401516,1072,1,"Native",1,"6",1,NA,24
"1385",401516,1069,1,"Native",1,"4",0,NA,25
"1386",401516,1065,1,"Native",1,"2",0,NA,26
"1387",401516,1079,1,"Native",1,"5",1,NA,27
"1388",401516,1042,1,"Native",1,"5",0,NA,28
"1389",401516,1013,1,"Native",1,"3",0,NA,29
"1390",401516,1070,1,"Native",1,"5",0,NA,30
"1391",401516,1033,1,"Native",1,"4",1,NA,31
"1392",401516,1054,1,"Native",1,"5",1,NA,32
"1393",401516,1040,1,"Native",1,"5",0,NA,33
"1394",401516,1046,1,"Native",1,"2",0,NA,34
"1395",401516,1044,1,"Native",1,"6",1,NA,35
"1396",401516,1053,1,"Native",1,"4",1,NA,36
"1397",401516,1001,1,"Native",1,"5",1,NA,37
"1398",401516,1062,1,"Native",1,"6",0,NA,38
"1399",401516,1041,1,"Native",1,"4",0,NA,39
"1400",401516,1012,1,"Native",1,"3",1,NA,40
"1401",401516,1064,1,"Native",1,"5",1,NA,41
"1402",401516,1038,1,"Native",1,"6",1,NA,42
"1403",401516,1049,1,"Native",1,"4",1,NA,43
"1404",401516,1078,1,"Native",1,"4",0,NA,44
"1405",401516,1052,1,"Native",1,"2",1,NA,45
"1406",401516,1024,1,"Native",1,"4",0,NA,46
"1407",401516,1025,1,"Native",1,"4",0,NA,47
"1408",401516,1074,1,"Native",1,"4",1,NA,48
"1409",401516,1063,1,"Native",1,"2",0,NA,49
"1410",401516,1045,1,"Native",1,"5",0,NA,50
"1411",401516,1032,1,"Native",1,"2",0,NA,51
"1412",401516,1047,1,"Native",1,"3",1,NA,52
"1413",401516,1002,1,"Native",1,"5",1,NA,53
"1414",401516,1058,1,"Native",1,"2",0,NA,54
"1415",401516,1051,1,"Native",1,"5",1,NA,55
"1416",401516,1071,1,"Native",1,"5",0,NA,56
"1417",401516,1037,1,"Native",1,"2",0,NA,57
"1418",401516,1061,1,"Native",1,"5",1,NA,58
"1419",401516,1022,1,"Native",1,"5",1,NA,59
"1420",401516,1067,1,"Native",1,"4",0,NA,60
"1421",401516,1036,1,"Native",1,"6",1,NA,61
"1422",401516,1031,1,"Native",1,"6",1,NA,62
"1423",401516,1010,1,"Native",1,"3",0,NA,63
"1424",401516,1077,1,"Native",1,"5",0,NA,64
"1425",401516,1060,1,"Native",1,"5",0,NA,65
"1426",401516,1056,1,"Native",1,"4",0,NA,66
"1427",401516,1011,1,"Native",1,"3",1,NA,67
"1428",401516,1029,1,"Native",1,"4",0,NA,68
"1429",401516,1057,1,"Native",1,"6",1,NA,69
"1430",401516,1050,1,"Native",1,"4",0,NA,70
"1431",401516,1008,1,"Native",1,"2",1,NA,71
"1432",401516,1043,1,"Native",1,"5",1,NA,72
"1433",401516,1055,1,"Native",1,"4",1,NA,73
"1434",401516,1015,1,"Native",1,"2",1,NA,74
"1435",401516,1030,1,"Native",1,"4",1,NA,75
"1436",401516,1007,1,"Native",1,"3",1,NA,76
"1437",401516,1076,1,"Native",1,"4",1,NA,77
"1438",401516,1003,1,"Native",1,"5",1,NA,78
"1439",401516,1028,1,"Native",1,"3",0,NA,79
"1440",401516,1018,1,"Native",1,"2",0,NA,80
"1441",401886,1057,1,"Native",1,"6",1,NA,1
"1442",401886,1032,1,"Native",1,"1",0,NA,2
"1443",401886,1060,1,"Native",1,"4",0,NA,3
"1444",401886,1045,1,"Native",1,"1",0,NA,4
"1445",401886,1020,1,"Native",1,"6",1,NA,5
"1446",401886,1014,1,"Native",1,"6",1,NA,6
"1447",401886,1053,1,"Native",1,"1",1,NA,7
"1448",401886,1071,1,"Native",1,"5",0,NA,8
"1449",401886,1011,1,"Native",1,"6",1,NA,9
"1450",401886,1037,1,"Native",1,"3",0,NA,10
"1451",401886,1065,1,"Native",1,"2",0,NA,11
"1452",401886,1077,1,"Native",1,"4",0,NA,12
"1453",401886,1027,1,"Native",1,"1",0,NA,13
"1454",401886,1017,1,"Native",1,"5",0,NA,14
"1455",401886,1074,1,"Native",1,"6",1,NA,15
"1456",401886,1038,1,"Native",1,"6",1,NA,16
"1457",401886,1026,1,"Native",1,"6",1,NA,17
"1458",401886,1068,1,"Native",1,"3",0,NA,18
"1459",401886,1013,1,"Native",1,"4",0,NA,19
"1460",401886,1054,1,"Native",1,"6",1,NA,20
"1461",401886,1034,1,"Native",1,"6",1,NA,21
"1462",401886,1080,1,"Native",1,"1",0,NA,22
"1463",401886,1076,1,"Native",1,"5",1,NA,23
"1464",401886,1018,1,"Native",1,"3",0,NA,24
"1465",401886,1003,1,"Native",1,"6",1,NA,25
"1466",401886,1048,1,"Native",1,"5",0,NA,26
"1467",401886,1033,1,"Native",1,"6",1,NA,27
"1468",401886,1002,1,"Native",1,"6",1,NA,28
"1469",401886,1062,1,"Native",1,"5",0,NA,29
"1470",401886,1035,1,"Native",1,"1",0,NA,30
"1471",401886,1040,1,"Native",1,"1",0,NA,31
"1472",401886,1079,1,"Native",1,"6",1,NA,32
"1473",401886,1066,1,"Native",1,"4",0,NA,33
"1474",401886,1072,1,"Native",1,"6",1,NA,34
"1475",401886,1009,1,"Native",1,"2",0,NA,35
"1476",401886,1039,1,"Native",1,"4",0,NA,36
"1477",401886,1025,1,"Native",1,"6",0,NA,37
"1478",401886,1028,1,"Native",1,"3",0,NA,38
"1479",401886,1047,1,"Native",1,"6",1,NA,39
"1480",401886,1058,1,"Native",1,"4",0,NA,40
"1481",401886,1021,1,"Native",1,"6",1,NA,41
"1482",401886,1007,1,"Native",1,"6",1,NA,42
"1483",401886,1044,1,"Native",1,"6",1,NA,43
"1484",401886,1005,1,"Native",1,"2",0,NA,44
"1485",401886,1041,1,"Native",1,"5",0,NA,45
"1486",401886,1022,1,"Native",1,"6",1,NA,46
"1487",401886,1008,1,"Native",1,"6",1,NA,47
"1488",401886,1075,1,"Native",1,"3",0,NA,48
"1489",401886,1012,1,"Native",1,"5",1,NA,49
"1490",401886,1043,1,"Native",1,"6",1,NA,50
"1491",401886,1015,1,"Native",1,"6",1,NA,51
"1492",401886,1056,1,"Native",1,"3",0,NA,52
"1493",401886,1078,1,"Native",1,"2",0,NA,53
"1494",401886,1073,1,"Native",1,"6",1,NA,54
"1495",401886,1023,1,"Native",1,"6",1,NA,55
"1496",401886,1055,1,"Native",1,"6",1,NA,56
"1497",401886,1031,1,"Native",1,"6",1,NA,57
"1498",401886,1064,1,"Native",1,"6",1,NA,58
"1499",401886,1046,1,"Native",1,"6",0,NA,59
"1500",401886,1006,1,"Native",1,"3",0,NA,60
"1501",401886,1029,1,"Native",1,"4",0,NA,61
"1502",401886,1050,1,"Native",1,"3",0,NA,62
"1503",401886,1016,1,"Native",1,"6",1,NA,63
"1504",401886,1070,1,"Native",1,"2",0,NA,64
"1505",401886,1004,1,"Native",1,"3",0,NA,65
"1506",401886,1052,1,"Native",1,"6",1,NA,66
"1507",401886,1061,1,"Native",1,"6",1,NA,67
"1508",401886,1069,1,"Native",1,"2",0,NA,68
"1509",401886,1010,1,"Native",1,"3",0,NA,69
"1510",401886,1063,1,"Native",1,"2",0,NA,70
"1511",401886,1042,1,"Native",1,"4",0,NA,71
"1512",401886,1059,1,"Native",1,"6",1,NA,72
"1513",401886,1019,1,"Native",1,"3",1,NA,73
"1514",401886,1030,1,"Native",1,"6",1,NA,74
"1515",401886,1024,1,"Native",1,"2",0,NA,75
"1516",401886,1049,1,"Native",1,"6",1,NA,76
"1517",401886,1051,1,"Native",1,"6",1,NA,77
"1518",401886,1001,1,"Native",1,"6",1,NA,78
"1519",401886,1067,1,"Native",1,"6",0,NA,79
"1520",401886,1036,1,"Native",1,"6",1,NA,80
"1521",401919,1014,1,"Foreign",1,"4",1,NA,1
"1522",401919,1071,1,"Foreign",1,"4",0,NA,2
"1523",401919,1074,1,"Foreign",1,"5",1,NA,3
"1524",401919,1080,1,"Foreign",1,"2",0,NA,4
"1525",401919,1015,1,"Foreign",1,"2",1,NA,5
"1526",401919,1056,1,"Foreign",1,"5",0,NA,6
"1527",401919,1003,1,"Foreign",1,"3",1,NA,7
"1528",401919,1044,1,"Foreign",1,"5",1,NA,8
"1529",401919,1009,1,"Foreign",1,"5",0,NA,9
"1530",401919,1032,1,"Foreign",1,"2",0,NA,10
"1531",401919,1007,1,"Foreign",1,"4",1,NA,11
"1532",401919,1060,1,"Foreign",1,"3",0,NA,12
"1533",401919,1005,1,"Foreign",1,"4",0,NA,13
"1534",401919,1052,1,"Foreign",1,"2",1,NA,14
"1535",401919,1066,1,"Foreign",1,"5",0,NA,15
"1536",401919,1022,1,"Foreign",1,"2",1,NA,16
"1537",401919,1010,1,"Foreign",1,"2",0,NA,17
"1538",401919,1034,1,"Foreign",1,"5",1,NA,18
"1539",401919,1048,1,"Foreign",1,"4",0,NA,19
"1540",401919,1045,1,"Foreign",1,"6",0,NA,20
"1541",401919,1053,1,"Foreign",1,"5",1,NA,21
"1542",401919,1018,1,"Foreign",1,"3",0,NA,22
"1543",401919,1019,1,"Foreign",1,"3",1,NA,23
"1544",401919,1017,1,"Foreign",1,"2",0,NA,24
"1545",401919,1030,1,"Foreign",1,"3",1,NA,25
"1546",401919,1021,1,"Foreign",1,"4",1,NA,26
"1547",401919,1049,1,"Foreign",1,"4",1,NA,27
"1548",401919,1069,1,"Foreign",1,"2",0,NA,28
"1549",401919,1042,1,"Foreign",1,"2",0,NA,29
"1550",401919,1038,1,"Foreign",1,"3",1,NA,30
"1551",401919,1004,1,"Foreign",1,"3",0,NA,31
"1552",401919,1013,1,"Foreign",1,"4",0,NA,32
"1553",401919,1011,1,"Foreign",1,"3",1,NA,33
"1554",401919,1035,1,"Foreign",1,"2",0,NA,34
"1555",401919,1024,1,"Foreign",1,"5",0,NA,35
"1556",401919,1054,1,"Foreign",1,"5",1,NA,36
"1557",401919,1057,1,"Foreign",1,"3",1,NA,37
"1558",401919,1025,1,"Foreign",1,"3",0,NA,38
"1559",401919,1036,1,"Foreign",1,"4",1,NA,39
"1560",401919,1008,1,"Foreign",1,"5",1,NA,40
"1561",401919,1059,1,"Foreign",1,"5",1,NA,41
"1562",401919,1047,1,"Foreign",1,"3",1,NA,42
"1563",401919,1078,1,"Foreign",1,"3",0,NA,43
"1564",401919,1026,1,"Foreign",1,"3",1,NA,44
"1565",401919,1040,1,"Foreign",1,"4",0,NA,45
"1566",401919,1050,1,"Foreign",1,"3",0,NA,46
"1567",401919,1006,1,"Foreign",1,"3",0,NA,47
"1568",401919,1073,1,"Foreign",1,"3",1,NA,48
"1569",401919,1063,1,"Foreign",1,"3",0,NA,49
"1570",401919,1043,1,"Foreign",1,"5",1,NA,50
"1571",401919,1068,1,"Foreign",1,"5",0,NA,51
"1572",401919,1076,1,"Foreign",1,"5",1,NA,52
"1573",401919,1039,1,"Foreign",1,"3",0,NA,53
"1574",401919,1031,1,"Foreign",1,"4",1,NA,54
"1575",401919,1061,1,"Foreign",1,"4",1,NA,55
"1576",401919,1064,1,"Foreign",1,"3",1,NA,56
"1577",401919,1079,1,"Foreign",1,"3",1,NA,57
"1578",401919,1033,1,"Foreign",1,"3",1,NA,58
"1579",401919,1065,1,"Foreign",1,"5",0,NA,59
"1580",401919,1062,1,"Foreign",1,"4",0,NA,60
"1581",401919,1016,1,"Foreign",1,"5",1,NA,61
"1582",401919,1070,1,"Foreign",1,"4",0,NA,62
"1583",401919,1023,1,"Foreign",1,"5",1,NA,63
"1584",401919,1001,1,"Foreign",1,"4",1,NA,64
"1585",401919,1067,1,"Foreign",1,"6",0,NA,65
"1586",401919,1072,1,"Foreign",1,"5",1,NA,66
"1587",401919,1029,1,"Foreign",1,"4",0,NA,67
"1588",401919,1027,1,"Foreign",1,"2",0,NA,68
"1589",401919,1077,1,"Foreign",1,"3",0,NA,69
"1590",401919,1055,1,"Foreign",1,"2",1,NA,70
"1591",401919,1041,1,"Foreign",1,"2",0,NA,71
"1592",401919,1075,1,"Foreign",1,"3",0,NA,72
"1593",401919,1012,1,"Foreign",1,"3",1,NA,73
"1594",401919,1046,1,"Foreign",1,"4",0,NA,74
"1595",401919,1028,1,"Foreign",1,"3",0,NA,75
"1596",401919,1037,1,"Foreign",1,"4",0,NA,76
"1597",401919,1058,1,"Foreign",1,"4",0,NA,77
"1598",401919,1051,1,"Foreign",1,"4",1,NA,78
"1599",401919,1002,1,"Foreign",1,"3",1,NA,79
"1600",401919,1020,1,"Foreign",1,"5",1,NA,80
"1601",401922,1058,1,"Native",1,NA,1,NA,1
"1602",401922,1046,1,"Native",1,"5",1,NA,2
"1603",401922,1004,1,"Native",1,"2",1,NA,3
"1604",401922,1062,1,"Native",1,"3",1,NA,4
"1605",401922,1055,1,"Native",1,"4",0,NA,5
"1606",401922,1040,1,"Native",1,"5",1,NA,6
"1607",401922,1075,1,"Native",1,"4",1,NA,7
"1608",401922,1065,1,"Native",1,"5",1,NA,8
"1609",401922,1064,1,"Native",1,"3",0,NA,9
"1610",401922,1072,1,"Native",1,"6",0,NA,10
"1611",401922,1080,1,"Native",1,"4",1,NA,11
"1612",401922,1016,1,"Native",1,"2",0,NA,12
"1613",401922,1054,1,"Native",1,"3",0,NA,13
"1614",401922,1013,1,"Native",1,"4",1,NA,14
"1615",401922,1005,1,"Native",1,"5",1,NA,15
"1616",401922,1023,1,"Native",1,"6",0,NA,16
"1617",401922,1006,1,"Native",1,"5",1,NA,17
"1618",401922,1069,1,"Native",1,"3",1,NA,18
"1619",401922,1059,1,"Native",1,"2",0,NA,19
"1620",401922,1021,1,"Native",1,"2",0,NA,20
"1621",401922,1014,1,"Native",1,"4",0,NA,21
"1622",401922,1037,1,"Native",1,"3",1,NA,22
"1623",401922,1043,1,"Native",1,"4",0,NA,23
"1624",401922,1074,1,"Native",1,"5",0,NA,24
"1625",401922,1001,1,"Native",1,"5",0,NA,25
"1626",401922,1051,1,"Native",1,"5",0,NA,26
"1627",401922,1007,1,"Native",1,"4",0,NA,27
"1628",401922,1067,1,"Native",1,"5",1,NA,28
"1629",401922,1079,1,"Native",1,"4",0,NA,29
"1630",401922,1009,1,"Native",1,"4",1,NA,30
"1631",401922,1008,1,"Native",1,"5",0,NA,31
"1632",401922,1028,1,"Native",1,"3",1,NA,32
"1633",401922,1002,1,"Native",1,"5",0,NA,33
"1634",401922,1073,1,"Native",1,"5",0,NA,34
"1635",401922,1035,1,"Native",1,"5",1,NA,35
"1636",401922,1017,1,"Native",1,"5",1,NA,36
"1637",401922,1042,1,"Native",1,"5",1,NA,37
"1638",401922,1038,1,"Native",1,"6",0,NA,38
"1639",401922,1022,1,"Native",1,"5",0,NA,39
"1640",401922,1032,1,"Native",1,"3",1,NA,40
"1641",401922,1018,1,"Native",1,"2",1,NA,41
"1642",401922,1050,1,"Native",1,"3",1,NA,42
"1643",401922,1029,1,"Native",1,"3",1,NA,43
"1644",401922,1033,1,"Native",1,"2",0,NA,44
"1645",401922,1011,1,"Native",1,"1",0,NA,45
"1646",401922,1068,1,"Native",1,"2",1,NA,46
"1647",401922,1052,1,"Native",1,"2",0,NA,47
"1648",401922,1012,1,"Native",1,"4",0,NA,48
"1649",401922,1061,1,"Native",1,"3",0,NA,49
"1650",401922,1053,1,"Native",1,"4",0,NA,50
"1651",401922,1034,1,"Native",1,"5",0,NA,51
"1652",401922,1049,1,"Native",1,"5",0,NA,52
"1653",401922,1066,1,"Native",1,"5",1,NA,53
"1654",401922,1010,1,"Native",1,"2",1,NA,54
"1655",401922,1076,1,"Native",1,"5",0,NA,55
"1656",401922,1039,1,"Native",1,"3",1,NA,56
"1657",401922,1047,1,"Native",1,"2",0,NA,57
"1658",401922,1030,1,"Native",1,"2",0,NA,58
"1659",401922,1025,1,"Native",1,"6",1,NA,59
"1660",401922,1078,1,"Native",1,"3",1,NA,60
"1661",401922,1036,1,"Native",1,"5",0,NA,61
"1662",401922,1057,1,"Native",1,"5",0,NA,62
"1663",401922,1045,1,"Native",1,"5",1,NA,63
"1664",401922,1031,1,"Native",1,"2",0,NA,64
"1665",401922,1070,1,"Native",1,"5",1,NA,65
"1666",401922,1027,1,"Native",1,"3",1,NA,66
"1667",401922,1041,1,"Native",1,"2",1,NA,67
"1668",401922,1026,1,"Native",1,"5",0,NA,68
"1669",401922,1019,1,"Native",1,"5",0,NA,69
"1670",401922,1024,1,"Native",1,"2",1,NA,70
"1671",401922,1048,1,"Native",1,"3",1,NA,71
"1672",401922,1071,1,"Native",1,"4",1,NA,72
"1673",401922,1020,1,"Native",1,"2",0,NA,73
"1674",401922,1015,1,"Native",1,"2",0,NA,74
"1675",401922,1077,1,"Native",1,"3",1,NA,75
"1676",401922,1060,1,"Native",1,"4",1,NA,76
"1677",401922,1056,1,"Native",1,"3",1,NA,77
"1678",401922,1003,1,"Native",1,"4",0,NA,78
"1679",401922,1063,1,"Native",1,"3",1,NA,79
"1680",401922,1044,1,"Native",1,"6",0,NA,80
"1681",402029,1059,1,"Foreign",1,"1",0,NA,1
"1682",402029,1049,1,"Foreign",1,"4",0,NA,2
"1683",402029,1043,1,"Foreign",1,"4",0,NA,3
"1684",402029,1076,1,"Foreign",1,"1",0,NA,4
"1685",402029,1048,1,"Foreign",1,"6",1,NA,5
"1686",402029,1017,1,"Foreign",1,"6",1,NA,6
"1687",402029,1058,1,"Foreign",1,"6",1,NA,7
"1688",402029,1010,1,"Foreign",1,"6",1,NA,8
"1689",402029,1078,1,"Foreign",1,"6",1,NA,9
"1690",402029,1022,1,"Foreign",1,"3",0,NA,10
"1691",402029,1040,1,"Foreign",1,"6",1,NA,11
"1692",402029,1009,1,"Foreign",1,"6",1,NA,12
"1693",402029,1021,1,"Foreign",1,"2",0,NA,13
"1694",402029,1002,1,"Foreign",1,"4",0,NA,14
"1695",402029,1020,1,"Foreign",1,"1",0,NA,15
"1696",402029,1046,1,"Foreign",1,"6",1,NA,16
"1697",402029,1016,1,"Foreign",1,"2",0,NA,17
"1698",402029,1079,1,"Foreign",1,"6",0,NA,18
"1699",402029,1013,1,"Foreign",1,"5",1,NA,19
"1700",402029,1071,1,"Foreign",1,"6",1,NA,20
"1701",402029,1025,1,"Foreign",1,"6",1,NA,21
"1702",402029,1045,1,"Foreign",1,"1",1,NA,22
"1703",402029,1061,1,"Foreign",1,"4",0,NA,23
"1704",402029,1004,1,"Foreign",1,"6",1,NA,24
"1705",402029,1066,1,"Foreign",1,"6",1,NA,25
"1706",402029,1068,1,"Foreign",1,"6",1,NA,26
"1707",402029,1041,1,"Foreign",1,"6",1,NA,27
"1708",402029,1015,1,"Foreign",1,"2",0,NA,28
"1709",402029,1073,1,"Foreign",1,"3",0,NA,29
"1710",402029,1051,1,"Foreign",1,"5",0,NA,30
"1711",402029,1070,1,"Foreign",1,"6",1,NA,31
"1712",402029,1056,1,"Foreign",1,"6",1,NA,32
"1713",402029,1064,1,"Foreign",1,"3",0,NA,33
"1714",402029,1042,1,"Foreign",1,"6",1,NA,34
"1715",402029,1035,1,"Foreign",1,"6",1,NA,35
"1716",402029,1069,1,"Foreign",1,"6",1,NA,36
"1717",402029,1050,1,"Foreign",1,"6",1,NA,37
"1718",402029,1003,1,"Foreign",1,"4",0,NA,38
"1719",402029,1005,1,"Foreign",1,"6",1,NA,39
"1720",402029,1038,1,"Foreign",1,"6",0,NA,40
"1721",402029,1060,1,"Foreign",1,"6",1,NA,41
"1722",402029,1030,1,"Foreign",1,"2",0,NA,42
"1723",402029,1024,1,"Foreign",1,"6",1,NA,43
"1724",402029,1054,1,"Foreign",1,"2",0,NA,44
"1725",402029,1074,1,"Foreign",1,"6",0,NA,45
"1726",402029,1037,1,"Foreign",1,"6",1,NA,46
"1727",402029,1026,1,"Foreign",1,"2",0,NA,47
"1728",402029,1063,1,"Foreign",1,"1",1,NA,48
"1729",402029,1039,1,"Foreign",1,"6",1,NA,49
"1730",402029,1032,1,"Foreign",1,"6",1,NA,50
"1731",402029,1033,1,"Foreign",1,"1",0,NA,51
"1732",402029,1052,1,"Foreign",1,"3",0,NA,52
"1733",402029,1077,1,"Foreign",1,"6",1,NA,53
"1734",402029,1018,1,"Foreign",1,"1",1,NA,54
"1735",402029,1062,1,"Foreign",1,"6",1,NA,55
"1736",402029,1029,1,"Foreign",1,"6",1,NA,56
"1737",402029,1014,1,"Foreign",1,"4",0,NA,57
"1738",402029,1075,1,"Foreign",1,"6",1,NA,58
"1739",402029,1006,1,"Foreign",1,"6",1,NA,59
"1740",402029,1034,1,"Foreign",1,"2",0,NA,60
"1741",402029,1011,1,"Foreign",1,"1",0,NA,61
"1742",402029,1067,1,"Foreign",1,"6",1,NA,62
"1743",402029,1001,1,"Foreign",1,"5",0,NA,63
"1744",402029,1019,1,"Foreign",1,"4",0,NA,64
"1745",402029,1044,1,"Foreign",1,"6",0,NA,65
"1746",402029,1072,1,"Foreign",1,"6",0,NA,66
"1747",402029,1036,1,"Foreign",1,"1",0,NA,67
"1748",402029,1028,1,"Foreign",1,"6",1,NA,68
"1749",402029,1055,1,"Foreign",1,"2",0,NA,69
"1750",402029,1008,1,"Foreign",1,"1",0,NA,70
"1751",402029,1065,1,"Foreign",1,"6",1,NA,71
"1752",402029,1057,1,"Foreign",1,"2",0,NA,72
"1753",402029,1031,1,"Foreign",1,"6",0,NA,73
"1754",402029,1012,1,"Foreign",1,"1",0,NA,74
"1755",402029,1053,1,"Foreign",1,"3",0,NA,75
"1756",402029,1007,1,"Foreign",1,"3",0,NA,76
"1757",402029,1047,1,"Foreign",1,"4",0,NA,77
"1758",402029,1080,1,"Foreign",1,"6",1,NA,78
"1759",402029,1027,1,"Foreign",1,"6",1,NA,79
"1760",402029,1023,1,"Foreign",1,"6",0,NA,80
"1761",402039,1021,1,"Foreign",1,NA,0,NA,1
"1762",402039,1001,1,"Foreign",1,NA,0,NA,2
"1763",402039,1078,1,"Foreign",1,"6",1,NA,3
"1764",402039,1055,1,"Foreign",1,"6",0,NA,4
"1765",402039,1022,1,"Foreign",1,"1",0,NA,5
"1766",402039,1027,1,"Foreign",1,"6",1,NA,6
"1767",402039,1060,1,"Foreign",1,"6",1,NA,7
"1768",402039,1056,1,"Foreign",1,"6",1,NA,8
"1769",402039,1005,1,"Foreign",1,"6",1,NA,9
"1770",402039,1019,1,"Foreign",1,"3",0,NA,10
"1771",402039,1007,1,"Foreign",1,"3",0,NA,11
"1772",402039,1037,1,"Foreign",1,"6",1,NA,12
"1773",402039,1080,1,"Foreign",1,"6",1,NA,13
"1774",402039,1038,1,"Foreign",1,"6",0,NA,14
"1775",402039,1006,1,"Foreign",1,"6",1,NA,15
"1776",402039,1043,1,"Foreign",1,"3",0,NA,16
"1777",402039,1014,1,"Foreign",1,"6",0,NA,17
"1778",402039,1030,1,"Foreign",1,"6",0,NA,18
"1779",402039,1034,1,"Foreign",1,"3",0,NA,19
"1780",402039,1031,1,"Foreign",1,"3",0,NA,20
"1781",402039,1002,1,"Foreign",1,"4",0,NA,21
"1782",402039,1026,1,"Foreign",1,"4",0,NA,22
"1783",402039,1018,1,"Foreign",1,"6",1,NA,23
"1784",402039,1025,1,"Foreign",1,"6",1,NA,24
"1785",402039,1016,1,"Foreign",1,"6",0,NA,25
"1786",402039,1010,1,"Foreign",1,"6",1,NA,26
"1787",402039,1033,1,"Foreign",1,"1",0,NA,27
"1788",402039,1058,1,"Foreign",1,"6",1,NA,28
"1789",402039,1052,1,"Foreign",1,"1",0,NA,29
"1790",402039,1042,1,"Foreign",1,"6",1,NA,30
"1791",402039,1054,1,"Foreign",1,"3",0,NA,31
"1792",402039,1024,1,"Foreign",1,"6",1,NA,32
"1793",402039,1074,1,"Foreign",1,"3",0,NA,33
"1794",402039,1015,1,"Foreign",1,"6",0,NA,34
"1795",402039,1070,1,"Foreign",1,"6",1,NA,35
"1796",402039,1062,1,"Foreign",1,"6",1,NA,36
"1797",402039,1044,1,"Foreign",1,"3",0,NA,37
"1798",402039,1079,1,"Foreign",1,"3",0,NA,38
"1799",402039,1067,1,"Foreign",1,"6",1,NA,39
"1800",402039,1063,1,"Foreign",1,"6",1,NA,40
"1801",402039,1046,1,"Foreign",1,"6",1,NA,41
"1802",402039,1035,1,"Foreign",1,"6",1,NA,42
"1803",402039,1064,1,"Foreign",1,"6",0,NA,43
"1804",402039,1049,1,"Foreign",1,"3",0,NA,44
"1805",402039,1045,1,"Foreign",1,"6",1,NA,45
"1806",402039,1075,1,"Foreign",1,"3",1,NA,46
"1807",402039,1073,1,"Foreign",1,"3",0,NA,47
"1808",402039,1057,1,"Foreign",1,"3",0,NA,48
"1809",402039,1047,1,"Foreign",1,"3",0,NA,49
"1810",402039,1077,1,"Foreign",1,"6",1,NA,50
"1811",402039,1003,1,"Foreign",1,"3",0,NA,51
"1812",402039,1065,1,"Foreign",1,"6",1,NA,52
"1813",402039,1068,1,"Foreign",1,"6",1,NA,53
"1814",402039,1051,1,"Foreign",1,"6",0,NA,54
"1815",402039,1009,1,"Foreign",1,"6",1,NA,55
"1816",402039,1023,1,"Foreign",1,"4",0,NA,56
"1817",402039,1040,1,"Foreign",1,"4",1,NA,57
"1818",402039,1048,1,"Foreign",1,"6",1,NA,58
"1819",402039,1076,1,"Foreign",1,"6",0,NA,59
"1820",402039,1004,1,"Foreign",1,"6",1,NA,60
"1821",402039,1013,1,"Foreign",1,"6",1,NA,61
"1822",402039,1036,1,"Foreign",1,"3",0,NA,62
"1823",402039,1028,1,"Foreign",1,"6",1,NA,63
"1824",402039,1050,1,"Foreign",1,"6",1,NA,64
"1825",402039,1020,1,"Foreign",1,"2",0,NA,65
"1826",402039,1069,1,"Foreign",1,"6",1,NA,66
"1827",402039,1011,1,"Foreign",1,"3",0,NA,67
"1828",402039,1032,1,"Foreign",1,"6",1,NA,68
"1829",402039,1029,1,"Foreign",1,"6",1,NA,69
"1830",402039,1071,1,"Foreign",1,"6",1,NA,70
"1831",402039,1059,1,"Foreign",1,"3",0,NA,71
"1832",402039,1008,1,"Foreign",1,"4",0,NA,72
"1833",402039,1012,1,"Foreign",1,"4",0,NA,73
"1834",402039,1039,1,"Foreign",1,"6",1,NA,74
"1835",402039,1041,1,"Foreign",1,"6",1,NA,75
"1836",402039,1053,1,"Foreign",1,"6",0,NA,76
"1837",402039,1066,1,"Foreign",1,"6",1,NA,77
"1838",402039,1061,1,"Foreign",1,"6",0,NA,78
"1839",402039,1017,1,"Foreign",1,"6",1,NA,79
"1840",402039,1072,1,"Foreign",1,"4",0,NA,80
"1841",402079,1025,1,"Foreign",1,"6",0,NA,1
"1842",402079,1079,1,"Foreign",1,"4",1,NA,2
"1843",402079,1016,1,"Foreign",1,"3",1,NA,3
"1844",402079,1031,1,"Foreign",1,"6",1,NA,4
"1845",402079,1066,1,"Foreign",1,"3",0,NA,5
"1846",402079,1002,1,"Foreign",1,"5",1,NA,6
"1847",402079,1027,1,"Foreign",1,"4",0,NA,7
"1848",402079,1055,1,"Foreign",1,"2",1,NA,8
"1849",402079,1026,1,"Foreign",1,"6",1,NA,9
"1850",402079,1019,1,"Foreign",1,"6",1,NA,10
"1851",402079,1073,1,"Foreign",1,"6",1,NA,11
"1852",402079,1035,1,"Foreign",1,"3",0,NA,12
"1853",402079,1051,1,"Foreign",1,"6",1,NA,13
"1854",402079,1007,1,"Foreign",1,"4",1,NA,14
"1855",402079,1021,1,"Foreign",1,"3",1,NA,15
"1856",402079,1063,1,"Foreign",1,"3",0,NA,16
"1857",402079,1049,1,"Foreign",1,"4",1,NA,17
"1858",402079,1043,1,"Foreign",1,"3",1,NA,18
"1859",402079,1014,1,"Foreign",1,"3",1,NA,19
"1860",402079,1022,1,"Foreign",1,"6",1,NA,20
"1861",402079,1075,1,"Foreign",1,"5",0,NA,21
"1862",402079,1076,1,"Foreign",1,"6",1,NA,22
"1863",402079,1060,1,"Foreign",1,"3",0,NA,23
"1864",402079,1064,1,"Foreign",1,"4",1,NA,24
"1865",402079,1004,1,"Foreign",1,"3",0,NA,25
"1866",402079,1011,1,"Foreign",1,"2",1,NA,26
"1867",402079,1009,1,"Foreign",1,"4",0,NA,27
"1868",402079,1028,1,"Foreign",1,"2",0,NA,28
"1869",402079,1029,1,"Foreign",1,"5",0,NA,29
"1870",402079,1054,1,"Foreign",1,"4",1,NA,30
"1871",402079,1030,1,"Foreign",1,"6",1,NA,31
"1872",402079,1024,1,"Foreign",1,"6",0,NA,32
"1873",402079,1020,1,"Foreign",1,"5",1,NA,33
"1874",402079,1037,1,"Foreign",1,"6",0,NA,34
"1875",402079,1058,1,"Foreign",1,"3",0,NA,35
"1876",402079,1041,1,"Foreign",1,"5",0,NA,36
"1877",402079,1045,1,"Foreign",1,"6",0,NA,37
"1878",402079,1034,1,"Foreign",1,"6",1,NA,38
"1879",402079,1062,1,"Foreign",1,"6",0,NA,39
"1880",402079,1057,1,"Foreign",1,"3",1,NA,40
"1881",402079,1008,1,"Foreign",1,"5",1,NA,41
"1882",402079,1032,1,"Foreign",1,"4",0,NA,42
"1883",402079,1048,1,"Foreign",1,"5",0,NA,43
"1884",402079,1001,1,"Foreign",1,"5",1,NA,44
"1885",402079,1065,1,"Foreign",1,"6",0,NA,45
"1886",402079,1080,1,"Foreign",1,"3",0,NA,46
"1887",402079,1006,1,"Foreign",1,"3",0,NA,47
"1888",402079,1052,1,"Foreign",1,"4",1,NA,48
"1889",402079,1070,1,"Foreign",1,"4",0,NA,49
"1890",402079,1040,1,"Foreign",1,"5",0,NA,50
"1891",402079,1077,1,"Foreign",1,"6",0,NA,51
"1892",402079,1042,1,"Foreign",1,"6",0,NA,52
"1893",402079,1018,1,"Foreign",1,"3",0,NA,53
"1894",402079,1071,1,"Foreign",1,"5",0,NA,54
"1895",402079,1061,1,"Foreign",1,"3",1,NA,55
"1896",402079,1056,1,"Foreign",1,"4",0,NA,56
"1897",402079,1072,1,"Foreign",1,"6",1,NA,57
"1898",402079,1005,1,"Foreign",1,"5",0,NA,58
"1899",402079,1023,1,"Foreign",1,"6",1,NA,59
"1900",402079,1039,1,"Foreign",1,"3",0,NA,60
"1901",402079,1078,1,"Foreign",1,"5",0,NA,61
"1902",402079,1059,1,"Foreign",1,"6",1,NA,62
"1903",402079,1067,1,"Foreign",1,"5",0,NA,63
"1904",402079,1046,1,"Foreign",1,"6",0,NA,64
"1905",402079,1003,1,"Foreign",1,"6",1,NA,65
"1906",402079,1033,1,"Foreign",1,"6",1,NA,66
"1907",402079,1044,1,"Foreign",1,"6",1,NA,67
"1908",402079,1010,1,"Foreign",1,"3",0,NA,68
"1909",402079,1069,1,"Foreign",1,"6",0,NA,69
"1910",402079,1015,1,"Foreign",1,"2",1,NA,70
"1911",402079,1053,1,"Foreign",1,"5",1,NA,71
"1912",402079,1012,1,"Foreign",1,"6",1,NA,72
"1913",402079,1050,1,"Foreign",1,"5",0,NA,73
"1914",402079,1068,1,"Foreign",1,"5",0,NA,74
"1915",402079,1017,1,"Foreign",1,"5",0,NA,75
"1916",402079,1038,1,"Foreign",1,"2",1,NA,76
"1917",402079,1013,1,"Foreign",1,"3",0,NA,77
"1918",402079,1047,1,"Foreign",1,"4",1,NA,78
"1919",402079,1074,1,"Foreign",1,"5",1,NA,79
"1920",402079,1036,1,"Foreign",1,"6",1,NA,80
"1921",402083,1022,1,"Native",1,"4",1,NA,1
"1922",402083,1048,1,"Native",1,"5",0,NA,2
"1923",402083,1078,1,"Native",1,"5",0,NA,3
"1924",402083,1027,1,"Native",1,"2",0,NA,4
"1925",402083,1049,1,"Native",1,"5",1,NA,5
"1926",402083,1037,1,"Native",1,"4",0,NA,6
"1927",402083,1074,1,"Native",1,"3",1,NA,7
"1928",402083,1077,1,"Native",1,"5",0,NA,8
"1929",402083,1072,1,"Native",1,"6",1,NA,9
"1930",402083,1045,1,"Native",1,"5",0,NA,10
"1931",402083,1063,1,"Native",1,"3",0,NA,11
"1932",402083,1038,1,"Native",1,"4",1,NA,12
"1933",402083,1053,1,"Native",1,"4",1,NA,13
"1934",402083,1020,1,"Native",1,"2",1,NA,14
"1935",402083,1041,1,"Native",1,"2",0,NA,15
"1936",402083,1062,1,"Native",1,"5",0,NA,16
"1937",402083,1025,1,"Native",1,"5",0,NA,17
"1938",402083,1021,1,"Native",1,"3",1,NA,18
"1939",402083,1016,1,"Native",1,"4",1,NA,19
"1940",402083,1040,1,"Native",1,"3",0,NA,20
"1941",402083,1057,1,"Native",1,"3",1,NA,21
"1942",402083,1079,1,"Native",1,"5",1,NA,22
"1943",402083,1032,1,"Native",1,"4",0,NA,23
"1944",402083,1043,1,"Native",1,"4",1,NA,24
"1945",402083,1031,1,"Native",1,"2",1,NA,25
"1946",402083,1004,1,"Native",1,"3",0,NA,26
"1947",402083,1065,1,"Native",1,"5",0,NA,27
"1948",402083,1007,1,"Native",1,"2",1,NA,28
"1949",402083,1026,1,"Native",1,"3",1,NA,29
"1950",402083,1069,1,"Native",1,"4",0,NA,30
"1951",402083,1018,1,"Native",1,"5",0,NA,31
"1952",402083,1011,1,"Native",1,"3",1,NA,32
"1953",402083,1036,1,"Native",1,"2",1,NA,33
"1954",402083,1054,1,"Native",1,"2",1,NA,34
"1955",402083,1039,1,"Native",1,"4",0,NA,35
"1956",402083,1046,1,"Native",1,"4",0,NA,36
"1957",402083,1006,1,"Native",1,"3",0,NA,37
"1958",402083,1060,1,"Native",1,"2",0,NA,38
"1959",402083,1008,1,"Native",1,"2",1,NA,39
"1960",402083,1059,1,"Native",1,"3",1,NA,40
"1961",402083,1042,1,"Native",1,"4",0,NA,41
"1962",402083,1071,1,"Native",1,"3",0,NA,42
"1963",402083,1034,1,"Native",1,"2",1,NA,43
"1964",402083,1019,1,"Native",1,"4",1,NA,44
"1965",402083,1052,1,"Native",1,"2",1,NA,45
"1966",402083,1067,1,"Native",1,"4",0,NA,46
"1967",402083,1009,1,"Native",1,"3",0,NA,47
"1968",402083,1023,1,"Native",1,"3",1,NA,48
"1969",402083,1035,1,"Native",1,"3",0,NA,49
"1970",402083,1024,1,"Native",1,"3",0,NA,50
"1971",402083,1058,1,"Native",1,"5",0,NA,51
"1972",402083,1076,1,"Native",1,"4",1,NA,52
"1973",402083,1001,1,"Native",1,"5",1,NA,53
"1974",402083,1064,1,"Native",1,"4",1,NA,54
"1975",402083,1029,1,"Native",1,"3",0,NA,55
"1976",402083,1066,1,"Native",1,"5",0,NA,56
"1977",402083,1003,1,"Native",1,"4",1,NA,57
"1978",402083,1075,1,"Native",1,"5",0,NA,58
"1979",402083,1005,1,"Native",1,"3",0,NA,59
"1980",402083,1014,1,"Native",1,"5",1,NA,60
"1981",402083,1044,1,"Native",1,"4",1,NA,61
"1982",402083,1030,1,"Native",1,"4",1,NA,62
"1983",402083,1028,1,"Native",1,"4",0,NA,63
"1984",402083,1080,1,"Native",1,"2",0,NA,64
"1985",402083,1047,1,"Native",1,"2",1,NA,65
"1986",402083,1068,1,"Native",1,"4",0,NA,66
"1987",402083,1033,1,"Native",1,"3",1,NA,67
"1988",402083,1002,1,"Native",1,"3",1,NA,68
"1989",402083,1017,1,"Native",1,"4",0,NA,69
"1990",402083,1056,1,"Native",1,"5",0,NA,70
"1991",402083,1061,1,"Native",1,"5",1,NA,71
"1992",402083,1012,1,"Native",1,"3",1,NA,72
"1993",402083,1010,1,"Native",1,"3",0,NA,73
"1994",402083,1051,1,"Native",1,"4",1,NA,74
"1995",402083,1015,1,"Native",1,"5",1,NA,75
"1996",402083,1013,1,"Native",1,"3",0,NA,76
"1997",402083,1073,1,"Native",1,"4",1,NA,77
"1998",402083,1055,1,"Native",1,"2",1,NA,78
"1999",402083,1050,1,"Native",1,"3",0,NA,79
"2000",402083,1070,1,"Native",1,"2",0,NA,80
"2001",402147,1023,1,"Native",1,NA,0,NA,1
"2002",402147,1080,1,"Native",1,NA,1,NA,2
"2003",402147,1048,1,"Native",1,"6",1,NA,3
"2004",402147,1052,1,"Native",1,"3",0,NA,4
"2005",402147,1050,1,"Native",1,"6",1,NA,5
"2006",402147,1070,1,"Native",1,"6",1,NA,6
"2007",402147,1034,1,"Native",1,"3",0,NA,7
"2008",402147,1073,1,"Native",1,"3",0,NA,8
"2009",402147,1037,1,"Native",1,"6",1,NA,9
"2010",402147,1061,1,"Native",1,"3",0,NA,10
"2011",402147,1066,1,"Native",1,"6",1,NA,11
"2012",402147,1077,1,"Native",1,"5",1,NA,12
"2013",402147,1079,1,"Native",1,"4",0,NA,13
"2014",402147,1011,1,"Native",1,"3",0,NA,14
"2015",402147,1005,1,"Native",1,"5",1,NA,15
"2016",402147,1069,1,"Native",1,"5",1,NA,16
"2017",402147,1008,1,"Native",1,"4",0,NA,17
"2018",402147,1063,1,"Native",1,"5",1,NA,18
"2019",402147,1001,1,"Native",1,"4",0,NA,19
"2020",402147,1012,1,"Native",1,"4",0,NA,20
"2021",402147,1010,1,"Native",1,"4",1,NA,21
"2022",402147,1039,1,"Native",1,"5",1,NA,22
"2023",402147,1014,1,"Native",1,"6",0,NA,23
"2024",402147,1043,1,"Native",1,"4",0,NA,24
"2025",402147,1047,1,"Native",1,"4",0,NA,25
"2026",402147,1021,1,"Native",1,"4",0,NA,26
"2027",402147,1076,1,"Native",1,"6",0,NA,27
"2028",402147,1007,1,"Native",1,"4",0,NA,28
"2029",402147,1075,1,"Native",1,"5",1,NA,29
"2030",402147,1074,1,"Native",1,"6",0,NA,30
"2031",402147,1032,1,"Native",1,"4",1,NA,31
"2032",402147,1051,1,"Native",1,"6",0,NA,32
"2033",402147,1071,1,"Native",1,"5",1,NA,33
"2034",402147,1027,1,"Native",1,"5",1,NA,34
"2035",402147,1009,1,"Native",1,"5",1,NA,35
"2036",402147,1018,1,"Native",1,"1",1,NA,36
"2037",402147,1020,1,"Native",1,"3",0,NA,37
"2038",402147,1033,1,"Native",1,"4",0,NA,38
"2039",402147,1041,1,"Native",1,"4",1,NA,39
"2040",402147,1036,1,"Native",1,"4",0,NA,40
"2041",402147,1031,1,"Native",1,"3",0,NA,41
"2042",402147,1058,1,"Native",1,"2",1,NA,42
"2043",402147,1049,1,"Native",1,"2",0,NA,43
"2044",402147,1002,1,"Native",1,"5",0,NA,44
"2045",402147,1019,1,"Native",1,"4",0,NA,45
"2046",402147,1006,1,"Native",1,"6",1,NA,46
"2047",402147,1042,1,"Native",1,"4",1,NA,47
"2048",402147,1022,1,"Native",1,"2",0,NA,48
"2049",402147,1030,1,"Native",1,"4",0,NA,49
"2050",402147,1016,1,"Native",1,"5",0,NA,50
"2051",402147,1057,1,"Native",1,"6",0,NA,51
"2052",402147,1024,1,"Native",1,"6",1,NA,52
"2053",402147,1065,1,"Native",1,"6",1,NA,53
"2054",402147,1068,1,"Native",1,"3",1,NA,54
"2055",402147,1029,1,"Native",1,"3",1,NA,55
"2056",402147,1040,1,"Native",1,"2",1,NA,56
"2057",402147,1025,1,"Native",1,"6",1,NA,57
"2058",402147,1053,1,"Native",1,"4",0,NA,58
"2059",402147,1044,1,"Native",1,"6",0,NA,59
"2060",402147,1028,1,"Native",1,"3",1,NA,60
"2061",402147,1078,1,"Native",1,"4",1,NA,61
"2062",402147,1004,1,"Native",1,"3",1,NA,62
"2063",402147,1056,1,"Native",1,"4",1,NA,63
"2064",402147,1054,1,"Native",1,"6",0,NA,64
"2065",402147,1059,1,"Native",1,"6",0,NA,65
"2066",402147,1072,1,"Native",1,"6",0,NA,66
"2067",402147,1062,1,"Native",1,"5",1,NA,67
"2068",402147,1060,1,"Native",1,"5",1,NA,68
"2069",402147,1035,1,"Native",1,"4",1,NA,69
"2070",402147,1003,1,"Native",1,"5",0,NA,70
"2071",402147,1017,1,"Native",1,"4",1,NA,71
"2072",402147,1013,1,"Native",1,"4",1,NA,72
"2073",402147,1045,1,"Native",1,"4",1,NA,73
"2074",402147,1064,1,"Native",1,"6",0,NA,74
"2075",402147,1055,1,"Native",1,"4",0,NA,75
"2076",402147,1046,1,"Native",1,"6",1,NA,76
"2077",402147,1067,1,"Native",1,"3",1,NA,77
"2078",402147,1038,1,"Native",1,"3",0,NA,78
"2079",402147,1026,1,"Native",1,"5",0,NA,79
"2080",402147,1015,1,"Native",1,"1",0,NA,80
"2081",402327,1018,1,"Foreign",1,"6",0,NA,1
"2082",402327,1065,1,"Foreign",1,"4",0,NA,2
"2083",402327,1057,1,"Foreign",1,"6",1,NA,3
"2084",402327,1025,1,"Foreign",1,"6",0,NA,4
"2085",402327,1059,1,"Foreign",1,"6",1,NA,5
"2086",402327,1052,1,"Foreign",1,"6",1,NA,6
"2087",402327,1019,1,"Foreign",1,"6",1,NA,7
"2088",402327,1036,1,"Foreign",1,"6",1,NA,8
"2089",402327,1079,1,"Foreign",1,"6",1,NA,9
"2090",402327,1064,1,"Foreign",1,"6",1,NA,10
"2091",402327,1060,1,"Foreign",1,"2",0,NA,11
"2092",402327,1071,1,"Foreign",1,"2",0,NA,12
"2093",402327,1039,1,"Foreign",1,"2",0,NA,13
"2094",402327,1070,1,"Foreign",1,"4",0,NA,14
"2095",402327,1007,1,"Foreign",1,"6",1,NA,15
"2096",402327,1011,1,"Foreign",1,"6",1,NA,16
"2097",402327,1026,1,"Foreign",1,"6",1,NA,17
"2098",402327,1035,1,"Foreign",1,"6",0,NA,18
"2099",402327,1044,1,"Foreign",1,"6",1,NA,19
"2100",402327,1012,1,"Foreign",1,"5",1,NA,20
"2101",402327,1050,1,"Foreign",1,"5",0,NA,21
"2102",402327,1066,1,"Foreign",1,"4",0,NA,22
"2103",402327,1014,1,"Foreign",1,"6",1,NA,23
"2104",402327,1056,1,"Foreign",1,"4",0,NA,24
"2105",402327,1023,1,"Foreign",1,"6",1,NA,25
"2106",402327,1073,1,"Foreign",1,"6",1,NA,26
"2107",402327,1030,1,"Foreign",1,"6",1,NA,27
"2108",402327,1068,1,"Foreign",1,"3",0,NA,28
"2109",402327,1009,1,"Foreign",1,"4",0,NA,29
"2110",402327,1013,1,"Foreign",1,"2",0,NA,30
"2111",402327,1067,1,"Foreign",1,"3",0,NA,31
"2112",402327,1031,1,"Foreign",1,"6",1,NA,32
"2113",402327,1022,1,"Foreign",1,"6",1,NA,33
"2114",402327,1062,1,"Foreign",1,"4",0,NA,34
"2115",402327,1037,1,"Foreign",1,"4",0,NA,35
"2116",402327,1004,1,"Foreign",1,"4",0,NA,36
"2117",402327,1063,1,"Foreign",1,"2",0,NA,37
"2118",402327,1003,1,"Foreign",1,"6",1,NA,38
"2119",402327,1015,1,"Foreign",1,"6",1,NA,39
"2120",402327,1080,1,"Foreign",1,"3",0,NA,40
"2121",402327,1049,1,"Foreign",1,"6",1,NA,41
"2122",402327,1074,1,"Foreign",1,"6",1,NA,42
"2123",402327,1040,1,"Foreign",1,"5",0,NA,43
"2124",402327,1045,1,"Foreign",1,"3",0,NA,44
"2125",402327,1016,1,"Foreign",1,"6",1,NA,45
"2126",402327,1047,1,"Foreign",1,"6",1,NA,46
"2127",402327,1010,1,"Foreign",1,"2",0,NA,47
"2128",402327,1034,1,"Foreign",1,"6",1,NA,48
"2129",402327,1001,1,"Foreign",1,"6",1,NA,49
"2130",402327,1054,1,"Foreign",1,"6",1,NA,50
"2131",402327,1076,1,"Foreign",1,"6",1,NA,51
"2132",402327,1075,1,"Foreign",1,"4",0,NA,52
"2133",402327,1058,1,"Foreign",1,"5",0,NA,53
"2134",402327,1032,1,"Foreign",1,"2",0,NA,54
"2135",402327,1028,1,"Foreign",1,"4",0,NA,55
"2136",402327,1006,1,"Foreign",1,"5",0,NA,56
"2137",402327,1043,1,"Foreign",1,"6",1,NA,57
"2138",402327,1038,1,"Foreign",1,"6",1,NA,58
"2139",402327,1002,1,"Foreign",1,"6",1,NA,59
"2140",402327,1055,1,"Foreign",1,"3",1,NA,60
"2141",402327,1053,1,"Foreign",1,"4",1,NA,61
"2142",402327,1041,1,"Foreign",1,"3",0,NA,62
"2143",402327,1020,1,"Foreign",1,"6",1,NA,63
"2144",402327,1061,1,"Foreign",1,"6",1,NA,64
"2145",402327,1005,1,"Foreign",1,"6",0,NA,65
"2146",402327,1008,1,"Foreign",1,"6",1,NA,66
"2147",402327,1042,1,"Foreign",1,"5",0,NA,67
"2148",402327,1069,1,"Foreign",1,"1",0,NA,68
"2149",402327,1027,1,"Foreign",1,"3",0,NA,69
"2150",402327,1017,1,"Foreign",1,"2",0,NA,70
"2151",402327,1021,1,"Foreign",1,"6",1,NA,71
"2152",402327,1029,1,"Foreign",1,"5",0,NA,72
"2153",402327,1024,1,"Foreign",1,"6",0,NA,73
"2154",402327,1033,1,"Foreign",1,"6",1,NA,74
"2155",402327,1048,1,"Foreign",1,"6",0,NA,75
"2156",402327,1078,1,"Foreign",1,"4",0,NA,76
"2157",402327,1051,1,"Foreign",1,"3",1,NA,77
"2158",402327,1046,1,"Foreign",1,"2",0,NA,78
"2159",402327,1077,1,"Foreign",1,"5",0,NA,79
"2160",402327,1072,1,"Foreign",1,"6",1,NA,80
"2161",402335,1077,1,"Foreign",1,NA,1,NA,1
"2162",402335,1035,1,"Foreign",1,"2",1,NA,2
"2163",402335,1029,1,"Foreign",1,"3",1,NA,3
"2164",402335,1060,1,"Foreign",1,"2",1,NA,4
"2165",402335,1078,1,"Foreign",1,"1",1,NA,5
"2166",402335,1055,1,"Foreign",1,"5",0,NA,6
"2167",402335,1026,1,"Foreign",1,"4",0,NA,7
"2168",402335,1041,1,"Foreign",1,"1",1,NA,8
"2169",402335,1079,1,"Foreign",1,"6",0,NA,9
"2170",402335,1062,1,"Foreign",1,"5",1,NA,10
"2171",402335,1075,1,"Foreign",1,"4",1,NA,11
"2172",402335,1009,1,"Foreign",1,"2",1,NA,12
"2173",402335,1061,1,"Foreign",1,"1",0,NA,13
"2174",402335,1067,1,"Foreign",1,"2",1,NA,14
"2175",402335,1021,1,"Foreign",1,"2",0,NA,15
"2176",402335,1057,1,"Foreign",1,"2",0,NA,16
"2177",402335,1003,1,"Foreign",1,"5",0,NA,17
"2178",402335,1031,1,"Foreign",1,"1",0,NA,18
"2179",402335,1070,1,"Foreign",1,"1",1,NA,19
"2180",402335,1008,1,"Foreign",1,"1",0,NA,20
"2181",402335,1004,1,"Foreign",1,"5",1,NA,21
"2182",402335,1065,1,"Foreign",1,"2",1,NA,22
"2183",402335,1049,1,"Foreign",1,"3",0,NA,23
"2184",402335,1044,1,"Foreign",1,"6",0,NA,24
"2185",402335,1020,1,"Foreign",1,"1",0,NA,25
"2186",402335,1027,1,"Foreign",1,"1",1,NA,26
"2187",402335,1013,1,"Foreign",1,"1",1,NA,27
"2188",402335,1047,1,"Foreign",1,"2",0,NA,28
"2189",402335,1016,1,"Foreign",1,"4",0,NA,29
"2190",402335,1073,1,"Foreign",1,"5",0,NA,30
"2191",402335,1068,1,"Foreign",1,"3",1,NA,31
"2192",402335,1042,1,"Foreign",1,"2",1,NA,32
"2193",402335,1038,1,"Foreign",1,"2",0,NA,33
"2194",402335,1066,1,"Foreign",1,"3",1,NA,34
"2195",402335,1028,1,"Foreign",1,"4",1,NA,35
"2196",402335,1036,1,"Foreign",1,"5",0,NA,36
"2197",402335,1017,1,"Foreign",1,"2",1,NA,37
"2198",402335,1005,1,"Foreign",1,"2",1,NA,38
"2199",402335,1032,1,"Foreign",1,"2",1,NA,39
"2200",402335,1051,1,"Foreign",1,"5",0,NA,40
"2201",402335,1019,1,"Foreign",1,"3",0,NA,41
"2202",402335,1080,1,"Foreign",1,"2",1,NA,42
"2203",402335,1010,1,"Foreign",1,"2",1,NA,43
"2204",402335,1006,1,"Foreign",1,"4",1,NA,44
"2205",402335,1025,1,"Foreign",1,"2",1,NA,45
"2206",402335,1033,1,"Foreign",1,"1",0,NA,46
"2207",402335,1071,1,"Foreign",1,"3",1,NA,47
"2208",402335,1069,1,"Foreign",1,"2",1,NA,48
"2209",402335,1076,1,"Foreign",1,"3",0,NA,49
"2210",402335,1011,1,"Foreign",1,"3",0,NA,50
"2211",402335,1023,1,"Foreign",1,"5",0,NA,51
"2212",402335,1001,1,"Foreign",1,"4",0,NA,52
"2213",402335,1014,1,"Foreign",1,"4",0,NA,53
"2214",402335,1052,1,"Foreign",1,"2",0,NA,54
"2215",402335,1015,1,"Foreign",1,"4",0,NA,55
"2216",402335,1056,1,"Foreign",1,"2",1,NA,56
"2217",402335,1050,1,"Foreign",1,"4",1,NA,57
"2218",402335,1074,1,"Foreign",1,"2",0,NA,58
"2219",402335,1045,1,"Foreign",1,"3",1,NA,59
"2220",402335,1039,1,"Foreign",1,"2",1,NA,60
"2221",402335,1058,1,"Foreign",1,"4",1,NA,61
"2222",402335,1037,1,"Foreign",1,"3",1,NA,62
"2223",402335,1053,1,"Foreign",1,"3",0,NA,63
"2224",402335,1072,1,"Foreign",1,"4",0,NA,64
"2225",402335,1002,1,"Foreign",1,"5",0,NA,65
"2226",402335,1022,1,"Foreign",1,"4",0,NA,66
"2227",402335,1048,1,"Foreign",1,"4",1,NA,67
"2228",402335,1012,1,"Foreign",1,"3",0,NA,68
"2229",402335,1018,1,"Foreign",1,"4",1,NA,69
"2230",402335,1030,1,"Foreign",1,"4",0,NA,70
"2231",402335,1054,1,"Foreign",1,"5",0,NA,71
"2232",402335,1063,1,"Foreign",1,"3",1,NA,72
"2233",402335,1034,1,"Foreign",1,"2",0,NA,73
"2234",402335,1007,1,"Foreign",1,"4",0,NA,74
"2235",402335,1043,1,"Foreign",1,"4",0,NA,75
"2236",402335,1046,1,"Foreign",1,"5",1,NA,76
"2237",402335,1024,1,"Foreign",1,"4",1,NA,77
"2238",402335,1064,1,"Foreign",1,"3",0,NA,78
"2239",402335,1059,1,"Foreign",1,"5",0,NA,79
"2240",402335,1040,1,"Foreign",1,"6",1,NA,80
"2241",402440,1009,1,"Native",1,"4",0,NA,1
"2242",402440,1069,1,"Native",1,"1",0,NA,2
"2243",402440,1066,1,"Native",1,"4",0,NA,3
"2244",402440,1002,1,"Native",1,"5",1,NA,4
"2245",402440,1072,1,"Native",1,"4",1,NA,5
"2246",402440,1023,1,"Native",1,"5",1,NA,6
"2247",402440,1024,1,"Native",1,"3",0,NA,7
"2248",402440,1050,1,"Native",1,"3",0,NA,8
"2249",402440,1051,1,"Native",1,"5",1,NA,9
"2250",402440,1062,1,"Native",1,"4",0,NA,10
"2251",402440,1008,1,"Native",1,"6",1,NA,11
"2252",402440,1052,1,"Native",1,"6",1,NA,12
"2253",402440,1003,1,"Native",1,"3",1,NA,13
"2254",402440,1018,1,"Native",1,"4",0,NA,14
"2255",402440,1019,1,"Native",1,"4",1,NA,15
"2256",402440,1064,1,"Native",1,"5",1,NA,16
"2257",402440,1031,1,"Native",1,"4",1,NA,17
"2258",402440,1074,1,"Native",1,"6",1,NA,18
"2259",402440,1049,1,"Native",1,"5",1,NA,19
"2260",402440,1025,1,"Native",1,"6",0,NA,20
"2261",402440,1026,1,"Native",1,"5",1,NA,21
"2262",402440,1071,1,"Native",1,"3",0,NA,22
"2263",402440,1038,1,"Native",1,"3",1,NA,23
"2264",402440,1021,1,"Native",1,"5",1,NA,24
"2265",402440,1056,1,"Native",1,"4",0,NA,25
"2266",402440,1054,1,"Native",1,"4",1,NA,26
"2267",402440,1063,1,"Native",1,"2",0,NA,27
"2268",402440,1059,1,"Native",1,"4",1,NA,28
"2269",402440,1057,1,"Native",1,"4",1,NA,29
"2270",402440,1010,1,"Native",1,"3",0,NA,30
"2271",402440,1043,1,"Native",1,"5",1,NA,31
"2272",402440,1007,1,"Native",1,"4",1,NA,32
"2273",402440,1032,1,"Native",1,"2",0,NA,33
"2274",402440,1039,1,"Native",1,"3",0,NA,34
"2275",402440,1004,1,"Native",1,"2",0,NA,35
"2276",402440,1016,1,"Native",1,"4",1,NA,36
