"","subject","statement_identifier","procedure_identifier","within_identifier","between_identifier","response","repeated","trial","rt"
"1",1,28,1,"Real",1,2,1,37,6.873
"2",1,26,1,"Fake",1,2,NA,38,18
"3",1,30,1,"Fake",1,4,0,39,6.174
"4",1,36,1,"Fake",1,4,0,40,6.088
"5",1,43,1,"Real",1,3,1,41,3.202
"6",1,49,1,"Fake",1,3,NA,42,8.18
"7",1,32,1,"Real",1,4,0,43,9.353
"8",1,40,1,"Fake",1,3,1,44,6.95
"9",1,19,1,"Fake",1,4,1,45,0.437
"10",1,38,1,"Real",1,4,1,46,5.446
"11",1,50,1,"Real",1,4,0,47,8.387
"12",1,47,1,"Fake",1,2,1,48,3.181
"13",1,31,1,"Real",1,5,0,49,6.049
"14",1,24,1,"Real",1,3,0,50,6.12
"15",1,44,1,"Real",1,4,0,51,5.642
"16",1,17,1,"Fake",1,5,1,52,5.414
"17",1,27,1,"Real",1,5,1,53,4.496
"18",1,14,1,"Fake",1,3,NA,54,7.869
"19",1,33,1,"Fake",1,4,0,55,5.631
"20",1,51,1,"Fake",1,2,1,56,5.15
"21",1,11,1,"Fake",1,3,1,57,3.295
"22",1,22,1,"Real",1,5,NA,58,6.965
"23",1,54,1,"Real",1,3,NA,59,5.614
"24",1,25,1,"Real",1,2,0,60,12.125
"25",1,53,1,"Real",1,5,1,61,6.597
"26",1,29,1,"Real",1,3,0,62,5.108
"27",1,2,1,"Fake",1,4,1,63,5.608
"28",1,7,1,"Real",1,4,NA,64,5.263
"29",1,6,1,"Fake",1,4,0,65,5.588
"30",1,46,1,"Fake",1,5,0,66,6.531
"31",1,16,1,"Real",1,2,NA,67,7.3
"32",1,45,1,"Real",1,3,NA,68,4.088
"33",1,37,1,"Fake",1,4,NA,69,5.675
"34",1,5,1,"Fake",1,1,0,70,6.447
"35",1,12,1,"Fake",1,1,NA,71,6.019
"36",1,4,1,"Fake",1,3,NA,72,3.354
"37",1,8,1,"Fake",1,3,NA,73,5.735
"38",1,23,1,"Fake",1,2,0,74,8.071
"39",1,34,1,"Fake",1,4,1,75,6.696
"40",1,13,1,"Fake",1,2,NA,76,3.61
"41",1,42,1,"Real",1,4,0,77,4.267
"42",1,15,1,"Real",1,3,NA,78,3.993
"43",1,39,1,"Real",1,3,0,79,7.995
"44",1,1,1,"Real",1,2,NA,80,4.671
"45",1,9,1,"Real",1,1,1,81,4.255
"46",1,52,1,"Fake",1,4,0,82,11.758
"47",1,3,1,"Real",1,4,1,83,4.333
"48",1,18,1,"Fake",1,3,1,84,3.904
"49",1,20,1,"Fake",1,4,0,85,6.864
"50",1,21,1,"Real",1,3,NA,86,4.067
"51",1,48,1,"Real",1,2,1,87,6.866
"52",1,10,1,"Fake",1,2,NA,88,4.526
"53",1,35,1,"Real",1,4,1,89,3.802
"54",1,41,1,"Real",1,3,NA,90,4.634
"55",10,38,1,"Real",1,4,0,37,7.309
"56",10,13,1,"Fake",1,3,1,38,5.007
"57",10,44,1,"Real",1,4,1,39,3.385
"58",10,28,1,"Real",1,4,0,40,6.241
"59",10,45,1,"Fake",1,4,0,41,4.119
"60",10,11,1,"Real",1,2,NA,42,5.062
"61",10,25,1,"Real",1,4,1,43,2.822
"62",10,4,1,"Fake",1,5,1,44,3.41
"63",10,51,1,"Real",1,2,NA,45,8.023
"64",10,46,1,"Fake",1,4,NA,46,5.669
"65",10,23,1,"Fake",1,4,NA,47,10.531
"66",10,43,1,"Real",1,1,0,48,3.592
"67",10,8,1,"Fake",1,2,1,49,3.716
"68",10,27,1,"Real",1,2,0,50,6.597
"69",10,7,1,"Fake",1,2,0,51,4.885
"70",10,53,1,"Real",1,4,0,52,5.452
"71",10,16,1,"Fake",1,3,0,53,6.852
"72",10,42,1,"Real",1,3,1,54,1.914
"73",10,26,1,"Fake",1,2,1,55,4.243
"74",10,18,1,"Real",1,5,NA,56,6.445
"75",10,36,1,"Fake",1,2,NA,57,2.715
"76",10,35,1,"Real",1,3,0,58,6.661
"77",10,31,1,"Real",1,2,1,59,4.01
"78",10,49,1,"Fake",1,4,1,60,3.789
"79",10,47,1,"Real",1,2,NA,61,4.353
"80",10,52,1,"Fake",1,4,NA,62,5.647
"81",10,2,1,"Real",1,2,NA,63,6.077
"82",10,6,1,"Fake",1,2,NA,64,4.924
"83",10,33,1,"Fake",1,4,NA,65,8.202
"84",10,5,1,"Fake",1,5,NA,66,4.046
"85",10,20,1,"Fake",1,2,NA,67,4.392
"86",10,14,1,"Fake",1,4,1,68,3.804
"87",10,10,1,"Fake",1,4,1,69,5.728
"88",10,48,1,"Real",1,4,0,70,4.668
"89",10,40,1,"Real",1,4,NA,71,4.988
"90",10,50,1,"Real",1,4,1,72,3.503
"91",10,37,1,"Fake",1,4,1,73,0.914
"92",10,17,1,"Real",1,3,NA,74,5.743
"93",10,3,1,"Real",1,2,0,75,6.491
"94",10,39,1,"Real",1,1,1,76,6.63
"95",10,34,1,"Real",1,2,NA,77,5.076
"96",10,30,1,"Fake",1,4,NA,78,3.421
"97",10,12,1,"Fake",1,2,1,79,10.872
"98",10,15,1,"Fake",1,4,0,80,7.647
"99",10,21,1,"Fake",1,2,0,81,7.307
"100",10,22,1,"Fake",1,1,0,82,8.269
"101",10,19,1,"Real",1,2,NA,83,5.087
"102",10,29,1,"Real",1,4,1,84,3.27
"103",10,41,1,"Fake",1,2,0,85,6.312
"104",10,24,1,"Real",1,2,1,86,7.524
"105",10,1,1,"Fake",1,4,0,87,3.693
"106",10,54,1,"Fake",1,4,0,88,3.623
"107",10,32,1,"Real",1,2,1,89,7.498
"108",10,9,1,"Real",1,2,0,90,8.044
"109",11,14,1,"Fake",1,4,1,37,8.418
"110",11,10,1,"Fake",1,5,1,38,5.578
"111",11,52,1,"Fake",1,5,NA,39,8.33
"112",11,22,1,"Fake",1,1,0,40,10.967
"113",11,11,1,"Real",1,1,NA,41,6.495
"114",11,12,1,"Fake",1,2,1,42,8.609
"115",11,19,1,"Real",1,5,NA,43,4.627
"116",11,7,1,"Fake",1,1,0,44,6.505
"117",11,20,1,"Fake",1,1,NA,45,5.972
"118",11,51,1,"Real",1,4,NA,46,9.817
"119",11,28,1,"Real",1,5,0,47,3.816
"120",11,9,1,"Real",1,1,0,48,4.307
"121",11,25,1,"Real",1,2,1,49,5.527
"122",11,29,1,"Real",1,5,1,50,4.654
"123",11,24,1,"Real",1,5,1,51,2.414
"124",11,13,1,"Fake",1,5,1,52,6.43
"125",11,18,1,"Real",1,4,NA,53,5.954
"126",11,4,1,"Fake",1,2,1,54,4.37
"127",11,26,1,"Fake",1,2,1,55,12.123
"128",11,38,1,"Real",1,6,0,56,11.029
"129",11,3,1,"Real",1,3,0,57,6.148
"130",11,49,1,"Fake",1,4,1,58,6.67
"131",11,17,1,"Real",1,2,NA,59,4.657
"132",11,43,1,"Real",1,5,0,60,5.534
"133",11,36,1,"Fake",1,4,NA,61,4.016
"134",11,31,1,"Real",1,4,1,62,2.921
"135",11,33,1,"Fake",1,4,NA,63,6.151
"136",11,8,1,"Fake",1,4,1,64,5.479
"137",11,5,1,"Fake",1,6,NA,65,5.29
"138",11,40,1,"Real",1,6,NA,66,6.574
"139",11,6,1,"Fake",1,3,NA,67,5.333
"140",11,50,1,"Real",1,4,1,68,7.689
"141",11,53,1,"Real",1,2,0,69,9.111
"142",11,16,1,"Fake",1,5,0,70,6.566
"143",11,35,1,"Real",1,5,0,71,7.309
"144",11,23,1,"Fake",1,5,NA,72,6.838
"145",11,41,1,"Fake",1,2,0,73,8.561
"146",11,54,1,"Fake",1,4,0,74,5.084
"147",11,21,1,"Fake",1,5,0,75,4.049
"148",11,34,1,"Real",1,5,NA,76,8.805
"149",11,45,1,"Fake",1,6,0,77,7.36
"150",11,37,1,"Fake",1,2,1,78,6.948
"151",11,2,1,"Real",1,2,NA,79,7.675
"152",11,42,1,"Real",1,5,1,80,2.894
"153",11,1,1,"Fake",1,5,0,81,9.724
"154",11,30,1,"Fake",1,5,NA,82,7.171
"155",11,47,1,"Real",1,3,NA,83,6.433
"156",11,48,1,"Real",1,5,0,84,12.981
"157",11,15,1,"Fake",1,2,0,85,6.499
"158",11,32,1,"Real",1,4,1,86,4.501
"159",11,46,1,"Fake",1,4,NA,87,4.884
"160",11,39,1,"Real",1,5,1,88,5.605
"161",11,27,1,"Real",1,5,0,89,4.926
"162",11,44,1,"Real",1,4,1,90,3.883
"163",12,48,1,"Fake",1,6,NA,37,4.031
"164",12,28,1,"Fake",1,1,NA,38,3.04
"165",12,36,1,"Fake",1,6,1,39,2.356
"166",12,7,1,"Real",1,6,1,40,2.244
"167",12,22,1,"Real",1,6,1,41,3.953
"168",12,21,1,"Real",1,6,1,42,3.133
"169",12,19,1,"Real",1,3,0,43,6.156
"170",12,5,1,"Fake",1,6,1,44,1.926
"171",12,4,1,"Fake",1,3,0,45,5.632
"172",12,53,1,"Fake",1,4,NA,46,6.487
"173",12,52,1,"Fake",1,6,1,47,2.212
"174",12,11,1,"Real",1,2,0,48,3.01
"175",12,45,1,"Real",1,6,1,49,2.989
"176",12,1,1,"Real",1,6,1,50,2.402
"177",12,24,1,"Real",1,6,NA,51,2.2
"178",12,54,1,"Real",1,6,1,52,2.19
"179",12,40,1,"Real",1,3,0,53,4.444
"180",12,15,1,"Real",1,6,1,54,2.068
"181",12,50,1,"Real",1,3,NA,55,2.839
"182",12,26,1,"Fake",1,2,0,56,3.459
"183",12,47,1,"Real",1,3,0,57,3.371
"184",12,30,1,"Fake",1,6,1,58,2.417
"185",12,33,1,"Fake",1,6,1,59,1.766
"186",12,20,1,"Fake",1,6,1,60,1.631
"187",12,34,1,"Real",1,2,0,61,2.997
"188",12,17,1,"Real",1,3,0,62,1.537
"189",12,31,1,"Real",1,4,NA,63,4.794
"190",12,41,1,"Real",1,5,1,64,5.493
"191",12,27,1,"Fake",1,6,NA,65,3.794
"192",12,12,1,"Fake",1,3,0,66,8.637
"193",12,42,1,"Real",1,5,NA,67,2.626
"194",12,29,1,"Real",1,4,NA,68,2.75
"195",12,16,1,"Real",1,5,1,69,1.741
"196",12,25,1,"Real",1,5,NA,70,2.35
"197",12,35,1,"Fake",1,4,NA,71,2.933
"198",12,44,1,"Real",1,3,NA,72,2.516
"199",12,13,1,"Fake",1,4,0,73,2.317
"200",12,8,1,"Fake",1,3,0,74,2.311
"201",12,39,1,"Real",1,2,NA,75,3.48
"202",12,38,1,"Fake",1,4,NA,76,2.424
"203",12,2,1,"Real",1,2,0,77,4.509
"204",12,46,1,"Fake",1,6,1,78,3.564
"205",12,51,1,"Real",1,6,0,79,5.584
"206",12,43,1,"Fake",1,3,NA,80,2.69
"207",12,49,1,"Fake",1,2,0,81,3.692
"208",12,10,1,"Fake",1,3,0,82,2.404
"209",12,18,1,"Real",1,3,0,83,2.545
"210",12,23,1,"Fake",1,6,1,84,3.152
"211",12,32,1,"Real",1,4,NA,85,2.278
"212",12,14,1,"Fake",1,2,0,86,5.089
"213",12,3,1,"Fake",1,3,NA,87,4.288
"214",12,9,1,"Fake",1,3,NA,88,3.648
"215",12,6,1,"Fake",1,6,1,89,2.345
"216",12,37,1,"Fake",1,2,0,90,4.104
"217",13,54,1,"Fake",1,2,NA,37,11.549
"218",13,8,1,"Real",1,2,0,38,7.759
"219",13,41,1,"Fake",1,1,NA,39,8.9
"220",13,2,1,"Fake",1,4,0,40,7.557
"221",13,19,1,"Fake",1,4,0,41,5.227
"222",13,18,1,"Fake",1,2,0,42,4.361
"223",13,39,1,"Fake",1,4,1,43,5.612
"224",13,40,1,"Fake",1,5,0,44,7.555
"225",13,44,1,"Fake",1,6,1,45,3.723
"226",13,53,1,"Real",1,5,NA,46,5.992
"227",13,28,1,"Real",1,2,NA,47,3.072
"228",13,52,1,"Real",1,6,1,48,0.937
"229",13,30,1,"Real",1,6,1,49,2.514
"230",13,14,1,"Real",1,1,0,50,6.354
"231",13,4,1,"Real",1,4,0,51,6.466
"232",13,21,1,"Fake",1,6,NA,52,5.375
"233",13,7,1,"Fake",1,5,NA,53,2.288
"234",13,16,1,"Fake",1,5,NA,54,3.705
"235",13,33,1,"Real",1,5,1,55,5.272
"236",13,38,1,"Real",1,3,NA,56,3.245
"237",13,24,1,"Fake",1,6,1,57,4.159
"238",13,15,1,"Fake",1,1,NA,58,4.236
"239",13,6,1,"Real",1,6,1,59,2.731
"240",13,46,1,"Real",1,6,1,60,2.913
"241",13,51,1,"Fake",1,6,0,61,5.472
"242",13,17,1,"Fake",1,3,0,62,3.51
"243",13,27,1,"Real",1,5,NA,63,4.045
"244",13,43,1,"Real",1,5,NA,64,2.398
"245",13,31,1,"Fake",1,4,1,65,6.586
"246",13,47,1,"Fake",1,2,0,66,3.954
"247",13,45,1,"Fake",1,2,NA,67,4.318
"248",13,5,1,"Real",1,6,1,68,3.195
"249",13,12,1,"Real",1,5,0,69,5.504
"250",13,26,1,"Real",1,4,0,70,4.364
"251",13,36,1,"Real",1,4,1,71,3.79
"252",13,20,1,"Real",1,5,1,72,4.226
"253",13,48,1,"Real",1,6,NA,73,3.202
"254",13,50,1,"Fake",1,4,1,74,5.11
"255",13,34,1,"Fake",1,5,0,75,3.913
"256",13,35,1,"Real",1,6,NA,76,4.712
"257",13,49,1,"Real",1,3,0,77,5.038
"258",13,37,1,"Real",1,6,0,78,4.259
"259",13,3,1,"Real",1,2,NA,79,5.491
"260",13,29,1,"Fake",1,6,1,80,3.472
"261",13,13,1,"Real",1,5,0,81,2.984
"262",13,42,1,"Fake",1,5,1,82,2.028
"263",13,9,1,"Real",1,5,NA,83,3.241
"264",13,11,1,"Fake",1,2,0,84,3.787
"265",13,25,1,"Fake",1,6,1,85,3.702
"266",13,23,1,"Real",1,5,1,86,2.564
"267",13,22,1,"Fake",1,1,NA,87,3.209
"268",13,32,1,"Fake",1,5,1,88,4.028
"269",13,10,1,"Real",1,3,0,89,4.182
"270",13,1,1,"Fake",1,2,NA,90,4.215
"271",14,49,1,"Fake",1,6,NA,37,10.236
"272",14,38,1,"Real",1,4,1,38,9.54
"273",14,6,1,"Fake",1,5,0,39,13.393
"274",14,19,1,"Fake",1,4,1,40,8.702
"275",14,3,1,"Real",1,3,1,41,14.261
"276",14,43,1,"Real",1,2,1,42,4.359
"277",14,33,1,"Fake",1,3,0,43,26.505
"278",14,1,1,"Real",1,4,NA,44,6.218
"279",14,27,1,"Real",1,3,1,45,9.224
"280",14,40,1,"Fake",1,4,1,46,7.163
"281",14,48,1,"Real",1,3,1,47,5.97
"282",14,17,1,"Fake",1,2,1,48,6.131
"283",14,51,1,"Fake",1,5,1,49,7.237
"284",14,25,1,"Real",1,3,0,50,14.272
"285",14,10,1,"Fake",1,4,NA,51,9.529
"286",14,16,1,"Real",1,5,NA,52,12.47
"287",14,14,1,"Fake",1,6,NA,53,13.219
"288",14,12,1,"Fake",1,3,NA,54,12.03
"289",14,18,1,"Fake",1,4,1,55,13.588
"290",14,41,1,"Real",1,5,NA,56,34.584
"291",14,35,1,"Real",1,4,1,57,14.961
"292",14,15,1,"Real",1,5,NA,58,17.142
"293",14,54,1,"Real",1,5,NA,59,13.08
"294",14,21,1,"Real",1,4,NA,60,18.628
"295",14,20,1,"Fake",1,4,0,61,12.203
"296",14,4,1,"Fake",1,3,NA,62,11.105
"297",14,24,1,"Real",1,5,0,63,13.86
"298",14,30,1,"Fake",1,4,0,64,10.821
"299",14,8,1,"Fake",1,4,NA,65,19.926
"300",14,32,1,"Real",1,3,0,66,40.268
"301",14,39,1,"Real",1,4,0,67,13.139
"302",14,31,1,"Real",1,5,0,68,8.923
"303",14,26,1,"Fake",1,4,NA,69,13.282
"304",14,5,1,"Fake",1,4,0,70,16.329
"305",14,47,1,"Fake",1,4,1,71,6.724
"306",14,36,1,"Fake",1,3,0,72,25.621
"307",14,34,1,"Fake",1,4,1,73,8.321
"308",14,13,1,"Fake",1,5,NA,74,5.378
"309",14,7,1,"Real",1,5,NA,75,8.475
"310",14,45,1,"Real",1,4,NA,76,10.205
"311",14,50,1,"Real",1,4,0,77,17.365
"312",14,23,1,"Fake",1,2,0,78,24.333
"313",14,28,1,"Real",1,4,1,79,9.663
"314",14,53,1,"Real",1,5,1,80,14.064
"315",14,52,1,"Fake",1,4,0,81,9.769
"316",14,9,1,"Real",1,4,1,82,8.733
"317",14,42,1,"Real",1,5,0,83,9.587
"318",14,11,1,"Fake",1,4,1,84,26.894
"319",14,2,1,"Fake",1,4,1,85,12.509
"320",14,46,1,"Fake",1,4,0,86,9.67
"321",14,44,1,"Real",1,4,0,87,15.382
"322",14,37,1,"Fake",1,4,NA,88,31.376
"323",14,22,1,"Real",1,5,NA,89,8.039
"324",14,29,1,"Real",1,4,0,90,6.475
"325",15,42,1,"Fake",1,5,NA,37,16.064
"326",15,2,1,"Real",1,6,1,38,11.702
"327",15,5,1,"Real",1,4,0,39,11.361
"328",15,49,1,"Real",1,3,NA,40,4.963
"329",15,27,1,"Fake",1,4,0,41,10.655
"330",15,14,1,"Real",1,2,NA,42,14.271
"331",15,1,1,"Fake",1,3,1,43,5.598
"332",15,28,1,"Fake",1,2,0,44,10.839
"333",15,13,1,"Real",1,4,NA,45,15.158
"334",15,44,1,"Fake",1,2,NA,46,24.833
"335",15,26,1,"Real",1,5,NA,47,6.596
"336",15,29,1,"Fake",1,5,NA,48,5.403
"337",15,33,1,"Real",1,3,0,49,10.397
"338",15,7,1,"Fake",1,2,1,50,7.216
"339",15,20,1,"Real",1,6,0,51,5.598
"340",15,25,1,"Fake",1,3,NA,52,4.272
"341",15,38,1,"Fake",1,4,0,53,6.849
"342",15,37,1,"Real",1,5,NA,54,4.294
"343",15,18,1,"Real",1,3,1,55,4.645
"344",15,17,1,"Real",1,5,1,56,4.439
"345",15,15,1,"Fake",1,4,1,57,8.833
"346",15,34,1,"Real",1,5,1,58,3.548
"347",15,6,1,"Real",1,5,0,59,10.233
"348",15,8,1,"Real",1,3,NA,60,3.754
"349",15,50,1,"Fake",1,2,NA,61,6.112
"350",15,22,1,"Fake",1,3,1,62,19.116
"351",15,46,1,"Real",1,6,0,63,6.964
"352",15,23,1,"Real",1,4,0,64,6.877
"353",15,12,1,"Real",1,5,NA,65,11.418
"354",15,35,1,"Fake",1,5,0,66,7.257
"355",15,51,1,"Real",1,3,1,67,0.744
"356",15,3,1,"Fake",1,6,0,68,4.355
"357",15,19,1,"Real",1,4,1,69,4.479
"358",15,36,1,"Real",1,5,0,70,10.552
"359",15,40,1,"Real",1,4,1,71,2.572
"360",15,41,1,"Fake",1,5,1,72,3.882
"361",15,4,1,"Real",1,6,NA,73,3.571
"362",15,16,1,"Fake",1,3,1,74,3.225
"363",15,43,1,"Fake",1,4,0,75,7.582
"364",15,54,1,"Fake",1,5,1,76,5.109
"365",15,31,1,"Fake",1,4,NA,77,13.17
"366",15,24,1,"Fake",1,4,NA,78,6.945
"367",15,53,1,"Fake",1,5,0,79,10.074
"368",15,10,1,"Real",1,4,NA,80,3.29
"369",15,48,1,"Fake",1,5,0,81,9.498
"370",15,45,1,"Fake",1,4,1,82,11.563
"371",15,11,1,"Real",1,4,1,83,5.485
"372",15,47,1,"Real",1,3,1,84,10.395
"373",15,9,1,"Fake",1,4,0,85,5.524
"374",15,30,1,"Real",1,5,0,86,5.738
"375",15,21,1,"Fake",1,5,1,87,4.285
"376",15,32,1,"Fake",1,4,NA,88,4.981
"377",15,39,1,"Fake",1,3,NA,89,3.208
"378",15,52,1,"Real",1,3,0,90,14.805
"379",17,45,1,"Fake",1,3,NA,37,6.442
"380",17,37,1,"Real",1,5,0,38,8.247
"381",17,23,1,"Real",1,4,1,39,5.105
"382",17,10,1,"Real",1,1,0,40,7.598
"383",17,40,1,"Fake",1,1,0,41,7.605
"384",17,9,1,"Real",1,4,NA,42,4.506
"385",17,28,1,"Real",1,5,NA,43,4.766
"386",17,31,1,"Fake",1,5,1,44,3.778
"387",17,5,1,"Real",1,4,1,45,3.661
"388",17,19,1,"Fake",1,3,0,46,6.982
"389",17,48,1,"Real",1,2,NA,47,6.612
"390",17,11,1,"Fake",1,4,0,48,5.963
"391",17,2,1,"Fake",1,1,0,49,5.285
"392",17,15,1,"Fake",1,4,NA,50,10.008
"393",17,12,1,"Real",1,3,0,51,8.419
"394",17,47,1,"Fake",1,5,0,52,2.893
"395",17,50,1,"Fake",1,3,1,53,3.583
"396",17,27,1,"Real",1,5,NA,54,3.338
"397",17,22,1,"Fake",1,2,NA,55,5.817
"398",17,20,1,"Real",1,6,1,56,3.207
"399",17,13,1,"Real",1,5,0,57,3.018
"400",17,46,1,"Real",1,4,1,58,3.373
"401",17,49,1,"Real",1,2,0,59,7.521
"402",17,16,1,"Fake",1,5,NA,60,3.057
"403",17,21,1,"Fake",1,4,NA,61,3.69
"404",17,30,1,"Real",1,4,1,62,4.673
"405",17,32,1,"Fake",1,2,1,63,3.112
"406",17,7,1,"Fake",1,4,NA,64,4.167
"407",17,29,1,"Fake",1,4,1,65,3.691
"408",17,38,1,"Real",1,3,NA,66,8.249
"409",17,44,1,"Fake",1,4,1,67,4.741
"410",17,8,1,"Real",1,5,0,68,5.671
"411",17,52,1,"Real",1,1,1,69,2.237
"412",17,39,1,"Fake",1,3,1,70,4.929
"413",17,24,1,"Fake",1,4,1,71,4.067
"414",17,25,1,"Fake",1,4,1,72,5.026
"415",17,18,1,"Fake",1,3,0,73,5.067
"416",17,33,1,"Real",1,2,1,74,4.288
"417",17,42,1,"Fake",1,4,1,75,3.694
"418",17,3,1,"Real",1,5,NA,76,2.758
"419",17,1,1,"Fake",1,4,NA,77,3.964
"420",17,4,1,"Real",1,3,0,78,7.223
"421",17,36,1,"Real",1,4,1,79,2.716
"422",17,54,1,"Fake",1,2,NA,80,4.149
"423",17,26,1,"Real",1,2,0,81,9.04
"424",17,14,1,"Real",1,1,0,82,10.409
"425",17,35,1,"Real",1,2,NA,83,8.428
"426",17,34,1,"Fake",1,3,0,84,4.589
"427",17,17,1,"Fake",1,4,0,85,2.761
"428",17,41,1,"Fake",1,4,NA,86,6.078
"429",17,6,1,"Real",1,4,1,87,2.963
"430",17,43,1,"Real",1,2,NA,88,3.998
"431",17,51,1,"Fake",1,2,0,89,9.417
"432",17,53,1,"Real",1,4,NA,90,5.331
"433",18,52,1,"Real",1,5,1,37,10.025
"434",18,53,1,"Real",1,6,NA,38,4.9
"435",18,5,1,"Real",1,2,1,39,7.891
"436",18,40,1,"Fake",1,3,0,40,17.917
"437",18,46,1,"Real",1,6,1,41,2.368
"438",18,21,1,"Fake",1,2,NA,42,7.768
"439",18,26,1,"Real",1,4,0,43,18.528
"440",18,13,1,"Real",1,6,0,44,3.568
"441",18,36,1,"Real",1,3,1,45,10.847
"442",18,54,1,"Fake",1,3,NA,46,21.552
"443",18,27,1,"Real",1,3,NA,47,9.108
"444",18,2,1,"Fake",1,5,0,48,17.284
"445",18,39,1,"Fake",1,2,1,49,6.928
"446",18,42,1,"Fake",1,5,1,50,5.891
"447",18,18,1,"Fake",1,5,0,51,5.8
"448",18,43,1,"Real",1,3,NA,52,12.723
"449",18,35,1,"Real",1,3,NA,53,18.676
"450",18,38,1,"Real",1,2,NA,54,12.751
"451",18,9,1,"Real",1,5,NA,55,7.073
"452",18,20,1,"Real",1,5,1,56,3.566
"453",18,1,1,"Fake",1,3,NA,57,10.34
"454",18,7,1,"Fake",1,1,NA,58,13.706
"455",18,47,1,"Fake",1,2,0,59,6.21
"456",18,25,1,"Fake",1,1,1,60,8.163
"457",18,32,1,"Fake",1,2,1,61,8.41
"458",18,23,1,"Real",1,6,1,62,2.79
"459",18,29,1,"Fake",1,5,1,63,6.373
"460",18,14,1,"Real",1,6,0,64,1.459
"461",18,28,1,"Real",1,2,NA,65,7.321
"462",18,16,1,"Fake",1,3,NA,66,14.899
"463",18,17,1,"Fake",1,5,0,67,7.595
"464",18,37,1,"Real",1,6,0,68,5.986
"465",18,15,1,"Fake",1,3,NA,69,11.044
"466",18,31,1,"Fake",1,4,1,70,6.844
"467",18,34,1,"Fake",1,1,0,71,11.569
"468",18,45,1,"Fake",1,2,NA,72,17.036
"469",18,8,1,"Real",1,4,0,73,5.946
"470",18,49,1,"Real",1,3,0,74,14.406
"471",18,3,1,"Real",1,1,NA,75,5.531
"472",18,12,1,"Real",1,3,0,76,18.271
"473",18,33,1,"Real",1,3,1,77,5.763
"474",18,24,1,"Fake",1,5,1,78,10.638
"475",18,44,1,"Fake",1,5,1,79,10.821
"476",18,30,1,"Real",1,4,1,80,4.616
"477",18,11,1,"Fake",1,5,0,81,8.738
"478",18,41,1,"Fake",1,2,NA,82,11.834
"479",18,22,1,"Fake",1,1,NA,83,15.537
"480",18,19,1,"Fake",1,1,0,84,6.142
"481",18,10,1,"Real",1,2,0,85,10.33
"482",18,50,1,"Fake",1,4,1,86,7.544
"483",18,6,1,"Real",1,5,1,87,5.538
"484",18,48,1,"Real",1,4,NA,88,5.421
"485",18,4,1,"Real",1,6,0,89,18.654
"486",18,51,1,"Fake",1,4,0,90,12.267
"487",19,41,1,"Real",1,2,1,37,10.93
"488",19,24,1,"Real",1,6,NA,38,1.782
"489",19,36,1,"Fake",1,6,1,39,1.079
"490",19,20,1,"Fake",1,6,1,40,1.77
"491",19,13,1,"Fake",1,1,0,41,1.657
"492",19,35,1,"Fake",1,1,NA,42,3.438
"493",19,40,1,"Real",1,1,0,43,1.432
"494",19,44,1,"Real",1,6,NA,44,1.126
"495",19,50,1,"Real",1,6,NA,45,2.305
"496",19,51,1,"Real",1,1,0,46,4.585
"497",19,52,1,"Fake",1,6,1,47,1.187
"498",19,3,1,"Fake",1,1,NA,48,2.004
"499",19,48,1,"Fake",1,2,NA,49,3.249
"500",19,54,1,"Real",1,6,1,50,0.668
"501",19,33,1,"Fake",1,1,1,51,3.128
"502",19,42,1,"Real",1,1,NA,52,2.112
"503",19,29,1,"Real",1,1,NA,53,2.873
"504",19,37,1,"Fake",1,1,0,54,1.891
"505",19,18,1,"Real",1,1,0,55,2.71
"506",19,46,1,"Fake",1,6,1,56,2.301
"507",19,1,1,"Real",1,6,1,57,3.006
"508",19,31,1,"Real",1,1,NA,58,2.331
"509",19,2,1,"Real",1,1,0,59,2.644
"510",19,8,1,"Fake",1,1,0,60,4.287
"511",19,7,1,"Real",1,6,1,61,2.016
"512",19,14,1,"Fake",1,1,0,62,2.109
"513",19,21,1,"Real",1,5,1,63,2.758
"514",19,9,1,"Fake",1,6,NA,64,0.893
"515",19,53,1,"Fake",1,6,NA,65,5.833
"516",19,34,1,"Real",1,2,0,66,4.208
"517",19,16,1,"Real",1,6,1,67,1.77
"518",19,6,1,"Fake",1,6,1,68,2.035
"519",19,19,1,"Real",1,1,0,69,3.416
"520",19,22,1,"Real",1,6,1,70,3.027
"521",19,11,1,"Real",1,1,0,71,4.093
"522",19,5,1,"Fake",1,6,1,72,2.221
"523",19,43,1,"Fake",1,6,NA,73,1.875
"524",19,49,1,"Fake",1,2,0,74,5.238
"525",19,47,1,"Real",1,2,0,75,3.214
"526",19,10,1,"Fake",1,4,0,76,4.018
"527",19,38,1,"Fake",1,6,NA,77,1.316
"528",19,15,1,"Real",1,6,1,78,1.926
"529",19,45,1,"Real",1,6,1,79,1.855
"530",19,28,1,"Fake",1,1,NA,80,2.651
"531",19,4,1,"Fake",1,1,0,81,2.607
"532",19,17,1,"Real",1,6,0,82,2.051
"533",19,30,1,"Fake",1,5,1,83,2.529
"534",19,26,1,"Fake",1,1,0,84,4.176
"535",19,39,1,"Real",1,6,NA,85,3.332
"536",19,32,1,"Real",1,1,NA,86,3.418
"537",19,27,1,"Fake",1,6,NA,87,2.167
"538",19,23,1,"Fake",1,6,1,88,2.359
"539",19,25,1,"Real",1,1,NA,89,0.65
"540",19,12,1,"Fake",1,1,0,90,2.224
"541",2,31,1,"Real",1,2,1,37,14.451
"542",2,32,1,"Real",1,1,1,38,8.317
"543",2,46,1,"Fake",1,5,NA,39,6.558
"544",2,35,1,"Real",1,2,0,40,12.377
"545",2,45,1,"Fake",1,1,0,41,5.736
"546",2,52,1,"Fake",1,1,NA,42,3.03
"547",2,53,1,"Real",1,1,0,43,6.993
"548",2,29,1,"Real",1,1,1,44,3.387
"549",2,15,1,"Fake",1,3,0,45,9.664
"550",2,27,1,"Real",1,4,0,46,4.002
"551",2,22,1,"Fake",1,1,0,47,10.838
"552",2,23,1,"Fake",1,1,NA,48,6.966
"553",2,14,1,"Fake",1,5,1,49,10.008
"554",2,8,1,"Fake",1,5,1,50,2.49
"555",2,51,1,"Real",1,4,NA,51,11.133
"556",2,20,1,"Fake",1,4,NA,52,4.578
"557",2,4,1,"Fake",1,1,1,53,2.917
"558",2,34,1,"Real",1,1,NA,54,3.479
"559",2,33,1,"Fake",1,5,NA,55,9.322
"560",2,5,1,"Fake",1,5,NA,56,8.186
"561",2,21,1,"Fake",1,4,0,57,6.543
"562",2,50,1,"Real",1,2,1,58,6.323
"563",2,19,1,"Real",1,2,NA,59,4.502
"564",2,43,1,"Real",1,1,0,60,3.55
"565",2,1,1,"Fake",1,2,0,61,11.565
"566",2,10,1,"Fake",1,1,1,62,2.304
"567",2,13,1,"Fake",1,6,1,63,2.234
"568",2,7,1,"Fake",1,3,0,64,5.193
"569",2,44,1,"Real",1,1,1,65,3.188
"570",2,24,1,"Real",1,1,1,66,3.058
"571",2,6,1,"Fake",1,2,NA,67,9.542
"572",2,41,1,"Fake",1,1,0,68,13.453
"573",2,17,1,"Real",1,1,NA,69,3.865
"574",2,54,1,"Fake",1,2,0,70,26.779
"575",2,12,1,"Fake",1,2,1,71,7.628
"576",2,25,1,"Real",1,4,1,72,5.803
"577",2,3,1,"Real",1,4,0,73,9.804
"578",2,39,1,"Real",1,5,1,74,6.815
"579",2,2,1,"Real",1,2,NA,75,34.968
"580",2,26,1,"Fake",1,2,1,76,2.766
"581",2,18,1,"Real",1,3,NA,77,6.533
"582",2,48,1,"Real",1,1,0,78,7.208
"583",2,38,1,"Real",1,1,0,79,7.255
"584",2,42,1,"Real",1,3,1,80,7.221
"585",2,16,1,"Fake",1,1,0,81,7.724
"586",2,37,1,"Fake",1,3,1,82,7.302
"587",2,40,1,"Real",1,4,NA,83,11.952
"588",2,49,1,"Fake",1,3,1,84,8.707
"589",2,9,1,"Real",1,4,0,85,10.612
"590",2,11,1,"Real",1,2,NA,86,6.357
"591",2,28,1,"Real",1,4,0,87,11.791
"592",2,47,1,"Real",1,3,NA,88,8.96
"593",2,36,1,"Fake",1,2,NA,89,6.776
"594",2,30,1,"Fake",1,3,NA,90,7.329
"595",20,22,1,"Real",1,4,0,37,7.639
"596",20,32,1,"Fake",1,2,0,38,6.635
"597",20,26,1,"Real",1,5,1,39,3.658
"598",20,50,1,"Fake",1,4,0,40,7.083
"599",20,41,1,"Real",1,5,0,41,5.279
"600",20,29,1,"Fake",1,4,0,42,5.757
"601",20,30,1,"Real",1,4,NA,43,3.416
"602",20,27,1,"Fake",1,3,1,44,3.274
"603",20,37,1,"Real",1,5,1,45,6.685
"604",20,25,1,"Fake",1,4,0,46,6.776
"605",20,51,1,"Fake",1,5,NA,47,2.776
"606",20,12,1,"Real",1,3,1,48,2.654
"607",20,4,1,"Real",1,5,1,49,1.738
"608",20,46,1,"Real",1,3,NA,50,3.289
"609",20,23,1,"Real",1,2,NA,51,2.282
"610",20,5,1,"Real",1,3,NA,52,3.596
"611",20,10,1,"Real",1,4,1,53,4.191
"612",20,36,1,"Real",1,4,NA,54,2.268
"613",20,39,1,"Fake",1,2,0,55,1.237
"614",20,47,1,"Fake",1,3,NA,56,4.978
"615",20,20,1,"Real",1,2,NA,57,5.119
"616",20,45,1,"Real",1,2,0,58,6.114
"617",20,13,1,"Real",1,5,1,59,2.142
"618",20,11,1,"Fake",1,4,NA,60,3.536
"619",20,7,1,"Real",1,3,0,61,3.918
"620",20,34,1,"Fake",1,2,NA,62,3.317
"621",20,19,1,"Fake",1,3,NA,63,5.468
"622",20,9,1,"Fake",1,2,1,64,2.316
"623",20,35,1,"Fake",1,2,1,65,3.788
"624",20,42,1,"Fake",1,3,0,66,2.544
"625",20,3,1,"Fake",1,2,1,67,3.207
"626",20,28,1,"Fake",1,5,1,68,3.652
"627",20,40,1,"Fake",1,4,NA,69,2.173
"628",20,1,1,"Real",1,2,0,70,4.46
"629",20,21,1,"Real",1,4,0,71,4.204
"630",20,54,1,"Real",1,4,0,72,3.958
"631",20,2,1,"Fake",1,4,NA,73,3.035
"632",20,14,1,"Real",1,3,1,74,3.221
"633",20,53,1,"Fake",1,2,1,75,0.904
"634",20,15,1,"Real",1,6,0,76,4.547
"635",20,33,1,"Real",1,5,NA,77,2.815
"636",20,18,1,"Fake",1,5,NA,78,2.843
"637",20,52,1,"Real",1,3,NA,79,4.39
"638",20,8,1,"Real",1,4,1,80,2.249
"639",20,49,1,"Real",1,2,1,81,1.013
"640",20,44,1,"Fake",1,3,0,82,3.06
"641",20,17,1,"Fake",1,6,NA,83,1.765
"642",20,24,1,"Fake",1,4,0,84,2.942
"643",20,43,1,"Fake",1,6,1,85,1.637
"644",20,31,1,"Fake",1,4,0,86,4.074
"645",20,16,1,"Real",1,2,0,87,4.737
"646",20,48,1,"Fake",1,2,1,88,3.943
"647",20,6,1,"Real",1,2,NA,89,3.956
"648",20,38,1,"Fake",1,3,1,90,3.745
"649",21,6,1,"Fake",1,2,0,37,9.853
"650",21,52,1,"Fake",1,2,0,38,4.781
"651",21,49,1,"Fake",1,2,NA,39,6.145
"652",21,12,1,"Fake",1,3,NA,40,9.139
"653",21,8,1,"Fake",1,5,NA,41,4.761
"654",21,31,1,"Real",1,5,0,42,6.332
"655",21,1,1,"Real",1,4,NA,43,5.502
"656",21,33,1,"Fake",1,2,0,44,7.476
"657",21,28,1,"Real",1,4,1,45,4.495
"658",21,4,1,"Fake",1,3,NA,46,6.021
"659",21,13,1,"Fake",1,4,NA,47,5.652
"660",21,24,1,"Real",1,5,0,48,8.762
"661",21,25,1,"Real",1,4,0,49,7.818
"662",21,27,1,"Real",1,5,1,50,5.967
"663",21,50,1,"Real",1,3,0,51,8.656
"664",21,42,1,"Real",1,2,0,52,3.77
"665",21,36,1,"Fake",1,4,0,53,6.678
"666",21,16,1,"Real",1,5,NA,54,3.643
"667",21,5,1,"Fake",1,2,0,55,4.932
"668",21,37,1,"Fake",1,5,NA,56,7.84
"669",21,48,1,"Real",1,4,1,57,4.077
"670",21,34,1,"Fake",1,5,1,58,4.021
"671",21,17,1,"Fake",1,6,1,59,2.709
"672",21,32,1,"Real",1,2,0,60,5.813
"673",21,23,1,"Fake",1,3,0,61,11.844
"674",21,15,1,"Real",1,3,NA,62,4.259
"675",21,46,1,"Fake",1,2,0,63,4.668
"676",21,9,1,"Real",1,4,1,64,3.894
"677",21,43,1,"Real",1,4,1,65,3.734
"678",21,14,1,"Fake",1,2,NA,66,4.555
"679",21,41,1,"Real",1,4,NA,67,10.551
"680",21,40,1,"Fake",1,4,1,68,4.211
"681",21,45,1,"Real",1,3,NA,69,3.774
"682",21,21,1,"Real",1,5,NA,70,4.472
"683",21,44,1,"Real",1,4,0,71,5.329
"684",21,7,1,"Real",1,2,NA,72,4.573
"685",21,29,1,"Real",1,5,0,73,9.767
"686",21,10,1,"Fake",1,2,NA,74,5.077
"687",21,53,1,"Real",1,5,1,75,6.002
"688",21,18,1,"Fake",1,5,1,76,5.963
"689",21,35,1,"Real",1,3,1,77,3.42
"690",21,20,1,"Fake",1,3,0,78,4.447
"691",21,39,1,"Real",1,1,0,79,7.406
"692",21,38,1,"Real",1,2,1,80,2.821
"693",21,3,1,"Real",1,5,1,81,3.544
"694",21,19,1,"Fake",1,3,1,82,5.573
"695",21,51,1,"Fake",1,4,1,83,4.431
"696",21,54,1,"Real",1,3,NA,84,4.305
"697",21,11,1,"Fake",1,2,1,85,3.862
"698",21,22,1,"Real",1,2,NA,86,10.262
"699",21,30,1,"Fake",1,4,0,87,5.798
"700",21,26,1,"Fake",1,3,NA,88,8.167
"701",21,47,1,"Fake",1,4,1,89,2.678
"702",21,2,1,"Fake",1,5,1,90,4.311
"703",22,26,1,"Fake",1,2,0,37,9.822
"704",22,10,1,"Fake",1,4,0,38,10.262
"705",22,4,1,"Fake",1,3,0,39,8.891
"706",22,44,1,"Real",1,3,NA,40,8.723
"707",22,35,1,"Fake",1,2,NA,41,5.007
"708",22,50,1,"Real",1,4,NA,42,7.764
"709",22,45,1,"Real",1,3,1,43,5.49
"710",22,14,1,"Fake",1,5,0,44,11.43
"711",22,7,1,"Real",1,5,1,45,2.333
"712",22,41,1,"Real",1,3,1,46,5.02
"713",22,29,1,"Real",1,4,NA,47,5.49
"714",22,1,1,"Real",1,4,1,48,5.334
"715",22,23,1,"Fake",1,5,1,49,3.608
"716",22,12,1,"Fake",1,4,0,50,9.585
"717",22,53,1,"Fake",1,3,NA,51,6.609
"718",22,31,1,"Real",1,3,NA,52,6.66
"719",22,46,1,"Fake",1,5,1,53,6.401
"720",22,51,1,"Real",1,5,0,54,7.767
"721",22,42,1,"Real",1,4,NA,55,7.343
"722",22,27,1,"Fake",1,2,NA,56,4.975
"723",22,39,1,"Real",1,2,NA,57,4.394
"724",22,16,1,"Real",1,3,1,58,4.392
"725",22,18,1,"Real",1,4,0,59,7.316
"726",22,6,1,"Fake",1,4,1,60,3.453
"727",22,21,1,"Real",1,5,1,61,6.406
"728",22,11,1,"Real",1,5,0,62,6.313
"729",22,32,1,"Real",1,4,NA,63,12.597
"730",22,43,1,"Fake",1,5,NA,64,7.146
"731",22,33,1,"Fake",1,4,1,65,5.68
"732",22,30,1,"Fake",1,3,1,66,12.61
"733",22,49,1,"Fake",1,4,0,67,8.312
"734",22,28,1,"Fake",1,4,NA,68,5.414
"735",22,38,1,"Fake",1,1,NA,69,8.359
"736",22,2,1,"Real",1,1,0,70,7.099
"737",22,8,1,"Fake",1,3,0,71,16.789
"738",22,54,1,"Real",1,2,1,72,10.366
"739",22,13,1,"Fake",1,3,0,73,7.352
"740",22,15,1,"Real",1,5,1,74,3.814
"741",22,40,1,"Real",1,5,0,75,6.648
"742",22,47,1,"Real",1,4,0,76,6.65
"743",22,3,1,"Fake",1,4,NA,77,15.91
"744",22,19,1,"Real",1,3,0,78,8.763
"745",22,22,1,"Real",1,4,1,79,11.024
"746",22,25,1,"Real",1,6,NA,80,3.896
"747",22,48,1,"Fake",1,1,NA,81,6.166
"748",22,20,1,"Fake",1,6,1,82,5.081
"749",22,36,1,"Fake",1,6,1,83,4.326
"750",22,9,1,"Fake",1,4,NA,84,6.273
"751",22,34,1,"Real",1,4,0,85,5.797
"752",22,24,1,"Real",1,5,NA,86,3.74
"753",22,37,1,"Fake",1,3,0,87,6.039
"754",22,17,1,"Real",1,4,0,88,6.582
"755",22,52,1,"Fake",1,6,1,89,4.148
"756",22,5,1,"Fake",1,6,1,90,5.176
"757",23,29,1,"Fake",1,4,0,37,8.627
"758",23,12,1,"Real",1,4,1,38,9.462
"759",23,48,1,"Fake",1,2,1,39,4.118
"760",23,25,1,"Fake",1,3,0,40,9.324
"761",23,46,1,"Real",1,5,NA,41,8.121
"762",23,19,1,"Fake",1,2,NA,42,11.705
"763",23,31,1,"Fake",1,4,0,43,8.461
"764",23,7,1,"Real",1,1,0,44,4.502
"765",23,23,1,"Real",1,2,NA,45,12.132
"766",23,28,1,"Fake",1,4,1,46,6.078
"767",23,33,1,"Real",1,1,NA,47,7.308
"768",23,6,1,"Real",1,4,NA,48,8.188
"769",23,30,1,"Real",1,3,NA,49,4.851
"770",23,20,1,"Real",1,1,NA,50,7.235
"771",23,14,1,"Real",1,5,1,51,7.984
"772",23,26,1,"Real",1,2,1,52,5.118
"773",23,5,1,"Real",1,4,NA,53,6.259
"774",23,9,1,"Fake",1,4,1,54,6.409
"775",23,15,1,"Real",1,3,0,55,8.984
"776",23,44,1,"Fake",1,5,0,56,8.012
"777",23,8,1,"Real",1,4,1,57,3.68
"778",23,4,1,"Real",1,2,1,58,6.72
"779",23,2,1,"Fake",1,2,NA,59,8.996
"780",23,53,1,"Fake",1,3,1,60,8.758
"781",23,1,1,"Real",1,4,0,61,6.444
"782",23,24,1,"Fake",1,5,0,62,4.969
"783",23,18,1,"Fake",1,1,NA,63,7.621
"784",23,35,1,"Fake",1,1,1,64,10.49
"785",23,43,1,"Fake",1,4,1,65,2.709
"786",23,17,1,"Fake",1,6,NA,66,3.264
"787",23,27,1,"Fake",1,5,1,67,5.451
"788",23,22,1,"Real",1,3,0,68,10.97
"789",23,13,1,"Real",1,4,1,69,4.596
"790",23,49,1,"Real",1,4,1,70,5.166
"791",23,54,1,"Real",1,3,0,71,5.128
"792",23,52,1,"Real",1,4,NA,72,6.301
"793",23,47,1,"Fake",1,3,NA,73,5.065
"794",23,36,1,"Real",1,3,NA,74,5.562
"795",23,10,1,"Real",1,2,1,75,5.98
"796",23,11,1,"Fake",1,3,NA,76,8.085
"797",23,32,1,"Fake",1,5,0,77,6.432
"798",23,41,1,"Real",1,4,0,78,7.253
"799",23,50,1,"Fake",1,3,0,79,7.16
"800",23,39,1,"Fake",1,5,0,80,18.76
"801",23,45,1,"Real",1,3,0,81,4.511
"802",23,42,1,"Fake",1,5,0,82,2.773
"803",23,34,1,"Fake",1,2,NA,83,4.677
"804",23,51,1,"Fake",1,3,NA,84,5.212
"805",23,21,1,"Real",1,4,0,85,5.293
"806",23,40,1,"Fake",1,5,NA,86,7.003
"807",23,16,1,"Real",1,4,0,87,4.865
"808",23,38,1,"Fake",1,3,1,88,4.088
"809",23,3,1,"Fake",1,3,1,89,8.048
"810",23,37,1,"Real",1,5,1,90,6.043
"811",25,43,1,"Fake",1,2,0,37,12.437
"812",25,13,1,"Real",1,2,NA,38,8.299
"813",25,51,1,"Real",1,2,1,39,14.755
"814",25,20,1,"Real",1,1,0,40,6.488
"815",25,34,1,"Real",1,5,1,41,4.661
"816",25,29,1,"Fake",1,2,NA,42,13.026
"817",25,1,1,"Fake",1,3,1,43,32.094
"818",25,10,1,"Real",1,1,NA,44,15.191
"819",25,26,1,"Real",1,1,NA,45,11.355
"820",25,40,1,"Real",1,5,1,46,4.613
"821",25,3,1,"Fake",1,3,0,47,9.742
"822",25,16,1,"Fake",1,5,1,48,4.515
"823",25,8,1,"Real",1,3,NA,49,10.881
"824",25,25,1,"Fake",1,3,NA,50,8.07
"825",25,14,1,"Real",1,1,NA,51,7.456
"826",25,36,1,"Real",1,4,0,52,5.194
"827",25,41,1,"Fake",1,5,1,53,7.172
"828",25,18,1,"Real",1,5,1,54,5.571
"829",25,22,1,"Fake",1,5,1,55,8.844
"830",25,24,1,"Fake",1,4,NA,56,6.958
"831",25,12,1,"Real",1,3,NA,57,12.526
"832",25,53,1,"Fake",1,4,0,58,10.415
"833",25,7,1,"Fake",1,3,1,59,8.52
"834",25,27,1,"Fake",1,4,0,60,7.415
"835",25,9,1,"Fake",1,4,0,61,9.164
"836",25,35,1,"Fake",1,4,0,62,7.569
"837",25,5,1,"Real",1,3,0,63,9.64
"838",25,2,1,"Real",1,2,1,64,12.233
"839",25,38,1,"Fake",1,5,0,65,16.119
"840",25,39,1,"Fake",1,3,NA,66,14.739
"841",25,33,1,"Real",1,5,0,67,7.762
"842",25,30,1,"Real",1,3,0,68,7.336
"843",25,52,1,"Real",1,4,0,69,8.153
"844",25,50,1,"Fake",1,3,NA,70,9.846
"845",25,31,1,"Fake",1,2,NA,71,7.751
"846",25,45,1,"Fake",1,3,1,72,9.43
"847",25,28,1,"Fake",1,4,0,73,5.648
"848",25,4,1,"Real",1,3,NA,74,7.76
"849",25,15,1,"Fake",1,4,1,75,9.604
"850",25,21,1,"Fake",1,4,1,76,4.646
"851",25,49,1,"Real",1,2,NA,77,9.454
"852",25,6,1,"Real",1,3,0,78,17.167
"853",25,47,1,"Real",1,4,1,79,3.561
"854",25,37,1,"Real",1,4,NA,80,5.805
"855",25,32,1,"Fake",1,3,NA,81,11.101
"856",25,23,1,"Real",1,4,0,82,6.498
"857",25,11,1,"Real",1,4,1,83,4.236
"858",25,44,1,"Fake",1,3,NA,84,4.893
"859",25,42,1,"Fake",1,3,NA,85,6.219
"860",25,17,1,"Real",1,5,1,86,4.571
"861",25,46,1,"Real",1,4,0,87,7.126
"862",25,19,1,"Real",1,4,1,88,3.614
"863",25,48,1,"Fake",1,1,0,89,6.505
"864",25,54,1,"Fake",1,4,1,90,3.875
"865",26,10,1,"Fake",1,3,0,37,13.544
"866",26,28,1,"Fake",1,4,NA,38,7.415
"867",26,9,1,"Fake",1,4,NA,39,9.469
"868",26,18,1,"Real",1,5,0,40,7.102
"869",26,16,1,"Real",1,2,1,41,6.938
"870",26,36,1,"Fake",1,4,1,42,5.437
"871",26,48,1,"Fake",1,4,NA,43,4.438
"872",26,7,1,"Real",1,2,1,44,4.119
"873",26,34,1,"Real",1,3,0,45,6.942
"874",26,15,1,"Real",1,4,1,46,4.367
"875",26,26,1,"Fake",1,2,0,47,13.613
"876",26,24,1,"Real",1,5,NA,48,3.842
"877",26,39,1,"Real",1,2,NA,49,12.867
"878",26,21,1,"Real",1,5,1,50,7.232
"879",26,42,1,"Real",1,5,NA,51,4.045
"880",26,43,1,"Fake",1,4,NA,52,4.847
"881",26,23,1,"Fake",1,3,1,53,5.793
"882",26,22,1,"Real",1,1,1,54,10.563
"883",26,20,1,"Fake",1,1,1,55,2.647
"884",26,5,1,"Fake",1,1,1,56,4.002
"885",26,14,1,"Fake",1,2,0,57,8.638
"886",26,47,1,"Real",1,3,0,58,3.65
"887",26,32,1,"Real",1,2,NA,59,6.468
"888",26,4,1,"Fake",1,3,0,60,4.828
"889",26,53,1,"Fake",1,4,NA,61,6.421
"890",26,33,1,"Fake",1,5,1,62,0.802
"891",26,50,1,"Real",1,2,NA,63,6.227
"892",26,17,1,"Real",1,3,0,64,4.858
"893",26,19,1,"Real",1,3,0,65,5.531
"894",26,44,1,"Real",1,4,NA,66,3.368
"895",26,31,1,"Real",1,5,NA,67,3.541
"896",26,40,1,"Real",1,3,0,68,12.262
"897",26,2,1,"Real",1,3,0,69,8.97
"898",26,49,1,"Fake",1,3,0,70,10.623
"899",26,30,1,"Fake",1,4,1,71,4.921
"900",26,52,1,"Fake",1,1,1,72,5.655
"901",26,38,1,"Fake",1,4,NA,73,3.046
"902",26,27,1,"Fake",1,3,NA,74,4.746
"903",26,35,1,"Fake",1,4,NA,75,5.28
"904",26,11,1,"Real",1,3,0,76,0.629
"905",26,12,1,"Fake",1,3,0,77,9.478
"906",26,6,1,"Fake",1,2,1,78,4.654
"907",26,46,1,"Fake",1,4,1,79,3.695
"908",26,8,1,"Fake",1,4,0,80,5.848
"909",26,51,1,"Real",1,4,0,81,0.633
"910",26,45,1,"Real",1,3,1,82,9.264
"911",26,1,1,"Real",1,2,1,83,3.891
"912",26,3,1,"Fake",1,2,NA,84,9.115
"913",26,37,1,"Fake",1,4,0,85,5.307
"914",26,29,1,"Real",1,4,NA,86,6.871
"915",26,54,1,"Real",1,3,1,87,5.028
"916",26,25,1,"Real",1,3,NA,88,7.103
"917",26,41,1,"Real",1,4,1,89,4.562
"918",26,13,1,"Fake",1,2,0,90,5.215
"919",27,3,1,"Real",1,5,1,37,19.762
"920",27,46,1,"Fake",1,4,0,38,14.239
"921",27,24,1,"Real",1,5,0,39,8.761
"922",27,37,1,"Fake",1,4,NA,40,10.951
"923",27,6,1,"Fake",1,4,0,41,12.097
"924",27,31,1,"Real",1,5,0,42,7.188
"925",27,12,1,"Fake",1,3,NA,43,9.363
"926",27,39,1,"Real",1,5,0,44,15.695
"927",27,2,1,"Fake",1,4,1,45,12.045
"928",27,50,1,"Real",1,5,0,46,9.265
"929",27,22,1,"Real",1,6,NA,47,10.674
"930",27,8,1,"Fake",1,4,NA,48,9.553
"931",27,1,1,"Real",1,4,NA,49,10.956
"932",27,4,1,"Fake",1,5,NA,50,8.992
"933",27,30,1,"Fake",1,4,0,51,15.596
"934",27,51,1,"Fake",1,5,1,52,9.52
"935",27,27,1,"Real",1,5,1,53,7.157
"936",27,38,1,"Real",1,4,1,54,7.093
"937",27,23,1,"Fake",1,4,0,55,11.824
"938",27,20,1,"Fake",1,3,0,56,13.416
"939",27,11,1,"Fake",1,4,1,57,8.411
"940",27,29,1,"Real",1,5,0,58,13.784
"941",27,18,1,"Fake",1,3,1,59,10.253
"942",27,48,1,"Real",1,5,1,60,6.445
"943",27,41,1,"Real",1,4,NA,61,12.556
"944",27,21,1,"Real",1,5,NA,62,7.156
"945",27,5,1,"Fake",1,3,0,63,8.517
"946",27,45,1,"Real",1,4,NA,64,13.429
"947",27,36,1,"Fake",1,3,0,65,9.001
"948",27,26,1,"Fake",1,3,NA,66,9.701
"949",27,40,1,"Fake",1,4,1,67,8.084
"950",27,15,1,"Real",1,5,NA,68,6.326
"951",27,54,1,"Real",1,5,NA,69,14.841
"952",27,17,1,"Fake",1,3,1,70,8.411
"953",27,13,1,"Fake",1,3,NA,71,7.359
"954",27,33,1,"Fake",1,3,0,72,11.87
"955",27,44,1,"Real",1,4,0,73,8.26
"956",27,34,1,"Fake",1,4,1,74,7.11
"957",27,25,1,"Real",1,4,0,75,11.128
"958",27,7,1,"Real",1,4,NA,76,8.38
"959",27,35,1,"Real",1,5,1,77,10.249
"960",27,19,1,"Fake",1,3,1,78,4.873
"961",27,43,1,"Real",1,4,1,79,3.601
"962",27,9,1,"Real",1,5,1,80,4.758
"963",27,14,1,"Fake",1,3,NA,81,9.234
"964",27,32,1,"Real",1,4,0,82,7.781
"965",27,53,1,"Real",1,4,1,83,10.123
"966",27,47,1,"Fake",1,4,1,84,7.681
"967",27,49,1,"Fake",1,3,NA,85,11.421
"968",27,28,1,"Real",1,5,1,86,19.506
"969",27,16,1,"Real",1,4,NA,87,10.059
"970",27,42,1,"Real",1,5,0,88,11.81
"971",27,52,1,"Fake",1,4,0,89,13.658
"972",27,10,1,"Fake",1,3,NA,90,8.628
"973",28,6,1,"Real",1,2,NA,37,5.529
"974",28,26,1,"Real",1,5,1,38,6.005
"975",28,28,1,"Fake",1,4,1,39,5.94
"976",28,7,1,"Real",1,4,0,40,6.919
"977",28,35,1,"Fake",1,4,1,41,6.609
"978",28,31,1,"Fake",1,3,0,42,5.983
"979",28,25,1,"Fake",1,4,0,43,12.166
"980",28,14,1,"Real",1,4,1,44,4.824
"981",28,12,1,"Real",1,5,1,45,3.481
"982",28,10,1,"Real",1,3,1,46,5.257
"983",28,46,1,"Real",1,3,NA,47,4.079
"984",28,2,1,"Fake",1,2,NA,48,5.605
"985",28,42,1,"Fake",1,4,0,49,4.83
"986",28,53,1,"Fake",1,5,1,50,4.35
"987",28,9,1,"Fake",1,5,1,51,5.209
"988",28,23,1,"Real",1,2,NA,52,4.683
"989",28,11,1,"Fake",1,1,NA,53,4.842
"990",28,3,1,"Fake",1,4,1,54,5.23
"991",28,1,1,"Real",1,5,0,55,5.87
"992",28,18,1,"Fake",1,3,NA,56,3.78
"993",28,54,1,"Real",1,3,0,57,3.536
"994",28,5,1,"Real",1,2,NA,58,3.789
"995",28,43,1,"Fake",1,3,1,59,4.553
"996",28,37,1,"Real",1,3,1,60,5.66
"997",28,30,1,"Real",1,3,NA,61,1.876
"998",28,32,1,"Fake",1,3,0,62,4.453
"999",28,51,1,"Fake",1,2,NA,63,3.942
"1000",28,24,1,"Fake",1,3,0,64,3.747
"1001",28,27,1,"Fake",1,5,1,65,3.593
"1002",28,8,1,"Real",1,5,1,66,2.58
"1003",28,19,1,"Fake",1,2,NA,67,4.184
"1004",28,47,1,"Fake",1,2,NA,68,1.771
"1005",28,17,1,"Fake",1,2,NA,69,1.947
"1006",28,40,1,"Fake",1,2,NA,70,4.946
"1007",28,33,1,"Real",1,2,NA,71,5.717
"1008",28,52,1,"Real",1,3,NA,72,3.591
"1009",28,20,1,"Real",1,4,NA,73,2.188
"1010",28,22,1,"Real",1,3,0,74,12.624
"1011",28,44,1,"Fake",1,3,0,75,5.022
"1012",28,34,1,"Fake",1,4,NA,76,3.19
"1013",28,15,1,"Real",1,3,0,77,6.914
"1014",28,36,1,"Real",1,4,NA,78,3.644
"1015",28,13,1,"Real",1,5,1,79,3.037
"1016",28,49,1,"Real",1,4,1,80,4.063
"1017",28,48,1,"Fake",1,4,1,81,3.04
"1018",28,41,1,"Real",1,4,0,82,7.537
"1019",28,45,1,"Real",1,5,0,83,5.129
"1020",28,4,1,"Real",1,4,1,84,5.614
"1021",28,29,1,"Fake",1,3,0,85,5.668
"1022",28,50,1,"Fake",1,3,0,86,8.297
"1023",28,38,1,"Fake",1,4,1,87,7.707
"1024",28,16,1,"Real",1,4,0,88,9.309
"1025",28,39,1,"Fake",1,3,0,89,4.683
"1026",28,21,1,"Real",1,3,0,90,4.809
"1027",29,16,1,"Real",1,1,0,37,14.75
"1028",29,25,1,"Fake",1,5,0,38,8.036
"1029",29,51,1,"Fake",1,3,NA,39,9.648
"1030",29,5,1,"Real",1,2,NA,40,10.243
"1031",29,9,1,"Fake",1,4,1,41,2.731
"1032",29,32,1,"Fake",1,2,0,42,4.549
"1033",29,38,1,"Fake",1,5,1,43,4.826
"1034",29,49,1,"Real",1,2,1,44,4.116
"1035",29,46,1,"Real",1,3,NA,45,5.108
"1036",29,21,1,"Real",1,4,0,46,7.139
"1037",29,39,1,"Fake",1,3,0,47,12.558
"1038",29,35,1,"Fake",1,4,1,48,3.15
"1039",29,6,1,"Real",1,3,NA,49,7.189
"1040",29,36,1,"Real",1,3,NA,50,6.526
"1041",29,23,1,"Real",1,4,NA,51,4.801
"1042",29,42,1,"Fake",1,5,0,52,5.365
"1043",29,17,1,"Fake",1,3,NA,53,4.233
"1044",29,45,1,"Real",1,4,0,54,5.836
"1045",29,34,1,"Fake",1,2,NA,55,7.1
"1046",29,48,1,"Fake",1,4,1,56,4.273
"1047",29,52,1,"Real",1,3,NA,57,4.162
"1048",29,24,1,"Fake",1,2,0,58,4.112
"1049",29,43,1,"Fake",1,4,1,59,2.497
"1050",29,50,1,"Fake",1,2,0,60,5.555
"1051",29,10,1,"Real",1,3,1,61,4.55
"1052",29,33,1,"Real",1,2,NA,62,3.757
"1053",29,11,1,"Fake",1,3,NA,63,3.652
"1054",29,27,1,"Fake",1,4,1,64,3.366
"1055",29,8,1,"Real",1,4,1,65,2.829
"1056",29,28,1,"Fake",1,4,1,66,2.867
"1057",29,41,1,"Real",1,3,0,67,10.261
"1058",29,29,1,"Fake",1,4,0,68,5.942
"1059",29,53,1,"Fake",1,4,1,69,2.971
"1060",29,31,1,"Fake",1,3,0,70,4.562
"1061",29,22,1,"Real",1,3,0,71,10.296
"1062",29,26,1,"Real",1,4,1,72,2.934
"1063",29,20,1,"Real",1,2,NA,73,3.887
"1064",29,37,1,"Real",1,4,1,74,4.944
"1065",29,15,1,"Real",1,3,0,75,5.991
"1066",29,44,1,"Fake",1,3,0,76,9.76
"1067",29,14,1,"Real",1,4,1,77,5.318
"1068",29,18,1,"Fake",1,3,NA,78,4.29
"1069",29,13,1,"Real",1,4,1,79,2.668
"1070",29,2,1,"Fake",1,2,NA,80,4.744
"1071",29,3,1,"Fake",1,4,1,81,4.022
"1072",29,54,1,"Real",1,3,0,82,5.466
"1073",29,1,1,"Real",1,3,0,83,6.656
"1074",29,47,1,"Fake",1,1,NA,84,3.607
"1075",29,7,1,"Real",1,2,0,85,3.821
"1076",29,19,1,"Fake",1,2,NA,86,4.048
"1077",29,30,1,"Real",1,3,NA,87,3.956
"1078",29,40,1,"Fake",1,4,NA,88,4.586
"1079",29,12,1,"Real",1,2,1,89,4.149
"1080",29,4,1,"Real",1,4,1,90,6.412
"1081",3,35,1,"Real",1,5,1,37,10.864
"1082",3,38,1,"Real",1,5,1,38,6.977
"1083",3,36,1,"Fake",1,4,0,39,7.448
"1084",3,47,1,"Fake",1,3,1,40,17.325
"1085",3,51,1,"Fake",1,4,1,41,12.544
"1086",3,29,1,"Real",1,5,0,42,11.707
"1087",3,39,1,"Real",1,3,0,43,13.159
"1088",3,21,1,"Real",1,6,NA,44,7.231
"1089",3,53,1,"Real",1,6,1,45,4.621
"1090",3,11,1,"Fake",1,1,1,46,6.694
"1091",3,34,1,"Fake",1,5,1,47,4.986
"1092",3,32,1,"Real",1,6,0,48,9.045
"1093",3,20,1,"Fake",1,1,0,49,10.102
"1094",3,48,1,"Real",1,3,1,50,8.87
"1095",3,42,1,"Real",1,4,0,51,9.752
"1096",3,33,1,"Fake",1,1,0,52,6.878
"1097",3,17,1,"Fake",1,4,1,53,4.353
"1098",3,24,1,"Real",1,3,0,54,16.429
"1099",3,1,1,"Real",1,5,NA,55,10.607
"1100",3,22,1,"Real",1,5,NA,56,13.072
"1101",3,7,1,"Real",1,6,NA,57,5.732
"1102",3,27,1,"Real",1,2,1,58,15.792
"1103",3,43,1,"Real",1,3,1,59,4.005
"1104",3,13,1,"Fake",1,5,NA,60,11.288
"1105",3,4,1,"Fake",1,2,NA,61,7.765
"1106",3,15,1,"Real",1,5,NA,62,7.485
"1107",3,50,1,"Real",1,4,0,63,6.656
"1108",3,44,1,"Real",1,2,0,64,6.373
"1109",3,12,1,"Fake",1,1,NA,65,15.166
"1110",3,5,1,"Fake",1,1,0,66,9.843
"1111",3,28,1,"Real",1,5,1,67,7.588
"1112",3,41,1,"Real",1,3,NA,68,8.492
"1113",3,37,1,"Fake",1,2,NA,69,9.573
"1114",3,25,1,"Real",1,4,0,70,6.026
"1115",3,6,1,"Fake",1,5,0,71,5.497
"1116",3,14,1,"Fake",1,5,NA,72,10.286
"1117",3,54,1,"Real",1,4,NA,73,9.773
"1118",3,19,1,"Fake",1,2,1,74,7.21
"1119",3,9,1,"Real",1,6,1,75,4.689
"1120",3,40,1,"Fake",1,4,1,76,4.144
"1121",3,45,1,"Real",1,5,NA,77,7.412
"1122",3,30,1,"Fake",1,4,0,78,7.683
"1123",3,46,1,"Fake",1,1,0,79,8.501
"1124",3,3,1,"Real",1,6,1,80,13.559
"1125",3,49,1,"Fake",1,3,NA,81,7.189
"1126",3,2,1,"Fake",1,3,1,82,9.541
"1127",3,31,1,"Real",1,4,0,83,7.355
"1128",3,18,1,"Fake",1,3,1,84,5.163
"1129",3,52,1,"Fake",1,4,0,85,11.669
"1130",3,8,1,"Fake",1,4,NA,86,6.821
"1131",3,10,1,"Fake",1,3,NA,87,7.707
"1132",3,26,1,"Fake",1,4,NA,88,4.987
"1133",3,16,1,"Real",1,4,NA,89,4.999
"1134",3,23,1,"Fake",1,2,0,90,6.057
"1135",30,53,1,"Real",1,2,0,37,13.439
"1136",30,49,1,"Fake",1,5,1,38,15.579
"1137",30,9,1,"Real",1,2,0,39,9.473
"1138",30,35,1,"Real",1,2,0,40,8.857
"1139",30,20,1,"Fake",1,1,NA,41,8.508
"1140",30,47,1,"Real",1,2,NA,42,10.364
"1141",30,8,1,"Fake",1,2,1,43,12.104
"1142",30,4,1,"Fake",1,6,1,44,2.956
"1143",30,16,1,"Fake",1,1,0,45,2.408
"1144",30,12,1,"Fake",1,5,1,46,4.388
"1145",30,52,1,"Fake",1,4,NA,47,8.792
"1146",30,50,1,"Real",1,4,1,48,5.052
"1147",30,34,1,"Real",1,2,NA,49,5.653
"1148",30,11,1,"Real",1,5,NA,50,11.563
"1149",30,46,1,"Fake",1,2,NA,51,8.59
"1150",30,22,1,"Fake",1,5,0,52,6.267
"1151",30,29,1,"Real",1,2,1,53,4.922
"1152",30,36,1,"Fake",1,3,NA,54,6.263
"1153",30,3,1,"Real",1,3,0,55,5.828
"1154",30,17,1,"Real",1,4,NA,56,4.763
"1155",30,15,1,"Fake",1,5,0,57,8.231
"1156",30,30,1,"Fake",1,4,NA,58,8.075
"1157",30,25,1,"Real",1,5,1,59,12.477
"1158",30,37,1,"Fake",1,3,1,60,5.515
"1159",30,31,1,"Real",1,5,1,61,14.039
"1160",30,54,1,"Fake",1,4,0,62,10.339
"1161",30,33,1,"Fake",1,2,NA,63,6.64
"1162",30,7,1,"Fake",1,2,0,64,5.439
"1163",30,43,1,"Real",1,6,0,65,4.248
"1164",30,13,1,"Fake",1,2,1,66,7.04
"1165",30,14,1,"Fake",1,3,1,67,9.317
"1166",30,51,1,"Real",1,3,NA,68,10.021
"1167",30,23,1,"Fake",1,3,NA,69,4.304
"1168",30,19,1,"Real",1,3,NA,70,7.853
"1169",30,5,1,"Fake",1,2,NA,71,8.225
"1170",30,26,1,"Fake",1,4,1,72,5.701
"1171",30,24,1,"Real",1,3,1,73,9.074
"1172",30,10,1,"Fake",1,3,1,74,4.468
"1173",30,2,1,"Real",1,2,NA,75,5.523
"1174",30,18,1,"Real",1,1,NA,76,7.607
"1175",30,42,1,"Real",1,3,1,77,5.398
"1176",30,40,1,"Real",1,3,NA,78,5.23
"1177",30,39,1,"Real",1,4,1,79,5.032
"1178",30,48,1,"Real",1,2,0,80,4.489
"1179",30,1,1,"Fake",1,2,0,81,7.047
"1180",30,38,1,"Real",1,6,0,82,3.132
"1181",30,28,1,"Real",1,3,0,83,13.035
"1182",30,44,1,"Real",1,3,1,84,4.186
"1183",30,27,1,"Real",1,2,0,85,3.67
"1184",30,21,1,"Fake",1,5,0,86,6.254
"1185",30,41,1,"Fake",1,2,0,87,9.651
"1186",30,32,1,"Real",1,3,1,88,5.748
"1187",30,45,1,"Fake",1,2,0,89,9.24
"1188",30,6,1,"Fake",1,1,NA,90,3.763
"1189",31,26,1,"Fake",1,4,0,37,10.334
"1190",31,7,1,"Real",1,3,1,38,10.943
"1191",31,34,1,"Real",1,1,0,39,13.866
"1192",31,5,1,"Fake",1,5,1,40,4.209
"1193",31,43,1,"Fake",1,2,NA,41,5.106
"1194",31,8,1,"Fake",1,2,0,42,6.581
"1195",31,27,1,"Fake",1,5,NA,43,5.09
"1196",31,41,1,"Real",1,4,1,44,3.799
"1197",31,12,1,"Fake",1,4,0,45,8.585
"1198",31,2,1,"Real",1,1,0,46,7.022
"1199",31,16,1,"Real",1,2,1,47,6.113
"1200",31,35,1,"Fake",1,3,NA,48,12.65
"1201",31,44,1,"Real",1,2,NA,49,2.725
"1202",31,21,1,"Real",1,5,1,50,3.642
"1203",31,28,1,"Fake",1,4,NA,51,14.137
"1204",31,48,1,"Fake",1,4,NA,52,3.838
"1205",31,30,1,"Fake",1,4,1,53,5.807
"1206",31,45,1,"Real",1,4,1,54,7.735
"1207",31,17,1,"Real",1,3,0,55,5.102
"1208",31,25,1,"Real",1,2,NA,56,4.538
"1209",31,9,1,"Fake",1,2,NA,57,6.247
"1210",31,50,1,"Real",1,1,NA,58,6.52
"1211",31,15,1,"Real",1,4,1,59,4.49
"1212",31,14,1,"Fake",1,5,0,60,7.487
"1213",31,6,1,"Fake",1,5,1,61,5.369
"1214",31,1,1,"Real",1,4,1,62,3.713
"1215",31,40,1,"Real",1,3,0,63,5.768
"1216",31,51,1,"Real",1,3,0,64,5.815
"1217",31,3,1,"Fake",1,3,NA,65,3.143
"1218",31,42,1,"Real",1,5,NA,66,7.155
"1219",31,37,1,"Fake",1,4,0,67,8.042
"1220",31,29,1,"Real",1,2,NA,68,6.132
"1221",31,36,1,"Fake",1,4,1,69,5.038
"1222",31,10,1,"Fake",1,3,0,70,4.077
"1223",31,38,1,"Fake",1,3,NA,71,3.267
"1224",31,11,1,"Real",1,1,0,72,3.916
"1225",31,22,1,"Real",1,4,1,73,8.432
"1226",31,13,1,"Fake",1,1,0,74,5.194
"1227",31,49,1,"Fake",1,3,0,75,8.241
"1228",31,32,1,"Real",1,3,NA,76,7.779
"1229",31,19,1,"Real",1,4,0,77,3.385
"1230",31,46,1,"Fake",1,5,1,78,4.556
"1231",31,23,1,"Fake",1,4,1,79,3.24
"1232",31,4,1,"Fake",1,4,0,80,5.896
"1233",31,24,1,"Real",1,4,NA,81,4.899
"1234",31,47,1,"Real",1,4,0,82,5.916
"1235",31,54,1,"Real",1,4,1,83,4.128
"1236",31,53,1,"Fake",1,4,NA,84,3.63
"1237",31,31,1,"Real",1,3,NA,85,7.381
"1238",31,18,1,"Real",1,6,0,86,3.612
"1239",31,20,1,"Fake",1,5,1,87,7.295
"1240",31,52,1,"Fake",1,5,1,88,2.392
"1241",31,33,1,"Fake",1,3,1,89,4.069
"1242",31,39,1,"Real",1,4,NA,90,4.355
"1243",32,34,1,"Real",1,3,1,37,10.133
"1244",32,13,1,"Real",1,2,NA,38,7.033
"1245",32,24,1,"Fake",1,2,NA,39,9.588
"1246",32,16,1,"Fake",1,4,1,40,2.879
"1247",32,46,1,"Real",1,2,0,41,6.164
"1248",32,30,1,"Real",1,2,0,42,4.06
"1249",32,52,1,"Real",1,4,0,43,4.931
"1250",32,42,1,"Fake",1,3,NA,44,2.603
"1251",32,19,1,"Real",1,4,1,45,5.782
"1252",32,43,1,"Fake",1,2,0,46,3.703
"1253",32,40,1,"Real",1,4,1,47,4.709
"1254",32,54,1,"Fake",1,4,1,48,8.04
"1255",32,23,1,"Real",1,4,0,49,5.906
"1256",32,5,1,"Real",1,3,0,50,3.994
"1257",32,8,1,"Real",1,4,NA,51,2.589
"1258",32,45,1,"Fake",1,4,1,52,3.319
"1259",32,18,1,"Real",1,4,1,53,2.3
"1260",32,1,1,"Fake",1,4,1,54,3.938
"1261",32,26,1,"Real",1,3,NA,55,2.868
"1262",32,33,1,"Real",1,3,0,56,3.052
"1263",32,51,1,"Real",1,4,1,57,2.726
"1264",32,47,1,"Real",1,4,1,58,2.212
"1265",32,20,1,"Real",1,2,0,59,2.56
"1266",32,48,1,"Fake",1,4,0,60,4.939
"1267",32,17,1,"Real",1,4,1,61,4.631
"1268",32,12,1,"Real",1,2,NA,62,3.526
"1269",32,49,1,"Real",1,2,NA,63,2.482
"1270",32,39,1,"Fake",1,2,NA,64,4.547
"1271",32,25,1,"Fake",1,3,NA,65,4.756
"1272",32,50,1,"Fake",1,4,NA,66,2.557
"1273",32,37,1,"Real",1,3,NA,67,3.442
"1274",32,2,1,"Real",1,3,1,68,2.483
"1275",32,35,1,"Fake",1,4,0,69,4.043
"1276",32,27,1,"Fake",1,3,0,70,3.955
"1277",32,22,1,"Fake",1,4,1,71,2.144
"1278",32,14,1,"Real",1,2,NA,72,2.894
"1279",32,15,1,"Fake",1,4,1,73,2.548
"1280",32,31,1,"Fake",1,2,NA,74,2.752
"1281",32,11,1,"Real",1,2,1,75,1.837
"1282",32,36,1,"Real",1,2,0,76,5.113
"1283",32,28,1,"Fake",1,4,0,77,2.933
"1284",32,32,1,"Fake",1,2,NA,78,3.721
"1285",32,41,1,"Fake",1,3,1,79,2.238
"1286",32,53,1,"Fake",1,4,0,80,7.48
"1287",32,38,1,"Fake",1,2,0,81,6.697
"1288",32,7,1,"Fake",1,3,1,82,2.173
"1289",32,10,1,"Real",1,2,NA,83,3.618
"1290",32,29,1,"Fake",1,4,NA,84,5.665
"1291",32,6,1,"Real",1,4,0,85,5.934
"1292",32,3,1,"Fake",1,3,0,86,4.8
"1293",32,4,1,"Real",1,2,NA,87,4.824
"1294",32,21,1,"Fake",1,3,1,88,4.096
"1295",32,9,1,"Fake",1,3,0,89,2.525
"1296",32,44,1,"Fake",1,3,NA,90,3.043
"1297",33,50,1,"Real",1,3,0,37,16.8
"1298",33,12,1,"Fake",1,5,NA,38,5.8
"1299",33,22,1,"Real",1,6,NA,39,12.262
"1300",33,37,1,"Fake",1,6,NA,40,7.049
"1301",33,39,1,"Real",1,6,0,41,7.132
"1302",33,10,1,"Fake",1,2,NA,42,11.587
"1303",33,51,1,"Fake",1,5,1,43,7.05
"1304",33,45,1,"Real",1,5,NA,44,3.797
"1305",33,28,1,"Real",1,5,1,45,3.614
"1306",33,42,1,"Real",1,5,0,46,4.102
"1307",33,2,1,"Fake",1,3,1,47,2.33
"1308",33,53,1,"Real",1,4,1,48,2.663
"1309",33,11,1,"Fake",1,2,1,49,3.941
"1310",33,21,1,"Real",1,1,NA,50,3.057
"1311",33,31,1,"Real",1,2,0,51,6.73
"1312",33,6,1,"Fake",1,3,0,52,5.905
"1313",33,35,1,"Real",1,4,1,53,10.7
"1314",33,36,1,"Fake",1,5,0,54,6.353
"1315",33,20,1,"Fake",1,4,0,55,4.626
"1316",33,7,1,"Real",1,5,NA,56,2.441
"1317",33,15,1,"Real",1,5,NA,57,5.001
"1318",33,29,1,"Real",1,5,0,58,7.391
"1319",33,4,1,"Fake",1,3,NA,59,12.643
"1320",33,27,1,"Real",1,4,1,60,5.585
"1321",33,43,1,"Real",1,1,1,61,6.808
"1322",33,44,1,"Real",1,4,0,62,6.839
"1323",33,14,1,"Fake",1,4,NA,63,10.788
"1324",33,52,1,"Fake",1,5,0,64,26.1
"1325",33,34,1,"Fake",1,4,1,65,6.1
"1326",33,47,1,"Fake",1,4,1,66,4.463
"1327",33,48,1,"Real",1,4,1,67,4.032
"1328",33,23,1,"Fake",1,4,0,68,6.661
"1329",33,46,1,"Fake",1,4,0,69,7.721
"1330",33,13,1,"Fake",1,5,NA,70,3.543
"1331",33,19,1,"Fake",1,5,1,71,2.755
"1332",33,5,1,"Fake",1,2,0,72,3.824
"1333",33,25,1,"Real",1,4,0,73,3.714
"1334",33,24,1,"Real",1,2,0,74,4.471
"1335",33,8,1,"Fake",1,4,NA,75,4.422
"1336",33,26,1,"Fake",1,3,NA,76,8.755
"1337",33,38,1,"Real",1,3,1,77,2.952
"1338",33,30,1,"Fake",1,5,0,78,3.367
"1339",33,49,1,"Fake",1,2,NA,79,6.665
"1340",33,32,1,"Real",1,2,0,80,9.684
"1341",33,16,1,"Real",1,3,NA,81,2.115
"1342",33,3,1,"Real",1,4,1,82,12.282
"1343",33,40,1,"Fake",1,4,1,83,3.501
"1344",33,9,1,"Real",1,4,1,84,6.339
"1345",33,54,1,"Real",1,5,NA,85,4.773
"1346",33,1,1,"Real",1,3,NA,86,3.926
"1347",33,18,1,"Fake",1,3,1,87,4.531
"1348",33,17,1,"Fake",1,4,1,88,2.615
"1349",33,33,1,"Fake",1,4,0,89,3.785
"1350",33,41,1,"Real",1,5,NA,90,11.324
"1351",34,52,1,"Fake",1,3,0,37,7.352
"1352",34,49,1,"Fake",1,5,NA,38,10.055
"1353",34,21,1,"Real",1,6,NA,39,6.031
"1354",34,30,1,"Fake",1,2,0,40,6.325
"1355",34,4,1,"Fake",1,1,NA,41,4.399
"1356",34,25,1,"Real",1,6,0,42,7.912
"1357",34,8,1,"Fake",1,3,NA,43,3.945
"1358",34,2,1,"Fake",1,1,1,44,14.078
"1359",34,23,1,"Fake",1,1,0,45,11.319
"1360",34,22,1,"Real",1,3,NA,46,10.873
"1361",34,48,1,"Real",1,3,1,47,4.054
"1362",34,10,1,"Fake",1,6,NA,48,7.408
"1363",34,40,1,"Fake",1,1,1,49,20.885
"1364",34,29,1,"Real",1,2,0,50,8.875
"1365",34,27,1,"Real",1,3,1,51,3.595
"1366",34,36,1,"Fake",1,6,0,52,8.47
"1367",34,13,1,"Fake",1,1,NA,53,1.328
"1368",34,34,1,"Fake",1,6,1,54,5.41
"1369",34,12,1,"Fake",1,6,NA,55,6.348
"1370",34,46,1,"Fake",1,2,0,56,7.556
"1371",34,53,1,"Real",1,6,1,57,6.435
"1372",34,26,1,"Fake",1,1,NA,58,8.736
"1373",34,54,1,"Real",1,4,NA,59,6.623
"1374",34,7,1,"Real",1,3,NA,60,2.237
"1375",34,16,1,"Real",1,1,NA,61,12.785
"1376",34,14,1,"Fake",1,1,NA,62,8.984
"1377",34,19,1,"Fake",1,3,1,63,0.567
"1378",34,41,1,"Real",1,3,NA,64,4.073
"1379",34,42,1,"Real",1,1,0,65,4.096
"1380",34,43,1,"Real",1,1,1,66,5.632
"1381",34,45,1,"Real",1,2,NA,67,9.857
"1382",34,50,1,"Real",1,4,0,68,6.352
"1383",34,5,1,"Fake",1,1,0,69,5.057
"1384",34,47,1,"Fake",1,3,1,70,4.224
"1385",34,38,1,"Real",1,1,1,71,4.818
"1386",34,51,1,"Fake",1,2,1,72,8.892
"1387",34,37,1,"Fake",1,3,NA,73,6.596
"1388",34,3,1,"Real",1,3,1,74,5.355
"1389",34,31,1,"Real",1,6,0,75,9.503
"1390",34,17,1,"Fake",1,6,1,76,4.518
"1391",34,28,1,"Real",1,6,1,77,3.715
"1392",34,44,1,"Real",1,6,0,78,6.379
"1393",34,18,1,"Fake",1,5,1,79,4.732
"1394",34,32,1,"Real",1,3,0,80,5.783
"1395",34,33,1,"Fake",1,3,0,81,5.641
"1396",34,24,1,"Real",1,6,0,82,2.256
"1397",34,6,1,"Fake",1,6,0,83,7.443
"1398",34,11,1,"Fake",1,4,1,84,3.28
"1399",34,39,1,"Real",1,3,0,85,4.561
"1400",34,9,1,"Real",1,5,1,86,5.164
"1401",34,1,1,"Real",1,3,NA,87,3.543
"1402",34,15,1,"Real",1,6,NA,88,3.885
"1403",34,20,1,"Fake",1,4,0,89,2.534
"1404",34,35,1,"Real",1,4,1,90,3.678
"1405",36,11,1,"Real",1,2,1,37,6.114
"1406",36,47,1,"Real",1,3,1,38,6.621
"1407",36,5,1,"Real",1,1,0,39,5.892
"1408",36,2,1,"Real",1,4,1,40,4.81
"1409",36,37,1,"Real",1,4,NA,41,10.709
"1410",36,3,1,"Fake",1,3,0,42,17.001
"1411",36,52,1,"Real",1,4,0,43,10.24
"1412",36,38,1,"Fake",1,2,0,44,14.281
"1413",36,48,1,"Fake",1,4,0,45,7.81
"1414",36,45,1,"Fake",1,4,1,46,12.934
"1415",36,46,1,"Real",1,4,0,47,11.248
"1416",36,51,1,"Real",1,3,1,48,7.287
"1417",36,14,1,"Real",1,2,NA,49,12.106
"1418",36,8,1,"Real",1,3,NA,50,10.125
"1419",36,25,1,"Fake",1,2,NA,51,10.578
"1420",36,6,1,"Real",1,5,0,52,10.422
"1421",36,16,1,"Fake",1,3,1,53,6.909
"1422",36,49,1,"Real",1,3,NA,54,12.881
"1423",36,39,1,"Fake",1,5,NA,55,9.875
"1424",36,27,1,"Fake",1,4,0,56,14.003
"1425",36,36,1,"Real",1,3,0,57,6.416
"1426",36,13,1,"Real",1,5,NA,58,9.335
"1427",36,43,1,"Fake",1,2,0,59,4.573
"1428",36,30,1,"Real",1,4,0,60,5.657
"1429",36,7,1,"Fake",1,3,1,61,8.947
"1430",36,32,1,"Fake",1,2,NA,62,8.511
"1431",36,29,1,"Fake",1,2,NA,63,11.735
"1432",36,10,1,"Real",1,3,NA,64,11.785
"1433",36,9,1,"Fake",1,3,0,65,19.034
"1434",36,12,1,"Real",1,4,NA,66,5.269
"1435",36,19,1,"Real",1,4,1,67,6.717
"1436",36,40,1,"Real",1,4,1,68,7.376
"1437",36,26,1,"Real",1,5,NA,69,6.073
"1438",36,34,1,"Real",1,4,1,70,17.038
"1439",36,4,1,"Real",1,4,NA,71,6.325
"1440",36,22,1,"Fake",1,3,1,72,11.703
"1441",36,53,1,"Fake",1,4,0,73,9.668
"1442",36,21,1,"Fake",1,4,1,74,9.395
"1443",36,17,1,"Real",1,3,1,75,9.208
"1444",36,33,1,"Real",1,3,0,76,6.985
"1445",36,44,1,"Fake",1,4,NA,77,6.249
"1446",36,1,1,"Fake",1,5,1,78,7.015
"1447",36,42,1,"Fake",1,4,NA,79,3.134
"1448",36,50,1,"Fake",1,4,NA,80,6.95
"1449",36,23,1,"Real",1,2,0,81,11.159
"1450",36,15,1,"Fake",1,3,1,82,6.497
"1451",36,24,1,"Fake",1,4,NA,83,4.997
"1452",36,18,1,"Real",1,1,1,84,5.095
"1453",36,20,1,"Real",1,2,0,85,6.686
"1454",36,54,1,"Fake",1,3,1,86,10.931
"1455",36,31,1,"Fake",1,1,NA,87,12.326
"1456",36,28,1,"Fake",1,4,0,88,6.968
"1457",36,41,1,"Fake",1,1,1,89,12.098
"1458",36,35,1,"Fake",1,4,0,90,9.02
"1459",37,49,1,"Real",1,3,0,37,26.225
"1460",37,11,1,"Fake",1,5,0,38,10.509
"1461",37,12,1,"Real",1,2,0,39,22.234
"1462",37,43,1,"Real",1,1,NA,40,5.788
"1463",37,47,1,"Fake",1,1,0,41,13.708
"1464",37,16,1,"Fake",1,1,NA,42,10.926
"1465",37,23,1,"Real",1,4,1,43,18.17
"1466",37,35,1,"Real",1,1,NA,44,13.794
"1467",37,31,1,"Fake",1,5,1,45,6.728
"1468",37,21,1,"Fake",1,1,NA,46,5.363
"1469",37,1,1,"Fake",1,2,NA,47,9.004
"1470",37,13,1,"Real",1,5,0,48,6.969
"1471",37,5,1,"Real",1,2,1,49,8.544
"1472",37,19,1,"Fake",1,4,0,50,12.694
"1473",37,45,1,"Fake",1,4,NA,51,19.097
"1474",37,42,1,"Fake",1,2,1,52,8.021
"1475",37,44,1,"Fake",1,5,1,53,7.721
"1476",37,48,1,"Real",1,4,NA,54,35.481
"1477",37,41,1,"Fake",1,1,NA,55,12.568
"1478",37,33,1,"Real",1,2,1,56,12.343
"1479",37,37,1,"Real",1,2,0,57,10.931
"1480",37,50,1,"Fake",1,3,1,58,65.627
"1481",37,30,1,"Real",1,3,1,59,6.691
"1482",37,15,1,"Fake",1,2,NA,60,21.15
"1483",37,40,1,"Fake",1,3,0,61,29.532
"1484",37,53,1,"Real",1,2,NA,62,10.872
"1485",37,29,1,"Fake",1,2,1,63,16.934
"1486",37,25,1,"Fake",1,5,1,64,5.036
"1487",37,8,1,"Real",1,5,0,65,16.77
"1488",37,54,1,"Fake",1,5,NA,66,3.79
"1489",37,10,1,"Real",1,3,0,67,12.52
"1490",37,51,1,"Fake",1,6,0,68,12.37
"1491",37,2,1,"Fake",1,2,0,69,14.362
"1492",37,27,1,"Real",1,5,NA,70,8.017
"1493",37,3,1,"Real",1,4,NA,71,8.109
"1494",37,7,1,"Fake",1,3,NA,72,9.909
"1495",37,39,1,"Fake",1,1,1,73,6.653
"1496",37,32,1,"Fake",1,1,1,74,7.617
"1497",37,38,1,"Real",1,3,NA,75,6.582
"1498",37,22,1,"Fake",1,4,NA,76,15.87
"1499",37,46,1,"Real",1,5,1,77,6.798
"1500",37,28,1,"Real",1,4,NA,78,12.517
"1501",37,6,1,"Real",1,5,1,79,8.807
"1502",37,14,1,"Real",1,2,0,80,9.388
"1503",37,20,1,"Real",1,5,1,81,8.152
"1504",37,34,1,"Fake",1,2,0,82,14.775
"1505",37,4,1,"Real",1,2,0,83,11.635
"1506",37,9,1,"Real",1,6,NA,84,10.147
"1507",37,26,1,"Real",1,4,0,85,10.871
"1508",37,24,1,"Fake",1,5,1,86,5.239
"1509",37,17,1,"Fake",1,2,0,87,3.782
"1510",37,18,1,"Fake",1,5,0,88,7.058
"1511",37,52,1,"Real",1,4,1,89,6.951
"1512",37,36,1,"Real",1,3,1,90,11.247
"1513",38,46,1,"Real",1,3,0,37,9.828
"1514",38,1,1,"Fake",1,4,1,38,4.055
"1515",38,41,1,"Fake",1,4,1,39,5.993
"1516",38,4,1,"Real",1,4,NA,40,81.26
"1517",38,38,1,"Fake",1,2,0,41,12.709
"1518",38,24,1,"Fake",1,3,NA,42,12.784
"1519",38,12,1,"Real",1,3,NA,43,6.072
"1520",38,44,1,"Fake",1,4,NA,44,6.798
"1521",38,6,1,"Real",1,2,0,45,6.215
"1522",38,54,1,"Fake",1,2,1,46,4.823
"1523",38,8,1,"Real",1,4,NA,47,7.57
"1524",38,39,1,"Fake",1,3,NA,48,9.226
"1525",38,22,1,"Fake",1,5,1,49,6.677
"1526",38,10,1,"Real",1,4,NA,50,5.868
"1527",38,20,1,"Real",1,4,0,51,10.93
"1528",38,33,1,"Real",1,5,0,52,4.232
"1529",38,19,1,"Real",1,4,1,53,7.794
"1530",38,43,1,"Fake",1,2,0,54,3.561
"1531",38,26,1,"Real",1,2,NA,55,5.536
"1532",38,37,1,"Real",1,4,NA,56,4.821
"1533",38,7,1,"Fake",1,3,1,57,4.815
"1534",38,51,1,"Real",1,6,1,58,7.819
"1535",38,45,1,"Fake",1,4,1,59,5.943
"1536",38,42,1,"Fake",1,3,NA,60,17.46
"1537",38,49,1,"Real",1,1,NA,61,6.609
"1538",38,13,1,"Real",1,5,NA,62,4.953
"1539",38,5,1,"Real",1,3,0,63,7.734
"1540",38,27,1,"Fake",1,4,0,64,5.752
"1541",38,2,1,"Real",1,2,1,65,5.228
"1542",38,18,1,"Real",1,2,1,66,7.461
"1543",38,29,1,"Fake",1,4,NA,67,6.219
"1544",38,3,1,"Fake",1,3,0,68,14.275
"1545",38,35,1,"Fake",1,4,0,69,9.509
"1546",38,28,1,"Fake",1,5,0,70,4.101
"1547",38,50,1,"Fake",1,4,NA,71,5.541
"1548",38,23,1,"Real",1,4,0,72,9.361
"1549",38,47,1,"Real",1,4,1,73,3.095
"1550",38,14,1,"Real",1,5,NA,74,5.865
"1551",38,52,1,"Real",1,2,0,75,12.849
"1552",38,36,1,"Real",1,2,0,76,4.79
"1553",38,53,1,"Fake",1,5,0,77,9.259
"1554",38,31,1,"Fake",1,4,NA,78,3.956
"1555",38,40,1,"Real",1,4,1,79,4.018
"1556",38,34,1,"Real",1,3,1,80,4.703
"1557",38,16,1,"Fake",1,3,1,81,4.789
"1558",38,17,1,"Real",1,5,1,82,2.818
"1559",38,48,1,"Fake",1,4,0,83,7.119
"1560",38,11,1,"Real",1,3,1,84,8.025
"1561",38,25,1,"Fake",1,2,NA,85,7.023
"1562",38,32,1,"Fake",1,2,NA,86,4.638
"1563",38,9,1,"Fake",1,3,0,87,8.69
"1564",38,15,1,"Fake",1,4,1,88,3.449
"1565",38,21,1,"Fake",1,4,1,89,17.501
"1566",38,30,1,"Real",1,3,0,90,9.401
"1567",39,45,1,"Real",1,2,0,37,7.433
"1568",39,23,1,"Real",1,5,NA,38,4.478
"1569",39,6,1,"Real",1,5,NA,39,7.093
"1570",39,7,1,"Real",1,2,0,40,4.537
"1571",39,43,1,"Fake",1,2,1,41,5.583
"1572",39,10,1,"Real",1,5,1,42,4.929
"1573",39,49,1,"Real",1,2,1,43,5.223
"1574",39,34,1,"Fake",1,4,NA,44,4.6
"1575",39,1,1,"Real",1,4,0,45,6.035
"1576",39,47,1,"Fake",1,1,NA,46,5.187
"1577",39,37,1,"Real",1,3,1,47,5.844
"1578",39,9,1,"Fake",1,4,1,48,4.117
"1579",39,48,1,"Fake",1,4,1,49,3.939
"1580",39,30,1,"Real",1,1,NA,50,4.322
"1581",39,18,1,"Fake",1,1,NA,51,7.097
"1582",39,21,1,"Real",1,4,0,52,4.437
"1583",39,19,1,"Fake",1,2,NA,53,4.055
"1584",39,50,1,"Fake",1,3,0,54,8.031
"1585",39,35,1,"Fake",1,5,1,55,5.564
"1586",39,44,1,"Fake",1,5,0,56,7.351
"1587",39,40,1,"Fake",1,4,NA,57,6.881
"1588",39,42,1,"Fake",1,5,0,58,3.173
"1589",39,25,1,"Fake",1,5,0,59,4.82
"1590",39,33,1,"Real",1,2,NA,60,5.663
"1591",39,52,1,"Real",1,4,NA,61,3.046
"1592",39,54,1,"Real",1,5,0,62,4.273
"1593",39,14,1,"Real",1,3,1,63,4.066
"1594",39,24,1,"Fake",1,3,0,64,7.051
"1595",39,13,1,"Real",1,4,1,65,2.591
"1596",39,41,1,"Real",1,2,0,66,5.278
"1597",39,31,1,"Fake",1,2,0,67,4.356
"1598",39,8,1,"Real",1,4,1,68,3.539
"1599",39,2,1,"Fake",1,2,NA,69,3.722
"1600",39,15,1,"Real",1,3,0,70,3.961
"1601",39,27,1,"Fake",1,3,1,71,4.888
"1602",39,3,1,"Fake",1,3,1,72,4.399
"1603",39,17,1,"Fake",1,5,NA,73,4.202
"1604",39,53,1,"Fake",1,3,1,74,4.636
"1605",39,36,1,"Real",1,2,NA,75,6.223
"1606",39,12,1,"Real",1,4,1,76,4.764
"1607",39,39,1,"Fake",1,2,0,77,8.441
"1608",39,22,1,"Real",1,4,0,78,6.076
"1609",39,26,1,"Real",1,3,1,79,5.201
"1610",39,11,1,"Fake",1,1,NA,80,4.628
"1611",39,32,1,"Fake",1,3,0,81,5.389
"1612",39,4,1,"Real",1,4,1,82,4.055
"1613",39,46,1,"Real",1,4,NA,83,5.681
"1614",39,29,1,"Fake",1,3,0,84,5.502
"1615",39,5,1,"Real",1,2,NA,85,4.22
"1616",39,28,1,"Fake",1,4,1,86,3.672
"1617",39,38,1,"Fake",1,3,1,87,3.313
"1618",39,16,1,"Real",1,2,0,88,5.105
"1619",39,20,1,"Real",1,2,NA,89,3.359
"1620",39,51,1,"Fake",1,5,NA,90,3.247
"1621",4,10,1,"Fake",1,3,1,37,7.052
"1622",4,24,1,"Real",1,4,1,38,5.36
"1623",4,2,1,"Real",1,4,NA,39,6.674
"1624",4,15,1,"Fake",1,3,0,40,12.109
"1625",4,20,1,"Fake",1,2,NA,41,2.848
"1626",4,18,1,"Real",1,2,NA,42,7.011
"1627",4,48,1,"Real",1,3,0,43,6.04
"1628",4,43,1,"Real",1,3,0,44,4.967
"1629",4,47,1,"Real",1,3,NA,45,10.747
"1630",4,9,1,"Real",1,4,0,46,8.19
"1631",4,22,1,"Fake",1,3,0,47,8.411
"1632",4,52,1,"Fake",1,4,NA,48,7.878
"1633",4,53,1,"Real",1,3,0,49,10.401
"1634",4,23,1,"Fake",1,2,NA,50,8.722
"1635",4,45,1,"Fake",1,3,0,51,5.848
"1636",4,37,1,"Fake",1,4,1,52,7.381
"1637",4,27,1,"Real",1,1,0,53,5.235
"1638",4,26,1,"Fake",1,4,1,54,16.995
"1639",4,51,1,"Real",1,3,NA,55,7.298
"1640",4,49,1,"Fake",1,3,1,56,11.117
"1641",4,41,1,"Fake",1,2,0,57,6.657
"1642",4,11,1,"Real",1,3,NA,58,5.949
"1643",4,46,1,"Fake",1,2,NA,59,7.816
"1644",4,40,1,"Real",1,3,NA,60,7.245
"1645",4,36,1,"Fake",1,3,NA,61,6.425
"1646",4,19,1,"Real",1,3,NA,62,5.961
"1647",4,7,1,"Fake",1,2,0,63,4.763
"1648",4,38,1,"Real",1,3,0,64,7.207
"1649",4,1,1,"Fake",1,2,0,65,5.501
"1650",4,39,1,"Real",1,2,1,66,11.185
"1651",4,13,1,"Fake",1,4,1,67,5.769
"1652",4,33,1,"Fake",1,3,NA,68,6.419
"1653",4,54,1,"Fake",1,4,0,69,7.739
"1654",4,8,1,"Fake",1,3,1,70,17.655
"1655",4,16,1,"Fake",1,2,0,71,10.37
"1656",4,32,1,"Real",1,2,1,72,7.396
"1657",4,21,1,"Fake",1,2,0,73,6.49
"1658",4,31,1,"Real",1,1,1,74,6.847
"1659",4,50,1,"Real",1,2,1,75,7.165
"1660",4,29,1,"Real",1,3,1,76,3.061
"1661",4,6,1,"Fake",1,3,NA,77,6.327
"1662",4,34,1,"Real",1,3,NA,78,12.626
"1663",4,44,1,"Real",1,2,1,79,4.743
"1664",4,14,1,"Fake",1,4,1,80,5.099
"1665",4,35,1,"Real",1,4,0,81,11.72
"1666",4,42,1,"Real",1,4,1,82,3.916
"1667",4,17,1,"Real",1,2,NA,83,3.707
"1668",4,25,1,"Real",1,3,1,84,6.531
"1669",4,3,1,"Real",1,3,0,85,7.9
"1670",4,4,1,"Fake",1,3,1,86,5.735
"1671",4,5,1,"Fake",1,2,NA,87,10.969
"1672",4,30,1,"Fake",1,3,NA,88,5.387
"1673",4,28,1,"Real",1,3,0,89,12.165
"1674",4,12,1,"Fake",1,2,1,90,8.358
"1675",41,51,1,"Real",1,5,1,37,6.265
"1676",41,3,1,"Fake",1,3,0,38,8.086
"1677",41,52,1,"Real",1,2,0,39,4.409
"1678",41,6,1,"Real",1,5,0,40,9.971
"1679",41,33,1,"Real",1,3,0,41,8.799
"1680",41,8,1,"Real",1,3,NA,42,9.676
"1681",41,22,1,"Fake",1,5,1,43,7.957
"1682",41,5,1,"Real",1,4,0,44,6.756
"1683",41,17,1,"Real",1,2,1,45,3.662
"1684",41,48,1,"Fake",1,2,0,46,6.032
"1685",41,27,1,"Fake",1,6,0,47,6.35
"1686",41,40,1,"Real",1,3,1,48,5.85
"1687",41,47,1,"Real",1,4,1,49,5.84
"1688",41,37,1,"Real",1,5,NA,50,9.551
"1689",41,19,1,"Real",1,4,1,51,4.932
"1690",41,30,1,"Real",1,5,0,52,9.761
"1691",41,34,1,"Real",1,6,1,53,4.599
"1692",41,44,1,"Fake",1,2,NA,54,4.081
"1693",41,39,1,"Fake",1,2,NA,55,6.737
"1694",41,32,1,"Fake",1,2,NA,56,1.486
"1695",41,29,1,"Fake",1,4,NA,57,12.289
"1696",41,9,1,"Fake",1,1,0,58,6.341
"1697",41,54,1,"Fake",1,2,1,59,4.137
"1698",41,21,1,"Fake",1,3,1,60,7.157
"1699",41,7,1,"Fake",1,1,1,61,5.32
"1700",41,45,1,"Fake",1,2,1,62,5.557
"1701",41,18,1,"Real",1,5,1,63,3.646
"1702",41,20,1,"Real",1,4,0,64,8.36
"1703",41,31,1,"Fake",1,2,NA,65,7.127
"1704",41,35,1,"Fake",1,3,0,66,20.385
"1705",41,49,1,"Real",1,3,NA,67,8.751
"1706",41,53,1,"Fake",1,2,0,68,10.349
"1707",41,16,1,"Fake",1,3,1,69,8.058
"1708",41,41,1,"Fake",1,4,1,70,15.021
"1709",41,15,1,"Fake",1,4,1,71,10.424
"1710",41,26,1,"Real",1,4,NA,72,10.138
"1711",41,38,1,"Fake",1,2,0,73,5.471
"1712",41,23,1,"Real",1,2,0,74,8.462
"1713",41,12,1,"Real",1,5,NA,75,11.88
"1714",41,11,1,"Real",1,1,1,76,11.438
"1715",41,10,1,"Real",1,3,NA,77,14.436
"1716",41,43,1,"Fake",1,5,0,78,3.834
"1717",41,1,1,"Fake",1,5,1,79,5.908
"1718",41,36,1,"Real",1,5,0,80,6.105
"1719",41,2,1,"Real",1,5,1,81,5.132
"1720",41,14,1,"Real",1,5,NA,82,10.96
"1721",41,24,1,"Fake",1,3,NA,83,11.156
"1722",41,46,1,"Real",1,5,0,84,13.039
"1723",41,25,1,"Fake",1,2,NA,85,5.909
"1724",41,28,1,"Fake",1,3,0,86,11.049
"1725",41,42,1,"Fake",1,3,NA,87,7.385
"1726",41,13,1,"Real",1,4,NA,88,8.104
"1727",41,50,1,"Fake",1,2,NA,89,7.61
"1728",41,4,1,"Real",1,2,NA,90,6.368
"1729",42,42,1,"Real",1,6,1,37,13.334
"1730",42,6,1,"Fake",1,3,NA,38,12.549
"1731",42,14,1,"Fake",1,3,1,39,4.564
"1732",42,51,1,"Real",1,6,NA,40,5.982
"1733",42,17,1,"Real",1,4,NA,41,4.156
"1734",42,18,1,"Real",1,6,NA,42,4.513
"1735",42,45,1,"Fake",1,4,0,43,11.622
"1736",42,11,1,"Real",1,5,NA,44,9.527
"1737",42,23,1,"Fake",1,3,NA,45,7.546
"1738",42,4,1,"Fake",1,5,1,46,6.601
"1739",42,5,1,"Fake",1,2,NA,47,6.135
"1740",42,3,1,"Real",1,5,0,48,7.736
"1741",42,43,1,"Real",1,5,0,49,4.158
"1742",42,19,1,"Real",1,4,NA,50,6.005
"1743",42,47,1,"Real",1,5,NA,51,4.004
"1744",42,13,1,"Fake",1,3,1,52,4.279
"1745",42,16,1,"Fake",1,2,0,53,5.647
"1746",42,2,1,"Real",1,5,NA,54,4.927
"1747",42,39,1,"Real",1,5,1,55,7.852
"1748",42,37,1,"Fake",1,5,1,56,11
"1749",42,7,1,"Fake",1,4,0,57,10.652
"1750",42,33,1,"Fake",1,3,NA,58,8.385
"1751",42,36,1,"Fake",1,2,NA,59,4.526
"1752",42,31,1,"Real",1,6,1,60,6.195
"1753",42,15,1,"Fake",1,3,0,61,9.941
"1754",42,54,1,"Fake",1,3,0,62,9.026
"1755",42,40,1,"Real",1,4,NA,63,7.547
"1756",42,21,1,"Fake",1,2,0,64,4.964
"1757",42,52,1,"Fake",1,3,NA,65,5.798
"1758",42,35,1,"Real",1,5,0,66,5.648
"1759",42,48,1,"Real",1,5,0,67,12.439
"1760",42,30,1,"Fake",1,3,NA,68,4.716
"1761",42,26,1,"Fake",1,2,1,69,10.01
"1762",42,12,1,"Fake",1,2,1,70,5.828
"1763",42,1,1,"Fake",1,2,0,71,3.996
"1764",42,28,1,"Real",1,5,0,72,4.241
"1765",42,29,1,"Real",1,5,1,73,6.339
"1766",42,25,1,"Real",1,4,1,74,8.446
"1767",42,27,1,"Real",1,5,0,75,5.369
"1768",42,53,1,"Real",1,5,0,76,5.618
"1769",42,22,1,"Fake",1,4,0,77,9.019
"1770",42,44,1,"Real",1,5,1,78,3.735
"1771",42,50,1,"Real",1,5,1,79,4.101
"1772",42,41,1,"Fake",1,3,0,80,10.99
"1773",42,10,1,"Fake",1,3,1,81,4.934
"1774",42,49,1,"Fake",1,3,1,82,4.266
"1775",42,46,1,"Fake",1,2,NA,83,8.411
"1776",42,24,1,"Real",1,5,1,84,2.992
"1777",42,8,1,"Fake",1,3,1,85,4.78
"1778",42,9,1,"Real",1,5,0,86,5.025
"1779",42,32,1,"Real",1,4,1,87,5.354
"1780",42,34,1,"Real",1,6,NA,88,6.838
"1781",42,20,1,"Fake",1,2,NA,89,13.562
"1782",42,38,1,"Real",1,5,0,90,7.275
"1783",43,34,1,"Fake",1,3,1,37,6.565
"1784",43,42,1,"Real",1,3,0,38,5.079
"1785",43,21,1,"Real",1,2,NA,39,3.118
"1786",43,26,1,"Fake",1,4,NA,40,3.352
"1787",43,4,1,"Fake",1,2,NA,41,13.383
"1788",43,31,1,"Real",1,3,0,42,6.102
"1789",43,52,1,"Fake",1,3,0,43,4.315
"1790",43,7,1,"Real",1,3,NA,44,4.85
"1791",43,1,1,"Real",1,3,NA,45,9.532
"1792",43,23,1,"Fake",1,4,0,46,5.291
"1793",43,22,1,"Real",1,2,NA,47,5.642
"1794",43,9,1,"Real",1,4,1,48,4.051
"1795",43,6,1,"Fake",1,3,0,49,8.309
"1796",43,39,1,"Real",1,4,0,50,4.495
"1797",43,15,1,"Real",1,2,NA,51,3.599
"1798",43,20,1,"Fake",1,2,0,52,6.349
"1799",43,36,1,"Fake",1,5,0,53,3.152
"1800",43,27,1,"Real",1,4,1,54,3.881
"1801",43,11,1,"Fake",1,1,1,55,2.914
"1802",43,49,1,"Fake",1,2,NA,56,4.836
"1803",43,47,1,"Fake",1,4,1,57,2.741
"1804",43,40,1,"Fake",1,3,1,58,2.471
"1805",43,37,1,"Fake",1,4,NA,59,4.163
"1806",43,18,1,"Fake",1,6,1,60,2.592
"1807",43,3,1,"Real",1,4,1,61,3.952
"1808",43,5,1,"Fake",1,2,0,62,3.806
"1809",43,32,1,"Real",1,2,0,63,5.491
"1810",43,51,1,"Fake",1,5,1,64,4.746
"1811",43,43,1,"Real",1,2,1,65,2.456
"1812",43,44,1,"Real",1,2,0,66,4.845
"1813",43,46,1,"Fake",1,4,0,67,4.815
"1814",43,24,1,"Real",1,4,0,68,5.201
"1815",43,16,1,"Real",1,5,NA,69,4.564
"1816",43,35,1,"Real",1,4,1,70,4.488
"1817",43,14,1,"Fake",1,2,NA,71,6.689
"1818",43,28,1,"Real",1,5,1,72,2.766
"1819",43,17,1,"Fake",1,4,1,73,7.077
"1820",43,33,1,"Fake",1,4,0,74,3.882
"1821",43,29,1,"Real",1,3,0,75,4.852
"1822",43,50,1,"Real",1,4,0,76,4.877
"1823",43,25,1,"Real",1,4,0,77,6.461
"1824",43,45,1,"Real",1,2,NA,78,5.628
"1825",43,54,1,"Real",1,2,NA,79,4.709
"1826",43,41,1,"Real",1,1,NA,80,5.02
"1827",43,10,1,"Fake",1,3,NA,81,6.526
"1828",43,53,1,"Real",1,5,1,82,4.41
"1829",43,13,1,"Fake",1,4,NA,83,3.51
"1830",43,30,1,"Fake",1,4,0,84,3.927
"1831",43,38,1,"Real",1,3,1,85,3.879
"1832",43,2,1,"Fake",1,2,1,86,4.768
"1833",43,8,1,"Fake",1,3,NA,87,4.549
"1834",43,19,1,"Fake",1,3,1,88,2.291
"1835",43,12,1,"Fake",1,3,NA,89,4.006
"1836",43,48,1,"Real",1,4,1,90,2.555
"1837",44,7,1,"Real",1,3,0,37,6.299
"1838",44,23,1,"Real",1,2,NA,38,6.71
"1839",44,48,1,"Fake",1,4,1,39,5.896
"1840",44,5,1,"Real",1,1,NA,40,3.709
"1841",44,29,1,"Fake",1,4,0,41,8.834
"1842",44,17,1,"Fake",1,5,NA,42,3.86
"1843",44,14,1,"Real",1,2,1,43,2.958
"1844",44,16,1,"Real",1,3,0,44,10.147
"1845",44,19,1,"Fake",1,2,NA,45,2.239
"1846",44,49,1,"Real",1,3,1,46,4.322
"1847",44,13,1,"Real",1,4,1,47,2.933
"1848",44,47,1,"Fake",1,3,NA,48,3.298
"1849",44,32,1,"Fake",1,2,0,49,4.688
"1850",44,4,1,"Real",1,4,1,50,5.429
"1851",44,28,1,"Fake",1,4,1,51,4.812
"1852",44,53,1,"Fake",1,4,1,52,6.366
"1853",44,34,1,"Fake",1,2,NA,53,3.67
"1854",44,26,1,"Real",1,3,1,54,4.492
"1855",44,8,1,"Real",1,4,1,55,2.299
"1856",44,43,1,"Fake",1,5,1,56,2.801
"1857",44,39,1,"Fake",1,2,0,57,2.956
"1858",44,24,1,"Fake",1,5,0,58,7.392
"1859",44,37,1,"Real",1,3,1,59,4.439
"1860",44,46,1,"Real",1,4,NA,60,3.974
"1861",44,52,1,"Real",1,2,NA,61,2.929
"1862",44,35,1,"Fake",1,4,1,62,3.246
"1863",44,27,1,"Fake",1,4,1,63,3.487
"1864",44,18,1,"Fake",1,5,NA,64,3.592
"1865",44,40,1,"Fake",1,4,NA,65,4.282
"1866",44,10,1,"Real",1,2,1,66,3.473
"1867",44,9,1,"Fake",1,4,1,67,2.016
"1868",44,45,1,"Real",1,3,0,68,6.139
"1869",44,1,1,"Real",1,4,0,69,3.855
"1870",44,21,1,"Real",1,4,0,70,4.205
"1871",44,31,1,"Fake",1,3,0,71,7.408
"1872",44,20,1,"Real",1,2,NA,72,3.102
"1873",44,38,1,"Fake",1,4,1,73,3.086
"1874",44,22,1,"Real",1,2,0,74,11.628
"1875",44,44,1,"Fake",1,3,0,75,4.074
"1876",44,54,1,"Real",1,3,0,76,2.922
"1877",44,33,1,"Real",1,2,NA,77,3.097
"1878",44,2,1,"Fake",1,1,NA,78,4.88
"1879",44,51,1,"Fake",1,1,NA,79,7.349
"1880",44,41,1,"Real",1,4,0,80,6.733
"1881",44,11,1,"Fake",1,4,NA,81,3.423
"1882",44,50,1,"Fake",1,2,0,82,4.934
"1883",44,36,1,"Real",1,3,NA,83,3.379
"1884",44,30,1,"Real",1,3,NA,84,3.736
"1885",44,12,1,"Real",1,2,1,85,4.309
"1886",44,25,1,"Fake",1,3,0,86,5.699
"1887",44,6,1,"Real",1,2,NA,87,3.518
"1888",44,3,1,"Fake",1,1,1,88,3.589
"1889",44,15,1,"Real",1,1,0,89,3.52
"1890",44,42,1,"Fake",1,4,0,90,2.535
"1891",45,28,1,"Fake",1,4,NA,37,9.891
"1892",45,51,1,"Real",1,1,0,38,20.546
"1893",45,39,1,"Real",1,4,NA,39,6.895
"1894",45,19,1,"Real",1,5,0,40,3.443
"1895",45,16,1,"Real",1,2,1,41,3.768
"1896",45,31,1,"Real",1,2,NA,42,4.982
"1897",45,35,1,"Fake",1,1,NA,43,9.058
"1898",45,46,1,"Fake",1,4,1,44,5.851
"1899",45,15,1,"Real",1,6,1,45,3.427
"1900",45,48,1,"Fake",1,3,NA,46,7.727
"1901",45,2,1,"Real",1,4,0,47,5.05
"1902",45,6,1,"Fake",1,5,1,48,6.681
"1903",45,21,1,"Real",1,6,1,49,3.792
"1904",45,30,1,"Fake",1,2,1,50,3.757
"1905",45,47,1,"Real",1,2,0,51,4.804
"1906",45,44,1,"Real",1,4,NA,52,6.67
"1907",45,33,1,"Fake",1,1,1,53,3.7
"1908",45,18,1,"Real",1,3,0,54,5.47
"1909",45,53,1,"Fake",1,1,NA,55,4.973
"1910",45,54,1,"Real",1,6,1,56,3.464
"1911",45,37,1,"Fake",1,4,0,57,6.939
"1912",45,17,1,"Real",1,2,0,58,4.165
"1913",45,5,1,"Fake",1,1,1,59,2.714
"1914",45,11,1,"Real",1,2,0,60,5.74
"1915",45,32,1,"Real",1,1,NA,61,8.882
"1916",45,29,1,"Real",1,1,NA,62,4.444
"1917",45,1,1,"Real",1,4,1,63,4.621
"1918",45,50,1,"Real",1,4,NA,64,5.784
"1919",45,38,1,"Fake",1,1,NA,65,6.083
"1920",45,45,1,"Real",1,1,1,66,6.648
"1921",45,42,1,"Real",1,1,NA,67,3.776
"1922",45,27,1,"Fake",1,6,NA,68,6.503
"1923",45,14,1,"Fake",1,2,0,69,5.907
"1924",45,41,1,"Real",1,3,1,70,7.92
"1925",45,40,1,"Real",1,4,0,71,5.818
"1926",45,36,1,"Fake",1,3,1,72,5.283
"1927",45,13,1,"Fake",1,4,0,73,5.099
"1928",45,24,1,"Real",1,4,NA,74,2.801
"1929",45,23,1,"Fake",1,5,1,75,5.712
"1930",45,3,1,"Fake",1,4,NA,76,8.636
"1931",45,52,1,"Fake",1,4,1,77,3.4
"1932",45,4,1,"Fake",1,3,0,78,7.878
"1933",45,7,1,"Real",1,5,1,79,6.338
"1934",45,34,1,"Real",1,6,0,80,8.741
"1935",45,22,1,"Real",1,6,1,81,35.973
"1936",45,49,1,"Fake",1,4,0,82,7.361
"1937",45,9,1,"Fake",1,2,NA,83,4.682
"1938",45,10,1,"Fake",1,3,0,84,5.938
"1939",45,25,1,"Real",1,1,NA,85,5.782
"1940",45,43,1,"Fake",1,1,NA,86,5.93
"1941",45,12,1,"Fake",1,1,0,87,7.879
"1942",45,20,1,"Fake",1,4,1,88,3.938
"1943",45,8,1,"Fake",1,3,0,89,9.329
"1944",45,26,1,"Fake",1,5,0,90,6.793
"1945",46,35,1,"Fake",1,5,1,37,7.011
"1946",46,15,1,"Real",1,4,0,38,12.945
"1947",46,33,1,"Real",1,3,NA,39,6.274
"1948",46,28,1,"Fake",1,4,1,40,5.815
"1949",46,16,1,"Real",1,4,0,41,10.078
"1950",46,1,1,"Real",1,6,0,42,6.844
"1951",46,26,1,"Real",1,4,1,43,6.906
"1952",46,3,1,"Fake",1,5,1,44,6.397
"1953",46,48,1,"Fake",1,3,1,45,3.668
"1954",46,13,1,"Real",1,6,1,46,2.813
"1955",46,17,1,"Fake",1,4,NA,47,2.624
"1956",46,14,1,"Real",1,2,1,48,4.285
"1957",46,24,1,"Fake",1,2,0,49,5.802
"1958",46,9,1,"Fake",1,3,1,50,4.964
"1959",46,30,1,"Real",1,5,NA,51,5.079
"1960",46,23,1,"Real",1,2,NA,52,5.165
"1961",46,54,1,"Real",1,4,0,53,5.943
"1962",46,21,1,"Real",1,2,0,54,4.737
"1963",46,45,1,"Real",1,6,0,55,5.846
"1964",46,2,1,"Fake",1,1,NA,56,3.26
"1965",46,8,1,"Real",1,4,1,57,4.26
"1966",46,47,1,"Fake",1,3,NA,58,4.797
"1967",46,53,1,"Fake",1,4,1,59,4.526
"1968",46,37,1,"Real",1,5,1,60,3.811
"1969",46,4,1,"Real",1,2,1,61,4.509
"1970",46,50,1,"Fake",1,1,0,62,9.019
"1971",46,44,1,"Fake",1,3,0,63,5.534
"1972",46,27,1,"Fake",1,3,1,64,5.608
"1973",46,6,1,"Real",1,4,NA,65,9.601
"1974",46,34,1,"Fake",1,3,NA,66,7.7
"1975",46,42,1,"Fake",1,2,0,67,4.766
"1976",46,11,1,"Fake",1,2,NA,68,4.386
"1977",46,12,1,"Real",1,5,1,69,4.964
"1978",46,20,1,"Real",1,4,NA,70,2.535
"1979",46,10,1,"Real",1,1,1,71,7.598
"1980",46,31,1,"Fake",1,3,0,72,5.141
"1981",46,29,1,"Fake",1,2,0,73,9.793
"1982",46,5,1,"Real",1,1,NA,74,3.805
"1983",46,25,1,"Fake",1,2,0,75,6.557
"1984",46,49,1,"Real",1,1,1,76,3.326
"1985",46,38,1,"Fake",1,2,1,77,5.261
"1986",46,32,1,"Fake",1,1,0,78,6.292
"1987",46,41,1,"Real",1,2,0,79,8
"1988",46,36,1,"Real",1,4,NA,80,3.596
"1989",46,19,1,"Fake",1,2,NA,81,6.271
"1990",46,22,1,"Real",1,4,0,82,12.093
"1991",46,51,1,"Fake",1,3,NA,83,6.408
"1992",46,18,1,"Fake",1,3,NA,84,7.192
"1993",46,46,1,"Real",1,4,NA,85,7.11
"1994",46,43,1,"Fake",1,3,1,86,7.111
"1995",46,40,1,"Fake",1,3,NA,87,7.842
"1996",46,39,1,"Fake",1,2,0,88,5.717
"1997",46,52,1,"Real",1,3,NA,89,5.337
"1998",46,7,1,"Real",1,2,0,90,4.597
"1999",47,47,1,"Real",1,2,1,37,8.025
"2000",47,52,1,"Real",1,4,0,38,7.919
"2001",47,12,1,"Real",1,3,NA,39,7.64
"2002",47,13,1,"Real",1,3,NA,40,6.557
"2003",47,19,1,"Real",1,3,1,41,5.317
"2004",47,36,1,"Real",1,3,0,42,7.715
"2005",47,48,1,"Fake",1,4,0,43,6.612
"2006",47,33,1,"Real",1,3,0,44,5.275
"2007",47,29,1,"Fake",1,3,NA,45,6.114
"2008",47,3,1,"Fake",1,4,0,46,9.285
"2009",47,22,1,"Fake",1,4,1,47,5.75
"2010",47,31,1,"Fake",1,4,NA,48,6.241
"2011",47,16,1,"Fake",1,5,1,49,4.687
"2012",47,20,1,"Real",1,3,0,50,5.807
"2013",47,14,1,"Real",1,3,NA,51,5.959
"2014",47,45,1,"Fake",1,4,1,52,3.017
"2015",47,49,1,"Real",1,4,NA,53,7.396
"2016",47,18,1,"Real",1,4,1,54,3.89
"2017",47,9,1,"Fake",1,3,0,55,5.33
"2018",47,51,1,"Real",1,4,1,56,7.255
"2019",47,37,1,"Real",1,4,NA,57,10.002
"2020",47,32,1,"Fake",1,2,NA,58,4.654
"2021",47,11,1,"Real",1,3,1,59,3.422
"2022",47,7,1,"Fake",1,4,1,60,3.2
"2023",47,10,1,"Real",1,3,NA,61,3.973
"2024",47,27,1,"Fake",1,3,0,62,6.144
"2025",47,21,1,"Fake",1,4,1,63,3.595
"2026",47,43,1,"Fake",1,3,0,64,4.623
"2027",47,26,1,"Real",1,3,NA,65,4.903
"2028",47,28,1,"Fake",1,3,0,66,0.61
"2029",47,23,1,"Real",1,4,0,67,6.584
"2030",47,8,1,"Real",1,3,NA,68,4.575
"2031",47,5,1,"Real",1,2,0,69,6.299
"2032",47,54,1,"Fake",1,3,1,70,5.862
"2033",47,34,1,"Real",1,4,1,71,4.62
"2034",47,4,1,"Real",1,4,NA,72,3.478
"2035",47,1,1,"Fake",1,3,1,73,3.912
"2036",47,15,1,"Fake",1,4,1,74,4.094
"2037",47,17,1,"Real",1,5,1,75,2.741
"2038",47,40,1,"Real",1,4,1,76,3.108
"2039",47,30,1,"Real",1,4,0,77,4.325
"2040",47,6,1,"Real",1,4,0,78,8.427
"2041",47,41,1,"Fake",1,4,1,79,4.726
"2042",47,44,1,"Fake",1,4,NA,80,4.714
"2043",47,46,1,"Real",1,4,0,81,11.416
"2044",47,35,1,"Fake",1,4,0,82,5.424
"2045",47,50,1,"Fake",1,3,NA,83,3.233
"2046",47,25,1,"Fake",1,4,NA,84,4.564
"2047",47,42,1,"Fake",1,4,NA,85,1.816
"2048",47,39,1,"Fake",1,4,NA,86,3.382
"2049",47,24,1,"Fake",1,4,NA,87,3.665
"2050",47,2,1,"Real",1,4,1,88,3.451
"2051",47,53,1,"Fake",1,4,0,89,5.468
"2052",47,38,1,"Fake",1,4,0,90,10.682
"2053",48,16,1,"Real",1,4,NA,37,6.578
"2054",48,26,1,"Fake",1,4,NA,38,5.498
"2055",48,17,1,"Fake",1,3,1,39,4.704
"2056",48,12,1,"Fake",1,3,NA,40,7.79
"2057",48,37,1,"Fake",1,5,NA,41,6.892
"2058",48,30,1,"Fake",1,3,0,42,8.431
"2059",48,19,1,"Fake",1,4,1,43,7.659
"2060",48,44,1,"Real",1,4,0,44,3.734
"2061",48,50,1,"Real",1,3,0,45,5.54
"2062",48,54,1,"Real",1,2,NA,46,3.792
"2063",48,2,1,"Fake",1,4,1,47,3.948
"2064",48,18,1,"Fake",1,3,1,48,2.64
"2065",48,47,1,"Fake",1,3,1,49,3.852
"2066",48,29,1,"Real",1,3,0,50,8.205
"2067",48,5,1,"Fake",1,2,0,51,5.235
"2068",48,10,1,"Fake",1,3,NA,52,6.379
"2069",48,20,1,"Fake",1,1,0,53,3.755
"2070",48,38,1,"Real",1,3,1,54,5.783
"2071",48,14,1,"Fake",1,2,NA,55,3.801
"2072",48,31,1,"Real",1,2,0,56,3.021
"2073",48,40,1,"Fake",1,2,1,57,8.257
"2074",48,22,1,"Real",1,3,NA,58,8.795
"2075",48,52,1,"Fake",1,4,0,59,3.192
"2076",48,34,1,"Fake",1,3,1,60,3.028
"2077",48,27,1,"Real",1,4,1,61,6.376
"2078",48,24,1,"Real",1,3,0,62,4.24
"2079",48,13,1,"Fake",1,4,NA,63,2.403
"2080",48,32,1,"Real",1,2,0,64,4.016
"2081",48,9,1,"Real",1,3,1,65,3.931
"2082",48,39,1,"Real",1,2,0,66,7.706
"2083",48,21,1,"Real",1,3,NA,67,4.291
"2084",48,45,1,"Real",1,3,NA,68,4.003
"2085",48,33,1,"Fake",1,3,0,69,3.885
"2086",48,53,1,"Real",1,3,1,70,3.437
"2087",48,42,1,"Real",1,2,0,71,3.76
"2088",48,28,1,"Real",1,3,1,72,3.013
"2089",48,8,1,"Fake",1,4,NA,73,3.401
"2090",48,15,1,"Real",1,4,NA,74,3.797
"2091",48,11,1,"Fake",1,3,1,75,2.073
"2092",48,46,1,"Fake",1,2,0,76,3.93
"2093",48,36,1,"Fake",1,3,0,77,2.887
"2094",48,23,1,"Fake",1,3,0,78,4.745
"2095",48,41,1,"Real",1,2,NA,79,4.453
"2096",48,3,1,"Real",1,3,1,80,4.357
"2097",48,7,1,"Real",1,3,NA,81,4.497
"2098",48,25,1,"Real",1,2,0,82,5.84
"2099",48,6,1,"Fake",1,2,0,83,2.959
"2100",48,51,1,"Fake",1,3,1,84,3.733
"2101",48,1,1,"Real",1,3,NA,85,4.229
"2102",48,4,1,"Fake",1,3,NA,86,3.102
"2103",48,48,1,"Real",1,4,1,87,2.319
"2104",48,43,1,"Real",1,3,1,88,2.911
"2105",48,49,1,"Fake",1,2,NA,89,4.143
"2106",48,35,1,"Real",1,3,1,90,3.229
"2107",49,27,1,"Real",1,5,1,37,14.164
"2108",49,42,1,"Real",1,5,0,38,11.555
"2109",49,23,1,"Fake",1,2,0,39,19.109
"2110",49,18,1,"Fake",1,3,1,40,16.381
"2111",49,10,1,"Fake",1,4,NA,41,12.271
"2112",49,35,1,"Real",1,6,1,42,8.234
"2113",49,47,1,"Fake",1,2,1,43,15.117
"2114",49,9,1,"Real",1,5,1,44,5.396
"2115",49,29,1,"Real",1,4,0,45,11.5
"2116",49,24,1,"Real",1,4,0,46,6.881
"2117",49,1,1,"Real",1,3,NA,47,9.708
"2118",49,43,1,"Real",1,6,1,48,4.459
"2119",49,49,1,"Fake",1,2,NA,49,11.003
"2120",49,2,1,"Fake",1,4,1,50,7.012
"2121",49,8,1,"Fake",1,5,NA,51,7.785
"2122",49,44,1,"Real",1,3,0,52,7.897
"2123",49,28,1,"Real",1,6,1,53,10.378
"2124",49,51,1,"Fake",1,5,1,54,8.084
"2125",49,31,1,"Real",1,5,0,55,10.248
"2126",49,37,1,"Fake",1,2,NA,56,9.192
"2127",49,16,1,"Real",1,6,NA,57,5.501
"2128",49,38,1,"Real",1,5,1,58,5.417
"2129",49,6,1,"Fake",1,3,0,59,9.338
"2130",49,13,1,"Fake",1,5,NA,60,6.943
"2131",49,48,1,"Real",1,6,1,61,7.193
"2132",49,34,1,"Fake",1,5,1,62,7.519
"2133",49,53,1,"Real",1,6,1,63,8.553
"2134",49,45,1,"Real",1,6,NA,64,9.063
"2135",49,19,1,"Fake",1,5,1,65,6.512
"2136",49,11,1,"Fake",1,5,1,66,6.579
"2137",49,40,1,"Fake",1,5,1,67,8.571
"2138",49,54,1,"Real",1,4,NA,68,10.689
"2139",49,52,1,"Fake",1,4,0,69,9.288
"2140",49,14,1,"Fake",1,4,NA,70,7.952
"2141",49,36,1,"Fake",1,2,0,71,6.087
"2142",49,21,1,"Real",1,3,NA,72,9.244
"2143",49,50,1,"Real",1,4,0,73,8.749
"2144",49,3,1,"Real",1,4,1,74,8.755
"2145",49,17,1,"Fake",1,4,1,75,5.314
"2146",49,26,1,"Fake",1,5,NA,76,11.726
"2147",49,12,1,"Fake",1,2,NA,77,8.657
"2148",49,7,1,"Real",1,4,NA,78,7.539
"2149",49,30,1,"Fake",1,4,0,79,12.659
"2150",49,41,1,"Real",1,5,NA,80,9.225
"2151",49,33,1,"Fake",1,3,0,81,6.034
"2152",49,32,1,"Real",1,3,0,82,10.816
"2153",49,20,1,"Fake",1,4,0,83,9.794
"2154",49,46,1,"Fake",1,5,0,84,9.644
"2155",49,22,1,"Real",1,5,NA,85,12.438
"2156",49,4,1,"Fake",1,5,NA,86,10.083
"2157",49,25,1,"Real",1,5,0,87,12.658
"2158",49,15,1,"Real",1,5,NA,88,8.136
"2159",49,5,1,"Fake",1,1,0,89,8.495
"2160",49,39,1,"Real",1,1,0,90,22.319
"2161",5,36,1,"Fake",1,4,NA,37,12.354
"2162",5,19,1,"Real",1,4,NA,38,8.018
"2163",5,11,1,"Real",1,2,NA,39,6.626
"2164",5,17,1,"Real",1,1,NA,40,5.824
"2165",5,14,1,"Fake",1,2,1,41,4.872
"2166",5,20,1,"Fake",1,5,NA,42,5.709
"2167",5,54,1,"Fake",1,4,0,43,7.624
"2168",5,1,1,"Fake",1,3,0,44,5.836
"2169",5,40,1,"Real",1,2,NA,45,10.672
"2170",5,31,1,"Real",1,4,1,46,6.341
"2171",5,47,1,"Real",1,1,NA,47,3.766
"2172",5,52,1,"Fake",1,2,NA,48,5.184
"2173",5,44,1,"Real",1,3,1,49,9.905
"2174",5,30,1,"Fake",1,2,NA,50,10.999
"2175",5,3,1,"Real",1,2,0,51,18.199
"2176",5,23,1,"Fake",1,2,NA,52,11.533
"2177",5,49,1,"Fake",1,2,1,53,8.901
"2178",5,24,1,"Real",1,4,1,54,3.445
"2179",5,12,1,"Fake",1,5,1,55,5.766
"2180",5,22,1,"Fake",1,4,0,56,10.087
"2181",5,9,1,"Real",1,3,0,57,7.194
"2182",5,32,1,"Real",1,4,1,58,4.409
"2183",5,50,1,"Real",1,4,1,59,3.3
"2184",5,8,1,"Fake",1,5,1,60,2.978
"2185",5,42,1,"Real",1,3,1,61,3.469
"2186",5,45,1,"Fake",1,2,0,62,8.58
"2187",5,5,1,"Fake",1,3,NA,63,3.112
"2188",5,33,1,"Fake",1,3,NA,64,6.549
"2189",5,21,1,"Fake",1,5,0,65,6.031
"2190",5,28,1,"Real",1,4,0,66,6.023
"2191",5,27,1,"Real",1,5,0,67,6.82
"2192",5,25,1,"Real",1,3,1,68,4.347
"2193",5,46,1,"Fake",1,4,NA,69,3.614
"2194",5,48,1,"Real",1,4,0,70,7.6
"2195",5,18,1,"Real",1,3,NA,71,5.397
"2196",5,4,1,"Fake",1,5,1,72,3.951
"2197",5,2,1,"Real",1,3,NA,73,7.738
"2198",5,43,1,"Real",1,1,0,74,4.489
"2199",5,6,1,"Fake",1,1,NA,75,3.056
"2200",5,10,1,"Fake",1,5,1,76,4.193
"2201",5,15,1,"Fake",1,3,0,77,10.122
"2202",5,7,1,"Fake",1,4,0,78,6.337
"2203",5,37,1,"Fake",1,2,1,79,7.096
"2204",5,41,1,"Fake",1,3,0,80,12.392
"2205",5,16,1,"Fake",1,2,0,81,7.015
"2206",5,29,1,"Real",1,3,1,82,3.539
"2207",5,26,1,"Fake",1,3,1,83,3.968
"2208",5,34,1,"Real",1,4,NA,84,3.394
"2209",5,38,1,"Real",1,4,0,85,8.02
"2210",5,39,1,"Real",1,3,1,86,5.143
"2211",5,35,1,"Real",1,3,0,87,8.594
"2212",5,13,1,"Fake",1,2,1,88,10.182
"2213",5,51,1,"Real",1,2,NA,89,7.544
"2214",5,53,1,"Real",1,4,0,90,16.287
"2215",50,43,1,"Fake",1,3,0,37,5.58
"2216",50,51,1,"Real",1,1,1,38,9.018
"2217",50,39,1,"Fake",1,2,NA,39,6.109
"2218",50,32,1,"Fake",1,3,NA,40,7.232
"2219",50,41,1,"Fake",1,5,1,41,4.138
"2220",50,46,1,"Real",1,1,0,42,13.246
"2221",50,16,1,"Fake",1,3,1,43,3.089
"2222",50,19,1,"Real",1,2,1,44,2.953
"2223",50,17,1,"Real",1,4,1,45,2.446
"2224",50,5,1,"Real",1,5,0,46,3.743
"2225",50,38,1,"Fake",1,4,0,47,7.051
"2226",50,22,1,"Fake",1,4,1,48,5.165
"2227",50,34,1,"Real",1,4,1,49,3.55
"2228",50,36,1,"Real",1,3,0,50,4.712
"2229",50,6,1,"Real",1,4,0,51,5.526
"2230",50,30,1,"Real",1,4,0,52,3.535
"2231",50,49,1,"Real",1,4,NA,53,0.441
"2232",50,35,1,"Fake",1,4,0,54,5.542
"2233",50,27,1,"Fake",1,3,0,55,10.656
"2234",50,11,1,"Real",1,2,1,56,9.583
"2235",50,2,1,"Real",1,4,1,57,4.026
"2236",50,40,1,"Real",1,4,1,58,3.288
"2237",50,33,1,"Real",1,2,0,59,4.303
"2238",50,31,1,"Fake",1,4,NA,60,4.052
"2239",50,47,1,"Real",1,4,1,61,4.228
"2240",50,45,1,"Fake",1,3,1,62,3.58
"2241",50,29,1,"Fake",1,4,NA,63,5.616
"2242",50,50,1,"Fake",1,2,NA,64,5.903
"2243",50,24,1,"Fake",1,4,NA,65,5.262
"2244",50,28,1,"Fake",1,5,0,66,3.524
"2245",50,54,1,"Fake",1,4,1,67,3.225
"2246",50,12,1,"Real",1,5,NA,68,6.579
"2247",50,8,1,"Real",1,5,NA,69,3.275
"2248",50,53,1,"Fake",1,4,0,70,7.362
"2249",50,1,1,"Fake",1,2,1,71,4.809
"2250",50,44,1,"Fake",1,3,NA,72,2.562
"2251",50,21,1,"Fake",1,5,1,73,4.448
"2252",50,52,1,"Real",1,4,0,74,5.055
"2253",50,42,1,"Fake",1,5,NA,75,2.644
"2254",50,13,1,"Real",1,5,NA,76,3.749
"2255",50,37,1,"Real",1,4,NA,77,5.816
"2256",50,3,1,"Fake",1,5,0,78,3.759
"2257",50,9,1,"Fake",1,5,0,79,3.579
"2258",50,25,1,"Fake",1,3,NA,80,6.662
"2259",50,48,1,"Fake",1,5,0,81,13.352
"2260",50,10,1,"Real",1,4,NA,82,3.832
"2261",50,23,1,"Real",1,5,0,83,5.217
"2262",50,15,1,"Fake",1,5,1,84,3.983
"2263",50,7,1,"Fake",1,4,1,85,2.602
"2264",50,14,1,"Real",1,3,NA,86,7.254
"2265",50,26,1,"Real",1,2,NA,87,4.393
"2266",50,4,1,"Real",1,3,NA,88,3.809
"2267",50,18,1,"Real",1,4,1,89,4.363
"2268",50,20,1,"Real",1,3,0,90,3.102
"2269",52,17,1,"Fake",1,2,NA,37,5.033
"2270",52,14,1,"Real",1,5,1,38,5.008
"2271",52,47,1,"Fake",1,2,NA,39,4.433
"2272",52,30,1,"Real",1,2,NA,40,6.403
"2273",52,26,1,"Real",1,6,1,41,4.066
"2274",52,45,1,"Real",1,3,0,42,6.895
"2275",52,46,1,"Real",1,2,NA,43,4.026
"2276",52,34,1,"Fake",1,5,NA,44,3.651
"2277",52,48,1,"Fake",1,6,1,45,2.459
"2278",52,6,1,"Real",1,1,NA,46,1.934
"2279",52,53,1,"Fake",1,6,1,47,4.229
"2280",52,18,1,"Fake",1,1,NA,48,3.142
"2281",52,9,1,"Fake",1,6,1,49,3.42
"2282",52,7,1,"Real",1,3,0,50,4.647
"2283",52,40,1,"Fake",1,3,NA,51,3.766
"2284",52,21,1,"Real",1,5,0,52,7.786
"2285",52,33,1,"Real",1,4,NA,53,3.201
"2286",52,35,1,"Fake",1,4,1,54,4.453
"2287",52,24,1,"Fake",1,4,0,55,4.586
"2288",52,12,1,"Real",1,6,1,56,4.092
"2289",52,5,1,"Real",1,6,NA,57,4.05
"2290",52,28,1,"Fake",1,6,1,58,2.786
"2291",52,37,1,"Real",1,5,1,59,2.752
"2292",52,20,1,"Real",1,2,NA,60,5.287
"2293",52,1,1,"Real",1,3,0,61,3.458
"2294",52,2,1,"Fake",1,4,NA,62,5.85
"2295",52,43,1,"Fake",1,5,1,63,2.68
"2296",52,50,1,"Fake",1,4,0,64,5.625
"2297",52,52,1,"Real",1,4,NA,65,6.8
"2298",52,15,1,"Real",1,4,0,66,3.263
"2299",52,3,1,"Fake",1,5,1,67,2.897
"2300",52,16,1,"Real",1,3,0,68,4.432
"2301",52,22,1,"Real",1,4,0,69,4.256
"2302",52,10,1,"Real",1,6,1,70,2.511
"2303",52,25,1,"Fake",1,4,0,71,4.368
"2304",52,54,1,"Real",1,2,0,72,4.339
"2305",52,41,1,"Real",1,3,0,73,6.622
"2306",52,38,1,"Fake",1,6,1,74,2.534
"2307",52,23,1,"Real",1,3,NA,75,5.244
"2308",52,36,1,"Real",1,3,NA,76,2.259
"2309",52,32,1,"Fake",1,4,0,77,8.9
"2310",52,13,1,"Real",1,5,1,78,2.349
"2311",52,39,1,"Fake",1,2,0,79,6.715
"2312",52,8,1,"Real",1,5,1,80,2.71
"2313",52,19,1,"Fake",1,2,NA,81,3.957
"2314",52,11,1,"Fake",1,1,NA,82,2.776
"2315",52,29,1,"Fake",1,2,0,83,6.742
"2316",52,51,1,"Fake",1,1,NA,84,4.287
"2317",52,44,1,"Fake",1,3,0,85,3.974
"2318",52,31,1,"Fake",1,3,0,86,3.826
"2319",52,42,1,"Fake",1,4,0,87,3.124
"2320",52,4,1,"Real",1,6,1,88,2.451
"2321",52,27,1,"Fake",1,5,1,89,2.997
"2322",52,49,1,"Real",1,5,1,90,3.13
"2323",53,17,1,"Real",1,4,NA,37,4.325
"2324",53,42,1,"Real",1,5,1,38,4.131
"2325",53,8,1,"Fake",1,5,1,39,4.648
"2326",53,27,1,"Real",1,6,0,40,6.249
"2327",53,44,1,"Real",1,5,1,41,8.455
"2328",53,53,1,"Real",1,2,0,42,15.034
"2329",53,25,1,"Real",1,4,1,43,5.915
"2330",53,50,1,"Real",1,4,1,44,7.399
"2331",53,49,1,"Fake",1,2,1,45,4.036
"2332",53,12,1,"Fake",1,1,1,46,10.605
"2333",53,35,1,"Real",1,5,0,47,10.63
"2334",53,2,1,"Real",1,1,NA,48,7.454
"2335",53,7,1,"Fake",1,1,0,49,4.794
"2336",53,37,1,"Fake",1,6,1,50,9.268
"2337",53,43,1,"Real",1,2,0,51,2.958
"2338",53,40,1,"Real",1,1,NA,52,3.661
"2339",53,30,1,"Fake",1,1,NA,53,4.75
"2340",53,11,1,"Real",1,1,NA,54,4.842
"2341",53,3,1,"Real",1,2,0,55,10.154
"2342",53,6,1,"Fake",1,1,NA,56,9.311
"2343",53,9,1,"Real",1,5,0,57,5.893
"2344",53,48,1,"Real",1,4,0,58,6.586
"2345",53,21,1,"Fake",1,5,0,59,6.041
"2346",53,26,1,"Fake",1,4,1,60,9.567
"2347",53,14,1,"Fake",1,6,1,61,3.236
"2348",53,52,1,"Fake",1,1,NA,62,4.942
"2349",53,23,1,"Fake",1,3,NA,63,6.963
"2350",53,10,1,"Fake",1,4,1,64,4.835
"2351",53,29,1,"Real",1,2,1,65,5.141
"2352",53,18,1,"Real",1,2,NA,66,8.168
"2353",53,45,1,"Fake",1,1,0,67,2.729
"2354",53,4,1,"Fake",1,2,1,68,5.385
"2355",53,28,1,"Real",1,2,0,69,6.835
"2356",53,22,1,"Fake",1,1,0,70,10.48
"2357",53,34,1,"Real",1,4,NA,71,5.198
"2358",53,47,1,"Real",1,2,NA,72,2.872
"2359",53,33,1,"Fake",1,3,NA,73,3.763
"2360",53,31,1,"Real",1,5,1,74,5.24
"2361",53,54,1,"Fake",1,4,0,75,8.783
"2362",53,51,1,"Real",1,1,NA,76,6.732
"2363",53,1,1,"Fake",1,1,0,77,7.511
"2364",53,13,1,"Fake",1,4,1,78,7.287
"2365",53,39,1,"Real",1,2,1,79,5.442
"2366",53,15,1,"Fake",1,4,0,80,5.097
"2367",53,19,1,"Real",1,2,NA,81,5.718
"2368",53,32,1,"Real",1,1,1,82,5.539
"2369",53,16,1,"Fake",1,5,0,83,4.598
"2370",53,20,1,"Fake",1,6,NA,84,3.929
"2371",53,36,1,"Fake",1,5,NA,85,6.32
"2372",53,41,1,"Fake",1,1,0,86,9.899
"2373",53,24,1,"Real",1,5,1,87,8.568
"2374",53,46,1,"Fake",1,4,NA,88,6.919
"2375",53,38,1,"Real",1,5,0,89,8.409
"2376",53,5,1,"Fake",1,4,NA,90,6.293
"2377",54,11,1,"Fake",1,5,0,37,5.988
"2378",54,1,1,"Fake",1,2,NA,38,8.981
"2379",54,39,1,"Fake",1,4,1,39,11.178
"2380",54,33,1,"Real",1,3,1,40,4.093
"2381",54,10,1,"Real",1,5,0,41,8.02
"2382",54,40,1,"Fake",1,5,0,42,4.793
"2383",54,2,1,"Fake",1,4,0,43,6.683
"2384",54,15,1,"Fake",1,4,NA,44,5.767
"2385",54,45,1,"Fake",1,2,NA,45,5.249
"2386",54,26,1,"Real",1,5,0,46,6.057
"2387",54,14,1,"Real",1,4,0,47,7.343
"2388",54,47,1,"Fake",1,5,0,48,2.624
"2389",54,19,1,"Fake",1,2,0,49,3.748
"2390",54,20,1,"Real",1,2,1,50,5.411
"2391",54,43,1,"Real",1,2,NA,51,3.124
"2392",54,54,1,"Fake",1,4,NA,52,5.028
"2393",54,3,1,"Real",1,2,NA,53,11.46
"2394",54,30,1,"Real",1,4,1,54,2.66
"2395",54,50,1,"Fake",1,4,1,55,3.646
"2396",54,53,1,"Real",1,3,NA,56,6.567
"2397",54,48,1,"Real",1,4,NA,57,3.353
"2398",54,49,1,"Real",1,2,0,58,5.967
"2399",54,16,1,"Fake",1,1,NA,59,4.088
"2400",54,5,1,"Real",1,2,1,60,5.424
"2401",54,37,1,"Real",1,4,0,61,3.96
"2402",54,8,1,"Real",1,2,0,62,3.94
"2403",54,21,1,"Fake",1,1,NA,63,5.434
"2404",54,23,1,"Real",1,4,1,64,3.259
"2405",54,22,1,"Fake",1,2,NA,65,8.492
"2406",54,52,1,"Real",1,2,1,66,3.007
"2407",54,18,1,"Fake",1,6,0,67,2.706
"2408",54,27,1,"Real",1,6,NA,68,3.828
"2409",54,29,1,"Fake",1,4,1,69,2.51
"2410",54,42,1,"Fake",1,3,1,70,4.255
"2411",54,36,1,"Real",1,2,1,71,3.936
"2412",54,7,1,"Fake",1,5,NA,72,3.253
"2413",54,41,1,"Fake",1,4,NA,73,4.487
"2414",54,51,1,"Fake",1,5,0,74,10.607
"2415",54,34,1,"Fake",1,2,0,75,3.233
"2416",54,9,1,"Real",1,3,NA,76,3.932
"2417",54,31,1,"Fake",1,2,1,77,2.611
"2418",54,13,1,"Real",1,2,0,78,3.015
"2419",54,4,1,"Real",1,5,0,79,3.323
"2420",54,24,1,"Fake",1,5,1,80,4.418
"2421",54,12,1,"Real",1,2,0,81,8.476
"2422",54,46,1,"Real",1,4,1,82,5.438
"2423",54,38,1,"Real",1,2,NA,83,5.174
"2424",54,32,1,"Fake",1,2,1,84,3.44
"2425",54,35,1,"Real",1,2,NA,85,5.091
"2426",54,17,1,"Fake",1,4,0,86,5.441
"2427",54,25,1,"Fake",1,5,1,87,4.088
"2428",54,28,1,"Real",1,2,NA,88,2.104
"2429",54,44,1,"Fake",1,2,1,89,5.218
"2430",54,6,1,"Real",1,4,1,90,4.746
"2431",55,33,1,"Fake",1,5,1,37,9.979
"2432",55,18,1,"Real",1,4,0,38,9.839
"2433",55,9,1,"Fake",1,3,NA,39,9.465
"2434",55,17,1,"Real",1,1,0,40,6.417
"2435",55,52,1,"Fake",1,4,1,41,5.335
"2436",55,42,1,"Real",1,2,NA,42,4.714
"2437",55,53,1,"Fake",1,2,NA,43,13.101
"2438",55,23,1,"Fake",1,4,1,44,7.272
"2439",55,2,1,"Real",1,1,0,45,10.546
"2440",55,30,1,"Fake",1,5,1,46,4.92
"2441",55,48,1,"Fake",1,4,NA,47,4.899
"2442",55,46,1,"Fake",1,1,1,48,4.393
"2443",55,25,1,"Real",1,4,NA,49,12.098
"2444",55,37,1,"Fake",1,6,0,50,10.118
"2445",55,41,1,"Real",1,3,1,51,4.821
"2446",55,20,1,"Fake",1,1,1,52,3.974
"2447",55,26,1,"Fake",1,4,0,53,11.656
"2448",55,14,1,"Fake",1,6,0,54,13.902
"2449",55,4,1,"Fake",1,4,0,55,7.44
"2450",55,5,1,"Fake",1,2,1,56,7.995
"2451",55,19,1,"Real",1,2,0,57,7.627
"2452",55,16,1,"Real",1,5,1,58,4.021
"2453",55,12,1,"Fake",1,2,0,59,13.568
"2454",55,49,1,"Fake",1,1,0,60,6.974
"2455",55,11,1,"Real",1,3,0,61,4.927
"2456",55,34,1,"Real",1,4,0,62,8.944
"2457",55,32,1,"Real",1,1,NA,63,9.031
"2458",55,45,1,"Real",1,3,1,64,14.353
"2459",55,24,1,"Real",1,2,NA,65,14.751
"2460",55,3,1,"Fake",1,1,NA,66,11.622
"2461",55,54,1,"Real",1,4,1,67,7.381
"2462",55,15,1,"Real",1,4,1,68,6.787
"2463",55,22,1,"Real",1,6,1,69,12.41
"2464",55,31,1,"Real",1,1,NA,70,6.737
"2465",55,8,1,"Fake",1,4,0,71,6.394
"2466",55,29,1,"Real",1,1,NA,72,6.779
"2467",55,6,1,"Fake",1,5,1,73,8.426
"2468",55,10,1,"Fake",1,1,0,74,6.494
"2469",55,7,1,"Real",1,4,1,75,4.626
"2470",55,43,1,"Fake",1,4,NA,76,5.282
"2471",55,28,1,"Fake",1,1,NA,77,4.959
"2472",55,36,1,"Fake",1,5,1,78,5.907
"2473",55,40,1,"Real",1,5,0,79,6.494
"2474",55,21,1,"Real",1,6,1,80,5.002
"2475",55,47,1,"Real",1,4,0,81,6.49
"2476",55,35,1,"Fake",1,1,NA,82,6.247
"2477",55,13,1,"Fake",1,2,0,83,5.019
"2478",55,38,1,"Fake",1,1,NA,84,6.02
"2479",55,27,1,"Fake",1,2,NA,85,5.452
"2480",55,50,1,"Real",1,2,NA,86,7.594
"2481",55,1,1,"Real",1,4,1,87,7.255
"2482",55,51,1,"Real",1,4,0,88,8.923
"2483",55,39,1,"Real",1,5,NA,89,11.243
"2484",55,44,1,"Real",1,1,NA,90,15.113
"2485",56,15,1,"Fake",1,4,NA,37,11.568
"2486",56,31,1,"Fake",1,5,1,38,3.425
"2487",56,23,1,"Real",1,5,1,39,2.701
"2488",56,8,1,"Real",1,4,0,40,5.462
"2489",56,52,1,"Real",1,6,1,41,2.508
"2490",56,14,1,"Real",1,5,0,42,6.477
"2491",56,28,1,"Real",1,4,NA,43,4.272
"2492",56,41,1,"Fake",1,1,NA,44,6.912
"2493",56,53,1,"Real",1,2,NA,45,5.651
"2494",56,25,1,"Fake",1,2,1,46,3.474
"2495",56,6,1,"Real",1,2,1,47,4.835
"2496",56,42,1,"Fake",1,6,1,48,3.212
"2497",56,22,1,"Fake",1,6,NA,49,5.127
"2498",56,3,1,"Real",1,5,NA,50,6.876
"2499",56,32,1,"Fake",1,2,1,51,3.504
"2500",56,1,1,"Fake",1,6,NA,52,2.543
"2501",56,43,1,"Real",1,5,NA,53,3.718
"2502",56,34,1,"Fake",1,4,0,54,5.135
"2503",56,38,1,"Real",1,2,NA,55,3.004
"2504",56,49,1,"Real",1,2,0,56,4.063
"2505",56,44,1,"Fake",1,5,1,57,3.248
"2506",56,36,1,"Real",1,6,1,58,3.441
"2507",56,48,1,"Real",1,4,NA,59,3.3
"2508",56,21,1,"Fake",1,4,NA,60,4.604
"2509",56,54,1,"Fake",1,1,NA,61,3.519
"2510",56,11,1,"Fake",1,1,0,62,8.663
"2511",56,2,1,"Fake",1,2,0,63,5.865
"2512",56,30,1,"Real",1,2,1,64,3.894
"2513",56,45,1,"Fake",1,3,NA,65,5.455
"2514",56,10,1,"Real",1,3,0,66,5.47
"2515",56,12,1,"Real",1,4,0,67,4.587
"2516",56,18,1,"Fake",1,4,0,68,3.406
"2517",56,9,1,"Real",1,4,NA,69,1.538
"2518",56,46,1,"Real",1,4,1,70,5.444
"2519",56,26,1,"Real",1,3,0,71,5.675
"2520",56,24,1,"Fake",1,4,1,72,3.369
"2521",56,33,1,"Real",1,5,1,73,4.063
"2522",56,5,1,"Real",1,6,1,74,2.855
"2523",56,35,1,"Real",1,3,NA,75,4.81
"2524",56,7,1,"Fake",1,2,NA,76,4.387
"2525",56,29,1,"Fake",1,5,1,77,2.934
"2526",56,37,1,"Real",1,4,0,78,3.582
"2527",56,16,1,"Fake",1,4,NA,79,2.395
"2528",56,4,1,"Real",1,3,0,80,4.825
"2529",56,19,1,"Fake",1,1,0,81,3.746
"2530",56,17,1,"Fake",1,2,0,82,3.551
"2531",56,13,1,"Real",1,3,0,83,4.661
"2532",56,47,1,"Fake",1,4,0,84,5.308
"2533",56,39,1,"Fake",1,4,1,85,3.442
"2534",56,40,1,"Fake",1,4,0,86,1.644
"2535",56,50,1,"Fake",1,5,1,87,3.433
"2536",56,51,1,"Fake",1,5,0,88,3.259
"2537",56,27,1,"Real",1,3,NA,89,4.869
"2538",56,20,1,"Real",1,4,1,90,3.878
"2539",57,15,1,"Fake",1,5,1,37,9.916
"2540",57,21,1,"Fake",1,4,1,38,6.914
"2541",57,14,1,"Real",1,6,NA,39,7.141
"2542",57,41,1,"Fake",1,2,1,40,8.278
"2543",57,24,1,"Fake",1,4,NA,41,8.112
"2544",57,31,1,"Fake",1,4,NA,42,9.601
"2545",57,26,1,"Real",1,6,NA,43,8.069
"2546",57,3,1,"Fake",1,4,0,44,6.592
"2547",57,51,1,"Real",1,6,1,45,5.04
"2548",57,2,1,"Real",1,6,1,46,4.288
"2549",57,11,1,"Real",1,6,1,47,4.199
"2550",57,38,1,"Fake",1,2,0,48,5.899
"2551",57,53,1,"Fake",1,5,0,49,9.95
"2552",57,10,1,"Real",1,4,NA,50,5.717
"2553",57,25,1,"Fake",1,3,NA,51,7.784
"2554",57,13,1,"Real",1,5,NA,52,10.606
"2555",57,5,1,"Real",1,4,0,53,5.176
"2556",57,49,1,"Real",1,5,NA,54,4.835
"2557",57,42,1,"Fake",1,2,NA,55,4.996
"2558",57,39,1,"Fake",1,1,NA,56,5.398
"2559",57,1,1,"Fake",1,2,1,57,6.455
"2560",57,32,1,"Fake",1,3,NA,58,5.118
"2561",57,23,1,"Real",1,4,0,59,6.874
"2562",57,34,1,"Real",1,5,1,60,5.367
"2563",57,4,1,"Real",1,5,NA,61,4.545
"2564",57,19,1,"Real",1,3,1,62,4.735
"2565",57,6,1,"Real",1,5,0,63,6.921
"2566",57,47,1,"Real",1,5,1,64,11.461
"2567",57,46,1,"Real",1,6,0,65,11.723
"2568",57,48,1,"Fake",1,2,0,66,7.847
"2569",57,16,1,"Fake",1,2,1,67,4.643
"2570",57,28,1,"Fake",1,2,0,68,5.396
"2571",57,22,1,"Fake",1,3,1,69,6.317
"2572",57,27,1,"Fake",1,3,0,70,5.498
"2573",57,33,1,"Real",1,4,0,71,6.286
"2574",57,44,1,"Fake",1,2,NA,72,4.387
"2575",57,7,1,"Fake",1,2,1,73,5.614
"2576",57,43,1,"Fake",1,4,0,74,4.671
"2577",57,12,1,"Real",1,5,NA,75,7.126
"2578",57,35,1,"Fake",1,2,0,76,10.184
"2579",57,52,1,"Real",1,4,0,77,6.308
"2580",57,18,1,"Real",1,6,1,78,4.528
"2581",57,37,1,"Real",1,5,NA,79,7.357
"2582",57,45,1,"Fake",1,4,1,80,4.782
"2583",57,8,1,"Real",1,6,NA,81,3.92
"2584",57,36,1,"Real",1,6,0,82,6.464
"2585",57,29,1,"Fake",1,3,NA,83,6.597
"2586",57,30,1,"Real",1,5,0,84,4.412
"2587",57,17,1,"Real",1,4,1,85,3.071
"2588",57,54,1,"Fake",1,1,1,86,4.072
"2589",57,9,1,"Fake",1,4,0,87,7.152
"2590",57,40,1,"Real",1,6,1,88,4.539
"2591",57,50,1,"Fake",1,2,NA,89,5.391
"2592",57,20,1,"Real",1,6,0,90,5.689
"2593",58,50,1,"Real",1,5,1,37,6.143
"2594",58,16,1,"Fake",1,3,0,38,4.634
"2595",58,24,1,"Real",1,6,1,39,3.083
"2596",58,28,1,"Real",1,6,0,40,2.829
"2597",58,40,1,"Real",1,5,NA,41,4.224
"2598",58,36,1,"Fake",1,2,NA,42,2.723
"2599",58,22,1,"Fake",1,4,0,43,5.812
"2600",58,4,1,"Fake",1,4,1,44,4.05
"2601",58,47,1,"Real",1,6,NA,45,2.484
"2602",58,31,1,"Real",1,6,1,46,1.854
"2603",58,48,1,"Real",1,5,0,47,4.386
"2604",58,46,1,"Fake",1,6,NA,48,5.079
"2605",58,21,1,"Fake",1,4,0,49,5.405
"2606",58,41,1,"Fake",1,4,0,50,4.334
"2607",58,6,1,"Fake",1,2,NA,51,4.019
"2608",58,17,1,"Real",1,5,NA,52,0.85
"2609",58,23,1,"Fake",1,4,NA,53,4.815
"2610",58,19,1,"Real",1,5,NA,54,4.36
"2611",58,43,1,"Real",1,5,0,55,2.797
"2612",58,52,1,"Fake",1,5,NA,56,2.77
"2613",58,32,1,"Real",1,5,1,57,2.777
"2614",58,20,1,"Fake",1,5,NA,58,5.006
"2615",58,9,1,"Real",1,5,0,59,5.552
"2616",58,12,1,"Fake",1,3,1,60,3.068
"2617",58,37,1,"Fake",1,6,1,61,2.574
"2618",58,30,1,"Fake",1,2,NA,62,3.315
"2619",58,25,1,"Real",1,3,1,63,3.475
"2620",58,34,1,"Real",1,6,NA,64,3.388
"2621",58,51,1,"Real",1,6,NA,65,2.944
"2622",58,45,1,"Fake",1,5,0,66,5.615
"2623",58,3,1,"Real",1,5,0,67,6.92
"2624",58,26,1,"Fake",1,4,1,68,3.802
"2625",58,42,1,"Real",1,4,1,69,3.67
"2626",58,53,1,"Real",1,6,0,70,1.655
"2627",58,29,1,"Real",1,6,1,71,3.532
"2628",58,1,1,"Fake",1,2,0,72,4.17
"2629",58,5,1,"Fake",1,3,NA,73,3.582
"2630",58,27,1,"Real",1,5,0,74,3.939
"2631",58,10,1,"Fake",1,3,1,75,3.641
"2632",58,49,1,"Fake",1,2,1,76,3.411
"2633",58,7,1,"Fake",1,4,0,77,4.319
"2634",58,39,1,"Real",1,6,1,78,1.805
"2635",58,14,1,"Fake",1,4,1,79,4.77
"2636",58,38,1,"Real",1,5,0,80,4.566
"2637",58,13,1,"Fake",1,5,1,81,3.227
"2638",58,2,1,"Real",1,6,NA,82,2.766
"2639",58,35,1,"Real",1,6,0,83,3.868
"2640",58,54,1,"Fake",1,3,0,84,4.637
"2641",58,18,1,"Real",1,5,NA,85,4.462
"2642",58,15,1,"Fake",1,2,0,86,3.862
"2643",58,44,1,"Real",1,5,1,87,3.087
"2644",58,11,1,"Real",1,5,NA,88,3.255
"2645",58,33,1,"Fake",1,2,NA,89,5.571
"2646",58,8,1,"Fake",1,5,1,90,4.261
"2647",59,24,1,"Real",1,3,1,37,8.684
"2648",59,35,1,"Real",1,1,0,38,8.475
"2649",59,4,1,"Fake",1,4,1,39,4.94
"2650",59,45,1,"Fake",1,3,0,40,10.695
"2651",59,1,1,"Fake",1,2,0,41,5.305
"2652",59,33,1,"Fake",1,6,NA,42,2.781
"2653",59,18,1,"Real",1,4,NA,43,9.087
"2654",59,22,1,"Fake",1,3,0,44,5.15
"2655",59,43,1,"Real",1,2,0,45,5.847
"2656",59,40,1,"Real",1,5,NA,46,5.252
"2657",59,39,1,"Real",1,3,1,47,6.538
"2658",59,53,1,"Real",1,4,0,48,6.393
"2659",59,34,1,"Real",1,4,NA,49,4.942
"2660",59,38,1,"Real",1,5,0,50,4.586
"2661",59,16,1,"Fake",1,2,0,51,5.672
"2662",59,14,1,"Fake",1,5,1,52,7.301
"2663",59,28,1,"Real",1,3,0,53,5.739
"2664",59,2,1,"Real",1,4,NA,54,5.252
"2665",59,31,1,"Real",1,1,1,55,4.835
"2666",59,10,1,"Fake",1,3,1,56,9.009
"2667",59,8,1,"Fake",1,4,1,57,2.851
"2668",59,36,1,"Fake",1,5,NA,58,3.501
"2669",59,21,1,"Fake",1,1,0,59,5.083
"2670",59,27,1,"Real",1,6,0,60,4.504
"2671",59,3,1,"Real",1,4,0,61,9.637
"2672",59,49,1,"Fake",1,2,1,62,8.443
"2673",59,6,1,"Fake",1,1,NA,63,5.7
"2674",59,15,1,"Fake",1,3,0,64,7.471
"2675",59,52,1,"Fake",1,2,NA,65,5.384
"2676",59,9,1,"Real",1,4,0,66,6.074
"2677",59,29,1,"Real",1,5,1,67,3.133
"2678",59,54,1,"Fake",1,4,0,68,3.608
"2679",59,26,1,"Fake",1,3,1,69,4.497
"2680",59,11,1,"Real",1,2,NA,70,4.718
"2681",59,51,1,"Real",1,4,NA,71,7.882
"2682",59,37,1,"Fake",1,5,1,72,3.883
"2683",59,20,1,"Fake",1,6,NA,73,2.556
"2684",59,23,1,"Fake",1,4,NA,74,5.36
"2685",59,25,1,"Real",1,5,1,75,3.153
"2686",59,32,1,"Real",1,3,1,76,8.941
"2687",59,50,1,"Real",1,2,1,77,6.674
"2688",59,41,1,"Fake",1,4,0,78,5.246
"2689",59,17,1,"Real",1,2,NA,79,2.236
"2690",59,7,1,"Fake",1,4,0,80,4.27
"2691",59,5,1,"Fake",1,5,NA,81,3.766
"2692",59,19,1,"Real",1,2,NA,82,5
"2693",59,12,1,"Fake",1,3,1,83,5.8
"2694",59,44,1,"Real",1,6,1,84,5.368
"2695",59,47,1,"Real",1,4,NA,85,1.912
"2696",59,46,1,"Fake",1,6,NA,86,5.495
"2697",59,30,1,"Fake",1,4,NA,87,2.973
"2698",59,42,1,"Real",1,5,1,88,1.944
"2699",59,13,1,"Fake",1,1,1,89,11.03
"2700",59,48,1,"Real",1,3,0,90,4.117
"2701",6,11,1,"Real",1,6,NA,37,7.15
"2702",6,54,1,"Fake",1,4,0,38,10.374
"2703",6,50,1,"Real",1,4,1,39,8.441
"2704",6,1,1,"Fake",1,2,0,40,8.931
"2705",6,52,1,"Fake",1,3,NA,41,7.73
"2706",6,22,1,"Fake",1,4,0,42,8.056
"2707",6,39,1,"Real",1,1,1,43,5.524
"2708",6,34,1,"Real",1,3,NA,44,9.424
"2709",6,6,1,"Fake",1,1,NA,45,4.666
"2710",6,23,1,"Fake",1,3,NA,46,10.73
"2711",6,12,1,"Fake",1,3,1,47,5.789
"2712",6,45,1,"Fake",1,2,0,48,7.222
"2713",6,37,1,"Fake",1,4,1,49,7.819
"2714",6,29,1,"Real",1,4,1,50,5.199
"2715",6,43,1,"Real",1,5,0,51,3.777
"2716",6,41,1,"Fake",1,4,0,52,12.405
"2717",6,19,1,"Real",1,3,NA,53,3.932
"2718",6,3,1,"Real",1,4,0,54,6.473
"2719",6,10,1,"Fake",1,3,1,55,0.682
"2720",6,2,1,"Real",1,4,NA,56,6.279
"2721",6,28,1,"Real",1,4,0,57,10.466
"2722",6,18,1,"Real",1,2,NA,58,7.409
