"","subject","statement_identifier","procedure_identifier","within_identifier","between_identifier","response","repeated","trial","rt"
"1",1,31,1,"NoneNo",1,3,0,1,15.679
"2",1,32,1,"NoneNo",1,2,0,2,15.104
"3",1,26,1,"NoneNo",1,4,1,3,8.79
"4",1,1,1,"RealNo",1,6,1,4,9.388
"5",1,33,1,"NoneYes",1,4,0,5,10.934
"6",1,13,1,"NoneYes",1,1,1,6,13.113
"7",1,19,1,"FakeYes",1,5,1,7,9.551
"8",1,30,1,"NoneNo",1,4,1,8,4.726
"9",1,3,1,"NoneNo",1,5,1,9,3.33
"10",1,8,1,"RealYes",1,5,1,10,7.056
"11",1,34,1,"RealNo",1,5,0,11,12.051
"12",1,2,1,"RealNo",1,5,1,12,4.12
"13",1,7,1,"FakeNo",1,5,1,13,10.446
"14",1,35,1,"RealYes",1,4,0,14,7.508
"15",1,27,1,"NoneNo",1,4,1,15,13.99
"16",1,36,1,"NoneYes",1,5,0,16,7.035
"17",1,10,1,"NoneYes",1,5,1,17,5.494
"18",1,37,1,"RealNo",1,6,0,18,8.931
"19",1,38,1,"RealYes",1,5,0,19,7.793
"20",1,39,1,"NoneYes",1,4,0,20,7.806
"21",1,40,1,"NoneYes",1,5,0,21,10.667
"22",1,41,1,"NoneNo",1,5,0,22,5.738
"23",1,42,1,"FakeYes",1,5,0,23,5.98
"24",1,6,1,"RealNo",1,5,1,24,4.205
"25",1,18,1,"NoneYes",1,1,1,25,5.719
"26",1,43,1,"RealYes",1,3,0,26,12.882
"27",1,23,1,"FakeYes",1,5,1,27,3.604
"28",1,44,1,"FakeNo",1,1,0,28,7.639
"29",1,5,1,"FakeNo",1,3,1,29,4.963
"30",1,12,1,"FakeYes",1,2,1,30,6.612
"31",1,45,1,"FakeYes",1,1,0,31,5.138
"32",1,9,1,"FakeYes",1,4,1,32,4.757
"33",1,46,1,"NoneYes",1,4,0,33,14.88
"34",1,25,1,"NoneYes",1,5,1,34,3.113
"35",1,47,1,"FakeNo",1,5,0,35,7.119
"36",1,48,1,"RealNo",1,5,0,36,9.778
"37",1,24,1,"FakeNo",1,5,1,37,1.999
"38",1,49,1,"RealNo",1,4,0,38,5.646
"39",1,50,1,"RealNo",1,1,0,39,7.798
"40",1,28,1,"NoneYes",1,4,1,40,3.378
"41",1,51,1,"FakeNo",1,5,0,41,5.055
"42",1,52,1,"FakeYes",1,1,0,42,8.34
"43",1,53,1,"NoneNo",1,3,0,43,4.243
"44",1,16,1,"RealYes",1,4,1,44,2.868
"45",1,54,1,"FakeYes",1,4,0,45,6.637
"46",1,22,1,"RealYes",1,5,1,46,4.793
"47",1,55,1,"FakeNo",1,5,0,47,5.964
"48",1,56,1,"RealYes",1,5,0,48,4.508
"49",1,14,1,"FakeNo",1,2,1,49,4.059
"50",1,57,1,"NoneNo",1,1,0,50,5.315
"51",1,58,1,"RealYes",1,5,0,51,5.399
"52",1,29,1,"RealYes",1,6,1,52,4.078
"53",1,17,1,"RealNo",1,4,1,53,2.765
"54",1,11,1,"FakeNo",1,4,1,54,3.997
"55",1,4,1,"NoneNo",1,1,1,55,2.384
"56",1,59,1,"FakeYes",1,2,0,56,4.95
"57",1,15,1,"RealYes",1,5,1,57,6.671
"58",1,60,1,"FakeNo",1,5,0,58,4.044
"59",1,20,1,"FakeYes",1,4,1,59,2.187
"60",1,21,1,"RealNo",1,4,1,60,2.947
"61",10,30,1,"RealYes",1,3,0,61,23.344
"62",10,47,1,"RealNo",1,5,1,62,39.522
"63",10,57,1,"RealYes",1,3,1,63,6.71
"64",10,18,1,"FakeYes",1,1,0,64,7.663
"65",10,25,1,"FakeYes",1,4,0,65,17.544
"66",10,9,1,"FakeNo",1,4,0,66,9.635
"67",10,3,1,"RealYes",1,4,0,67,13.332
"68",10,34,1,"NoneNo",1,3,1,68,7.117
"69",10,24,1,"RealNo",1,1,0,69,9.919
"70",10,8,1,"NoneYes",1,2,0,70,17.906
"71",10,40,1,"FakeYes",1,3,1,71,10.701
"72",10,54,1,"FakeNo",1,4,1,72,0.614
"73",10,50,1,"NoneNo",1,4,1,73,31.339
"74",10,21,1,"NoneNo",1,3,0,74,15.102
"75",10,20,1,"FakeNo",1,4,0,75,6.197
"76",10,53,1,"RealYes",1,5,1,76,3.564
"77",10,26,1,"RealYes",1,3,0,77,7.264
"78",10,56,1,"NoneYes",1,4,1,78,3.307
"79",10,41,1,"RealYes",1,4,1,79,12.37
"80",10,59,1,"FakeNo",1,4,1,80,6.035
"81",10,13,1,"FakeYes",1,1,0,81,26.143
"82",10,51,1,"RealNo",1,2,1,82,7.223
"83",10,6,1,"NoneNo",1,3,0,83,5.182
"84",10,60,1,"RealNo",1,5,1,84,5.832
"85",10,7,1,"RealNo",1,4,0,85,8.24
"86",10,43,1,"NoneYes",1,4,1,86,6.507
"87",10,36,1,"FakeYes",1,3,1,87,8.492
"88",10,44,1,"RealNo",1,4,1,88,3.437
"89",10,22,1,"NoneYes",1,2,0,89,12.287
"90",10,11,1,"RealNo",1,4,0,90,53.625
"91",10,17,1,"NoneNo",1,3,0,91,6.819
"92",10,5,1,"RealNo",1,5,0,92,6.616
"93",10,42,1,"FakeNo",1,3,1,93,5.032
"94",10,52,1,"FakeNo",1,3,1,94,5.104
"95",10,14,1,"RealNo",1,3,0,95,9.173
"96",10,58,1,"NoneYes",1,3,1,96,4.57
"97",10,16,1,"NoneYes",1,3,0,97,11.653
"98",10,12,1,"FakeNo",1,3,0,98,28.153
"99",10,10,1,"FakeYes",1,3,0,99,9.837
"100",10,29,1,"NoneYes",1,5,0,100,7.139
"101",10,37,1,"NoneNo",1,4,1,101,4.084
"102",10,48,1,"NoneNo",1,3,1,102,9.324
"103",10,15,1,"NoneYes",1,3,0,103,8.913
"104",10,39,1,"FakeYes",1,4,1,104,12.063
"105",10,31,1,"RealYes",1,3,1,105,6.572
"106",10,45,1,"FakeNo",1,1,1,106,6.214
"107",10,33,1,"FakeYes",1,1,1,107,9.346
"108",10,4,1,"RealYes",1,3,0,108,8.032
"109",10,23,1,"FakeNo",1,4,0,109,10.228
"110",10,38,1,"NoneYes",1,4,1,110,7.995
"111",10,1,1,"NoneNo",1,4,0,111,8.416
"112",10,28,1,"FakeYes",1,4,0,112,9.922
"113",10,49,1,"NoneNo",1,4,1,113,6.626
"114",10,46,1,"FakeYes",1,6,1,114,3.831
"115",10,2,1,"NoneNo",1,3,0,115,5.353
"116",10,27,1,"RealYes",1,1,0,116,6.723
"117",10,19,1,"FakeNo",1,2,0,117,9.206
"118",10,35,1,"NoneYes",1,4,1,118,8.791
"119",10,32,1,"RealYes",1,4,1,119,6.441
"120",10,55,1,"RealNo",1,5,1,120,4.176
"121",11,22,1,"FakeYes",1,5,1,121,7.784
"122",11,21,1,"NoneYes",1,2,1,122,6.506
"123",11,45,1,"RealYes",1,1,0,123,7.414
"124",11,4,1,"RealNo",1,5,1,124,5.346
"125",11,39,1,"FakeNo",1,2,0,125,9.542
"126",11,28,1,"FakeNo",1,3,1,126,5.714
"127",11,54,1,"RealYes",1,4,0,127,5.125
"128",11,43,1,"FakeYes",1,2,0,128,11.384
"129",11,5,1,"NoneNo",1,6,1,129,3.739
"130",11,27,1,"RealNo",1,5,1,130,3.455
"131",11,30,1,"RealNo",1,2,1,131,4.641
"132",11,46,1,"FakeNo",1,4,0,132,6.25
"133",11,41,1,"RealNo",1,5,0,133,4.208
"134",11,42,1,"RealYes",1,6,0,134,4.544
"135",11,32,1,"RealNo",1,2,0,135,7.62
"136",11,44,1,"NoneNo",1,2,0,136,3.346
"137",11,55,1,"NoneNo",1,3,0,137,3.816
"138",11,60,1,"NoneNo",1,2,0,138,4.076
"139",11,59,1,"RealYes",1,5,0,139,6.938
"140",11,1,1,"NoneYes",1,4,1,140,7.194
"141",11,57,1,"RealNo",1,5,0,141,5.242
"142",11,33,1,"FakeNo",1,2,0,142,3.903
"143",11,13,1,"FakeNo",1,5,1,143,4.276
"144",11,29,1,"FakeYes",1,4,1,144,7.657
"145",11,37,1,"NoneYes",1,2,0,145,4.217
"146",11,8,1,"FakeYes",1,4,1,146,3.816
"147",11,58,1,"FakeYes",1,4,0,147,6.581
"148",11,26,1,"RealNo",1,5,1,148,3.574
"149",11,17,1,"NoneYes",1,2,1,149,5.913
"150",11,6,1,"NoneYes",1,4,1,150,2.643
"151",11,18,1,"FakeNo",1,3,1,151,8.206
"152",11,36,1,"FakeNo",1,5,0,152,6.715
"153",11,25,1,"FakeNo",1,3,1,153,5.62
"154",11,2,1,"NoneYes",1,3,1,154,3.802
"155",11,50,1,"NoneYes",1,4,0,155,4.33
"156",11,40,1,"FakeNo",1,2,0,156,4.557
"157",11,15,1,"FakeYes",1,2,1,157,0.701
"158",11,31,1,"RealNo",1,6,0,158,5.016
"159",11,3,1,"RealNo",1,5,1,159,4.153
"160",11,35,1,"FakeYes",1,5,0,160,10.731
"161",11,47,1,"NoneNo",1,4,0,161,6.289
"162",11,11,1,"NoneNo",1,2,1,162,2.981
"163",11,14,1,"NoneNo",1,2,1,163,2.651
"164",11,20,1,"RealYes",1,4,1,164,6.77
"165",11,38,1,"FakeYes",1,3,0,165,5.482
"166",11,51,1,"NoneNo",1,5,0,166,3.135
"167",11,53,1,"RealNo",1,6,0,167,5.942
"168",11,34,1,"NoneYes",1,4,0,168,7.127
"169",11,12,1,"RealYes",1,6,1,169,4.973
"170",11,9,1,"RealYes",1,6,1,170,3.999
"171",11,10,1,"FakeNo",1,2,1,171,6.811
"172",11,52,1,"RealYes",1,6,0,172,6.847
"173",11,24,1,"NoneNo",1,5,1,173,2.716
"174",11,7,1,"NoneNo",1,2,1,174,2.205
"175",11,56,1,"FakeYes",1,2,0,175,3.936
"176",11,23,1,"RealYes",1,5,1,176,4.268
"177",11,49,1,"NoneYes",1,5,0,177,3.386
"178",11,48,1,"NoneYes",1,4,0,178,6.941
"179",11,16,1,"FakeYes",1,4,1,179,4.108
"180",11,19,1,"RealYes",1,5,1,180,5.305
"181",12,53,1,"RealNo",1,5,1,181,17.846
"182",12,59,1,"RealYes",1,6,1,182,10.029
"183",12,23,1,"RealYes",1,2,0,183,10.451
"184",12,10,1,"FakeNo",1,2,0,184,9.22
"185",12,7,1,"NoneNo",1,3,0,185,11.327
"186",12,57,1,"RealNo",1,5,1,186,11.06
"187",12,3,1,"RealNo",1,5,0,187,10.292
"188",12,52,1,"RealYes",1,6,1,188,9.689
"189",12,48,1,"NoneYes",1,6,1,189,7.248
"190",12,50,1,"NoneYes",1,5,1,190,6.21
"191",12,25,1,"FakeNo",1,5,0,191,6.755
"192",12,2,1,"NoneYes",1,5,0,192,9.08
"193",12,55,1,"NoneNo",1,2,1,193,7.825
"194",12,60,1,"NoneNo",1,6,1,194,5.895
"195",12,12,1,"RealYes",1,5,0,195,14.744
"196",12,22,1,"FakeYes",1,6,0,196,11.07
"197",12,27,1,"RealNo",1,5,0,197,6.397
"198",12,32,1,"RealNo",1,5,1,198,13.925
"199",12,8,1,"FakeYes",1,3,0,199,17.86
"200",12,9,1,"RealYes",1,4,0,200,7.217
"201",12,20,1,"RealYes",1,5,0,201,9.11
"202",12,30,1,"RealNo",1,4,0,202,32.117
"203",12,35,1,"FakeYes",1,5,1,203,4.991
"204",12,11,1,"NoneNo",1,4,0,204,7.656
"205",12,16,1,"FakeYes",1,4,0,205,7.653
"206",12,39,1,"FakeNo",1,4,1,206,9.312
"207",12,51,1,"NoneNo",1,2,1,207,6.815
"208",12,4,1,"RealNo",1,2,0,208,7.254
"209",12,56,1,"FakeYes",1,5,1,209,7.052
"210",12,49,1,"NoneYes",1,5,1,210,5.656
"211",12,40,1,"FakeNo",1,5,1,211,9.222
"212",12,43,1,"FakeYes",1,5,1,212,4.681
"213",12,1,1,"NoneYes",1,6,0,213,14.078
"214",12,46,1,"FakeNo",1,5,1,214,6.106
"215",12,38,1,"FakeYes",1,6,1,215,4.533
"216",12,29,1,"FakeYes",1,5,0,216,7.345
"217",12,47,1,"NoneNo",1,4,1,217,6.914
"218",12,42,1,"RealYes",1,5,1,218,2.955
"219",12,21,1,"NoneYes",1,3,0,219,9.791
"220",12,14,1,"NoneNo",1,2,0,220,6.141
"221",12,26,1,"RealNo",1,3,0,221,5.559
"222",12,24,1,"NoneNo",1,3,0,222,4.25
"223",12,34,1,"NoneYes",1,5,1,223,5.235
"224",12,37,1,"NoneYes",1,5,1,224,8.694
"225",12,54,1,"RealYes",1,5,1,225,4.502
"226",12,18,1,"FakeNo",1,4,0,226,17.732
"227",12,44,1,"NoneNo",1,5,1,227,4.048
"228",12,28,1,"FakeNo",1,5,0,228,14.417
"229",12,41,1,"RealNo",1,5,1,229,5.654
"230",12,31,1,"RealNo",1,5,1,230,4.062
"231",12,13,1,"FakeNo",1,5,0,231,10.39
"232",12,45,1,"RealYes",1,5,1,232,8.481
"233",12,6,1,"NoneYes",1,4,0,233,9.681
"234",12,15,1,"FakeYes",1,3,0,234,7.898
"235",12,19,1,"RealYes",1,3,0,235,11.128
"236",12,33,1,"FakeNo",1,6,1,236,5.677
"237",12,5,1,"NoneNo",1,2,0,237,8.275
"238",12,58,1,"FakeYes",1,6,1,238,6.333
"239",12,36,1,"FakeNo",1,6,1,239,4.239
"240",12,17,1,"NoneYes",1,3,0,240,7.992
"241",13,13,1,"NoneYes",1,5,1,241,8.564
"242",13,58,1,"RealYes",1,4,0,242,5.498
"243",13,55,1,"FakeNo",1,2,0,243,3.823
"244",13,19,1,"FakeYes",1,5,1,244,5.967
"245",13,33,1,"NoneYes",1,4,0,245,5.753
"246",13,54,1,"FakeYes",1,4,0,246,7.136
"247",13,53,1,"NoneNo",1,3,0,247,3.707
"248",13,37,1,"RealNo",1,2,0,248,4.73
"249",13,60,1,"FakeNo",1,4,0,249,4.98
"250",13,32,1,"NoneNo",1,1,0,250,5.776
"251",13,45,1,"FakeYes",1,6,0,251,5.32
"252",13,48,1,"RealNo",1,3,0,252,3.845
"253",13,44,1,"FakeNo",1,3,0,253,4.407
"254",13,57,1,"NoneNo",1,4,0,254,6.05
"255",13,26,1,"NoneNo",1,3,1,255,5.96
"256",13,28,1,"NoneYes",1,5,1,256,2.481
"257",13,9,1,"FakeYes",1,4,1,257,2.233
"258",13,1,1,"RealNo",1,3,1,258,4.103
"259",13,42,1,"FakeYes",1,5,0,259,4.099
"260",13,4,1,"NoneNo",1,5,1,260,2.522
"261",13,59,1,"FakeYes",1,5,0,261,3.458
"262",13,22,1,"RealYes",1,6,1,262,2.883
"263",13,16,1,"RealYes",1,5,1,263,2.027
"264",13,21,1,"RealNo",1,4,1,264,2.863
"265",13,31,1,"NoneNo",1,5,0,265,5.066
"266",13,15,1,"RealYes",1,5,1,266,1.856
"267",13,10,1,"NoneYes",1,3,1,267,2.841
"268",13,51,1,"FakeNo",1,4,0,268,7.14
"269",13,25,1,"NoneYes",1,4,1,269,3.053
"270",13,49,1,"RealNo",1,3,0,270,2.84
"271",13,35,1,"RealYes",1,5,0,271,6.505
"272",13,17,1,"RealNo",1,3,1,272,3.581
"273",13,40,1,"NoneYes",1,5,0,273,6.551
"274",13,20,1,"FakeYes",1,5,1,274,2.841
"275",13,43,1,"RealYes",1,5,0,275,3.018
"276",13,41,1,"NoneNo",1,4,0,276,6.238
"277",13,18,1,"NoneYes",1,6,1,277,2.668
"278",13,23,1,"FakeYes",1,4,1,278,1.869
"279",13,5,1,"FakeNo",1,3,1,279,2.191
"280",13,27,1,"NoneNo",1,5,1,280,2.021
"281",13,14,1,"FakeNo",1,4,1,281,2.219
"282",13,36,1,"NoneYes",1,6,0,282,6.205
"283",13,8,1,"RealYes",1,5,1,283,2.74
"284",13,47,1,"FakeNo",1,3,0,284,3.243
"285",13,24,1,"FakeNo",1,5,1,285,1.573
"286",13,56,1,"RealYes",1,4,0,286,5.035
"287",13,46,1,"NoneYes",1,4,0,287,3.355
"288",13,52,1,"FakeYes",1,4,0,288,6.783
"289",13,6,1,"RealNo",1,4,1,289,3.278
"290",13,38,1,"RealYes",1,6,0,290,4.119
"291",13,3,1,"NoneNo",1,4,1,291,3.557
"292",13,30,1,"NoneNo",1,3,1,292,3.331
"293",13,34,1,"RealNo",1,4,0,293,8.448
"294",13,12,1,"FakeYes",1,5,1,294,2.218
"295",13,39,1,"NoneYes",1,4,0,295,4.502
"296",13,11,1,"FakeNo",1,5,1,296,2.363
"297",13,2,1,"RealNo",1,5,1,297,2.186
"298",13,29,1,"RealYes",1,5,1,298,2.534
"299",13,50,1,"RealNo",1,4,0,299,2.117
"300",13,7,1,"FakeNo",1,3,1,300,2.038
"301",14,30,1,"NoneNo",1,1,0,301,10.482
"302",14,6,1,"RealNo",1,2,0,302,10.32
"303",14,50,1,"RealNo",1,6,1,303,13.781
"304",14,60,1,"FakeNo",1,6,1,304,3.706
"305",14,3,1,"NoneNo",1,4,0,305,7.002
"306",14,20,1,"FakeYes",1,4,0,306,7.437
"307",14,23,1,"FakeYes",1,1,0,307,8.132
"308",14,39,1,"NoneYes",1,4,1,308,12.043
"309",14,5,1,"FakeNo",1,5,0,309,6.057
"310",14,40,1,"NoneYes",1,3,1,310,5.223
"311",14,33,1,"NoneYes",1,5,1,311,3.637
"312",14,46,1,"NoneYes",1,5,1,312,1.72
"313",14,41,1,"NoneNo",1,4,1,313,3.579
"314",14,49,1,"RealNo",1,6,1,314,2.72
"315",14,38,1,"RealYes",1,5,1,315,4.213
"316",14,34,1,"RealNo",1,4,1,316,5.286
"317",14,29,1,"RealYes",1,5,0,317,6.658
"318",14,25,1,"NoneYes",1,4,0,318,8.085
"319",14,7,1,"FakeNo",1,1,0,319,4.111
"320",14,8,1,"RealYes",1,3,0,320,7.114
"321",14,12,1,"FakeYes",1,4,0,321,6.067
"322",14,43,1,"RealYes",1,6,1,322,5.919
"323",14,21,1,"RealNo",1,5,0,323,5.755
"324",14,35,1,"RealYes",1,6,1,324,3.419
"325",14,56,1,"RealYes",1,6,1,325,3.788
"326",14,32,1,"NoneNo",1,2,1,326,3.617
"327",14,4,1,"NoneNo",1,5,0,327,3.94
"328",14,42,1,"FakeYes",1,1,1,328,3.958
"329",14,53,1,"NoneNo",1,5,1,329,3.42
"330",14,18,1,"NoneYes",1,3,0,330,7.932
"331",14,54,1,"FakeYes",1,5,1,331,5.101
"332",14,14,1,"FakeNo",1,1,0,332,4.234
"333",14,55,1,"FakeNo",1,5,1,333,3.604
"334",14,16,1,"RealYes",1,6,0,334,3.941
"335",14,52,1,"FakeYes",1,6,1,335,7.747
"336",14,17,1,"RealNo",1,6,0,336,5.834
"337",14,48,1,"RealNo",1,6,1,337,3.561
"338",14,9,1,"FakeYes",1,3,0,338,7.253
"339",14,59,1,"FakeYes",1,5,1,339,4.385
"340",14,11,1,"FakeNo",1,2,0,340,7.933
"341",14,57,1,"NoneNo",1,2,1,341,3.829
"342",14,24,1,"FakeNo",1,2,0,342,4.472
"343",14,2,1,"RealNo",1,5,0,343,0.974
"344",14,36,1,"NoneYes",1,3,1,344,3.565
"345",14,45,1,"FakeYes",1,3,1,345,5.753
"346",14,13,1,"NoneYes",1,1,0,346,4.418
"347",14,15,1,"RealYes",1,1,0,347,8.704
"348",14,10,1,"NoneYes",1,1,0,348,4.254
"349",14,37,1,"RealNo",1,5,1,349,7.007
"350",14,47,1,"FakeNo",1,4,1,350,3.838
"351",14,51,1,"FakeNo",1,4,1,351,12.808
"352",14,1,1,"RealNo",1,5,0,352,5.07
"353",14,27,1,"NoneNo",1,2,0,353,3.998
"354",14,31,1,"NoneNo",1,3,1,354,2.77
"355",14,44,1,"FakeNo",1,1,1,355,3.935
"356",14,28,1,"NoneYes",1,2,0,356,4.7
"357",14,58,1,"RealYes",1,5,1,357,4.195
"358",14,22,1,"RealYes",1,5,0,358,4.948
"359",14,26,1,"NoneNo",1,5,0,359,3.847
"360",14,19,1,"FakeYes",1,3,0,360,8.471
"361",15,45,1,"NoneYes",1,1,0,361,4.269
"362",15,46,1,"NoneNo",1,6,0,362,3.43
"363",15,9,1,"NoneYes",1,6,1,363,2.588
"364",15,58,1,"RealNo",1,5,0,364,6.874
"365",15,3,1,"FakeNo",1,6,1,365,2.781
"366",15,49,1,"FakeYes",1,4,0,366,6.717
"367",15,48,1,"FakeYes",1,3,0,367,4.579
"368",15,12,1,"NoneYes",1,6,1,368,1.963
"369",15,13,1,"NoneNo",1,5,1,369,2.075
"370",15,15,1,"RealNo",1,5,1,370,3.565
"371",15,7,1,"RealYes",1,6,1,371,2.374
"372",15,56,1,"RealNo",1,6,0,372,3.7
"373",15,60,1,"RealYes",1,6,0,373,2.954
"374",15,26,1,"FakeNo",1,5,1,374,2.495
"375",15,35,1,"RealNo",1,2,0,375,7.943
"376",15,40,1,"NoneNo",1,6,0,376,2.585
"377",15,57,1,"FakeNo",1,3,0,377,6.988
"378",15,41,1,"FakeNo",1,1,0,378,4.115
"379",15,28,1,"NoneNo",1,3,1,379,4.411
"380",15,14,1,"RealYes",1,5,1,380,3.93
"381",15,31,1,"FakeNo",1,6,0,381,3.664
"382",15,51,1,"RealYes",1,6,0,382,5.743
"383",15,33,1,"NoneNo",1,6,0,383,4.146
"384",15,23,1,"NoneYes",1,5,1,384,2.756
"385",15,4,1,"FakeNo",1,6,1,385,2.242
"386",15,42,1,"NoneYes",1,6,0,386,5.477
"387",15,2,1,"FakeYes",1,6,1,387,1.615
"388",15,27,1,"FakeNo",1,5,1,388,3.884
"389",15,22,1,"RealNo",1,6,1,389,1.924
"390",15,24,1,"RealYes",1,6,1,390,2.005
"391",15,38,1,"RealNo",1,2,0,391,3.146
"392",15,25,1,"NoneNo",1,4,1,392,2.968
"393",15,30,1,"FakeNo",1,5,1,393,1.982
"394",15,16,1,"RealNo",1,6,1,394,1.796
"395",15,52,1,"NoneYes",1,2,0,395,10.079
"396",15,47,1,"RealYes",1,6,0,396,1.757
"397",15,36,1,"NoneNo",1,5,0,397,6.406
"398",15,10,1,"NoneNo",1,3,1,398,4.326
"399",15,44,1,"RealYes",1,6,0,399,2.345
"400",15,39,1,"NoneNo",1,2,0,400,6.777
"401",15,1,1,"FakeYes",1,6,1,401,1.953
"402",15,29,1,"RealNo",1,6,1,402,2.599
"403",15,11,1,"RealYes",1,6,1,403,2.041
"404",15,37,1,"FakeYes",1,6,0,404,2.236
"405",15,21,1,"FakeYes",1,5,1,405,3.054
"406",15,32,1,"FakeNo",1,6,0,406,3.45
"407",15,53,1,"FakeNo",1,3,0,407,5.249
"408",15,55,1,"RealYes",1,6,0,408,2.479
"409",15,20,1,"NoneYes",1,6,1,409,4.55
"410",15,17,1,"FakeYes",1,6,1,410,2.433
"411",15,59,1,"NoneYes",1,1,0,411,6.108
"412",15,18,1,"NoneNo",1,2,1,412,4.018
"413",15,19,1,"NoneYes",1,6,1,413,2.025
"414",15,54,1,"NoneYes",1,5,0,414,9.98
"415",15,8,1,"RealNo",1,6,1,415,2.48
"416",15,5,1,"RealYes",1,6,1,416,2.777
"417",15,34,1,"FakeYes",1,6,0,417,4.07
"418",15,43,1,"RealNo",1,5,0,418,2.278
"419",15,6,1,"FakeYes",1,6,1,419,1.758
"420",15,50,1,"FakeYes",1,4,0,420,3.82
"421",16,33,1,"NoneNo",1,1,1,421,6.379
"422",16,41,1,"FakeNo",1,2,1,422,9.338
"423",16,14,1,"RealYes",1,2,0,423,10.032
"424",16,20,1,"NoneYes",1,4,0,424,7.488
"425",16,18,1,"NoneNo",1,5,0,425,7.724
"426",16,23,1,"NoneYes",1,4,0,426,12.901
"427",16,1,1,"FakeYes",1,4,0,427,8.813
"428",16,5,1,"RealYes",1,4,0,428,8.777
"429",16,32,1,"FakeNo",1,2,1,429,9.599
"430",16,27,1,"FakeNo",1,2,0,430,10.108
"431",16,10,1,"NoneNo",1,2,0,431,4.705
"432",16,39,1,"NoneNo",1,5,1,432,5.167
"433",16,43,1,"RealNo",1,5,1,433,5.866
"434",16,12,1,"NoneYes",1,2,0,434,9.167
"435",16,30,1,"FakeNo",1,2,0,435,14.381
"436",16,15,1,"RealNo",1,3,0,436,9.459
"437",16,13,1,"NoneNo",1,5,0,437,6.373
"438",16,19,1,"NoneYes",1,5,0,438,9.846
"439",16,51,1,"RealYes",1,3,1,439,11.868
"440",16,3,1,"FakeNo",1,5,0,440,6.01
"441",16,56,1,"RealNo",1,5,1,441,6.747
"442",16,58,1,"RealNo",1,2,1,442,6.133
"443",16,36,1,"NoneNo",1,4,1,443,5.616
"444",16,57,1,"FakeNo",1,4,1,444,9.609
"445",16,26,1,"FakeNo",1,4,0,445,7.148
"446",16,40,1,"NoneNo",1,4,1,446,12.132
"447",16,47,1,"RealYes",1,4,1,447,5.797
"448",16,60,1,"RealYes",1,5,1,448,9.628
"449",16,46,1,"NoneNo",1,2,1,449,5.581
"450",16,42,1,"NoneYes",1,4,1,450,2.463
"451",16,55,1,"RealYes",1,5,1,451,4.862
"452",16,31,1,"FakeNo",1,3,1,452,4.334
"453",16,24,1,"RealYes",1,5,0,453,4.435
"454",16,29,1,"RealNo",1,2,0,454,9.78
"455",16,54,1,"NoneYes",1,3,1,455,5.863
"456",16,59,1,"NoneYes",1,5,1,456,3.446
"457",16,34,1,"FakeYes",1,3,1,457,8.79
"458",16,6,1,"FakeYes",1,3,0,458,6.377
"459",16,44,1,"RealYes",1,4,1,459,4.665
"460",16,4,1,"FakeNo",1,4,0,460,5.633
"461",16,2,1,"FakeYes",1,1,0,461,5.504
"462",16,45,1,"NoneYes",1,3,1,462,5.285
"463",16,21,1,"FakeYes",1,2,0,463,10.777
"464",16,35,1,"RealNo",1,4,1,464,3.484
"465",16,7,1,"RealYes",1,4,0,465,7.026
"466",16,22,1,"RealNo",1,5,0,466,8.202
"467",16,16,1,"RealNo",1,2,0,467,6.51
"468",16,50,1,"FakeYes",1,3,1,468,5.945
"469",16,17,1,"FakeYes",1,4,0,469,8.626
"470",16,49,1,"FakeYes",1,4,1,470,6.436
"471",16,11,1,"RealYes",1,4,0,471,1.212
"472",16,52,1,"NoneYes",1,6,1,472,5.338
"473",16,8,1,"RealNo",1,6,0,473,14.43
"474",16,38,1,"RealNo",1,6,1,474,4.065
"475",16,37,1,"FakeYes",1,5,1,475,2.752
"476",16,53,1,"FakeNo",1,4,1,476,4.055
"477",16,28,1,"NoneNo",1,4,0,477,12.921
"478",16,48,1,"FakeYes",1,2,1,478,10.063
"479",16,9,1,"NoneYes",1,2,0,479,7.288
"480",16,25,1,"NoneNo",1,3,0,480,6.634
"481",17,43,1,"FakeNo",1,2,0,481,6.172
"482",17,28,1,"RealNo",1,3,1,482,7.39
"483",17,30,1,"FakeYes",1,2,1,483,7.092
"484",17,54,1,"NoneNo",1,3,0,484,10.215
"485",17,9,1,"NoneNo",1,2,1,485,6.024
"486",17,1,1,"RealYes",1,5,1,486,5.496
"487",17,60,1,"NoneYes",1,3,0,487,8.557
"488",17,56,1,"FakeNo",1,3,0,488,8.027
"489",17,38,1,"FakeNo",1,4,0,489,6.793
"490",17,55,1,"NoneYes",1,3,0,490,6.84
"491",17,24,1,"NoneYes",1,3,1,491,4.471
"492",17,46,1,"RealNo",1,3,0,492,7.342
"493",17,10,1,"RealNo",1,1,1,493,5.36
"494",17,57,1,"FakeYes",1,4,0,494,6.554
"495",17,52,1,"NoneNo",1,2,0,495,14.723
"496",17,40,1,"RealNo",1,2,0,496,8.971
"497",17,3,1,"FakeYes",1,3,1,497,6.256
"498",17,19,1,"NoneNo",1,4,1,498,4.453
"499",17,36,1,"RealNo",1,3,0,499,9.493
"500",17,17,1,"RealYes",1,3,1,500,4.876
"501",17,41,1,"FakeYes",1,3,0,501,8.64
"502",17,25,1,"RealNo",1,4,1,502,5.9
"503",17,29,1,"FakeNo",1,4,1,503,6.407
"504",17,12,1,"NoneNo",1,3,1,504,3.055
"505",17,20,1,"NoneNo",1,3,1,505,3.875
"506",17,7,1,"NoneYes",1,2,1,506,5.146
"507",17,47,1,"NoneYes",1,2,0,507,8.799
"508",17,23,1,"NoneNo",1,4,1,508,5.427
"509",17,21,1,"RealYes",1,3,1,509,5.585
"510",17,39,1,"RealNo",1,3,0,510,11.915
"511",17,5,1,"NoneYes",1,3,1,511,5.678
"512",17,34,1,"RealYes",1,3,0,512,7.804
"513",17,4,1,"FakeYes",1,2,1,513,4.974
"514",17,35,1,"FakeNo",1,3,0,514,15.193
"515",17,32,1,"FakeYes",1,4,0,515,6.636
"516",17,42,1,"NoneNo",1,3,0,516,4.209
"517",17,59,1,"NoneNo",1,4,0,517,7.5
"518",17,48,1,"RealYes",1,3,0,518,6.231
"519",17,58,1,"FakeNo",1,3,0,519,4.054
"520",17,18,1,"RealNo",1,4,1,520,8.231
"521",17,2,1,"RealYes",1,4,1,521,4.995
"522",17,44,1,"NoneYes",1,3,0,522,5.205
"523",17,15,1,"FakeNo",1,3,1,523,6.007
"524",17,8,1,"FakeNo",1,3,1,524,3.887
"525",17,53,1,"FakeYes",1,2,0,525,6.21
"526",17,16,1,"FakeNo",1,4,1,526,2.123
"527",17,13,1,"RealNo",1,3,1,527,3.837
"528",17,49,1,"RealYes",1,4,0,528,7.934
"529",17,27,1,"FakeYes",1,3,1,529,4.524
"530",17,22,1,"FakeNo",1,3,1,530,5.418
"531",17,14,1,"NoneYes",1,2,1,531,11.081
"532",17,26,1,"FakeYes",1,2,1,532,3.303
"533",17,51,1,"NoneYes",1,2,0,533,6.239
"534",17,11,1,"NoneYes",1,3,1,534,3.692
"535",17,33,1,"RealNo",1,3,0,535,5.764
"536",17,6,1,"RealYes",1,3,1,536,4.463
"537",17,37,1,"RealYes",1,3,0,537,7.886
"538",17,50,1,"RealYes",1,3,0,538,6.593
"539",17,45,1,"NoneNo",1,1,0,539,4.61
"540",17,31,1,"FakeYes",1,2,0,540,7.724
"541",18,8,1,"FakeNo",1,5,0,541,12.383
"542",18,56,1,"FakeNo",1,6,1,542,6.535
"543",18,59,1,"NoneNo",1,4,1,543,15.507
"544",18,51,1,"NoneYes",1,1,1,544,4.726
"545",18,3,1,"FakeYes",1,5,0,545,6.735
"546",18,36,1,"RealNo",1,6,1,546,5.642
"547",18,10,1,"RealNo",1,3,0,547,8.024
"548",18,14,1,"NoneYes",1,2,0,548,5.843
"549",18,1,1,"RealYes",1,4,0,549,5.288
"550",18,57,1,"FakeYes",1,3,1,550,6.473
"551",18,22,1,"FakeNo",1,4,0,551,12.046
"552",18,43,1,"FakeNo",1,6,1,552,2.395
"553",18,42,1,"NoneNo",1,3,1,553,3.53
"554",18,23,1,"NoneNo",1,4,0,554,10.159
"555",18,55,1,"NoneYes",1,1,1,555,3.937
"556",18,24,1,"NoneYes",1,2,0,556,7.614
"557",18,35,1,"FakeNo",1,5,1,557,3.682
"558",18,52,1,"NoneNo",1,6,1,558,5.082
"559",18,19,1,"NoneNo",1,6,0,559,16.327
"560",18,60,1,"NoneYes",1,4,1,560,10.515
"561",18,38,1,"FakeNo",1,4,1,561,8.113
"562",18,13,1,"RealNo",1,5,0,562,12.001
"563",18,20,1,"NoneNo",1,3,0,563,12.626
"564",18,26,1,"FakeYes",1,2,0,564,7.503
"565",18,25,1,"RealNo",1,5,0,565,6.225
"566",18,53,1,"FakeYes",1,4,1,566,8.821
"567",18,45,1,"NoneNo",1,6,1,567,3.922
"568",18,11,1,"NoneYes",1,5,0,568,7.501
"569",18,27,1,"FakeYes",1,4,0,569,7.349
"570",18,41,1,"FakeYes",1,6,1,570,3.259
"571",18,31,1,"FakeYes",1,2,1,571,4.065
"572",18,29,1,"FakeNo",1,3,0,572,8.594
"573",18,30,1,"FakeYes",1,2,0,573,10.909
"574",18,44,1,"NoneYes",1,5,1,574,3.042
"575",18,40,1,"RealNo",1,6,1,575,4.261
"576",18,4,1,"FakeYes",1,2,0,576,6.736
"577",18,12,1,"NoneNo",1,5,0,577,7.747
"578",18,33,1,"RealNo",1,4,1,578,4.138
"579",18,5,1,"NoneYes",1,3,0,579,8.206
"580",18,54,1,"NoneNo",1,3,1,580,6.387
"581",18,18,1,"RealNo",1,4,0,581,11.243
"582",18,16,1,"FakeNo",1,4,0,582,5.491
"583",18,28,1,"RealNo",1,2,0,583,6.936
"584",18,49,1,"RealYes",1,5,1,584,4.24
"585",18,6,1,"RealYes",1,1,0,585,4.159
"586",18,37,1,"RealYes",1,5,1,586,5.993
"587",18,39,1,"RealNo",1,2,1,587,4.489
"588",18,2,1,"RealYes",1,6,0,588,4.588
"589",18,32,1,"FakeYes",1,2,1,589,7.326
"590",18,9,1,"NoneNo",1,3,0,590,7.295
"591",18,46,1,"RealNo",1,2,1,591,5.164
"592",18,58,1,"FakeNo",1,5,1,592,3.407
"593",18,34,1,"RealYes",1,2,1,593,3.353
"594",18,47,1,"NoneYes",1,6,1,594,3.452
"595",18,15,1,"FakeNo",1,1,0,595,9.375
"596",18,50,1,"RealYes",1,4,1,596,3.359
"597",18,17,1,"RealYes",1,6,0,597,5.049
"598",18,48,1,"RealYes",1,2,1,598,3.695
"599",18,7,1,"NoneYes",1,4,0,599,11.661
"600",18,21,1,"RealYes",1,6,0,600,10.818
"601",19,60,1,"FakeYes",1,5,0,601,8.242
"602",19,36,1,"RealYes",1,4,0,602,7.053
"603",19,53,1,"NoneYes",1,2,0,603,5.154
"604",19,45,1,"RealNo",1,6,0,604,8.293
"605",19,48,1,"FakeNo",1,3,0,605,10.791
"606",19,32,1,"NoneYes",1,4,0,606,6.328
"607",19,2,1,"FakeNo",1,5,1,607,10.922
"608",19,23,1,"RealNo",1,4,1,608,5.288
"609",19,39,1,"RealYes",1,5,0,609,8.98
"610",19,5,1,"FakeYes",1,4,1,610,5.504
"611",19,55,1,"FakeYes",1,2,0,611,5.324
"612",19,27,1,"NoneYes",1,2,1,612,3.071
"613",19,58,1,"NoneNo",1,4,0,613,7.081
"614",19,50,1,"FakeNo",1,2,0,614,22.965
"615",19,4,1,"NoneYes",1,1,1,615,5.775
"616",19,46,1,"RealYes",1,5,0,616,8.064
"617",19,43,1,"NoneNo",1,5,0,617,7.603
"618",19,7,1,"FakeYes",1,3,1,618,8.618
"619",19,57,1,"NoneYes",1,2,0,619,4.277
"620",19,17,1,"FakeNo",1,4,1,620,6.06
"621",19,8,1,"NoneNo",1,5,1,621,13.266
"622",19,59,1,"RealNo",1,4,0,622,5.895
"623",19,33,1,"RealYes",1,4,0,623,8.498
"624",19,13,1,"RealYes",1,4,1,624,19.363
"625",19,15,1,"NoneNo",1,4,1,625,4.684
"626",19,56,1,"NoneNo",1,6,0,626,2.34
"627",19,30,1,"NoneYes",1,3,1,627,6.97
"628",19,34,1,"FakeNo",1,2,0,628,6.93
"629",19,20,1,"RealNo",1,4,1,629,2.292
"630",19,3,1,"NoneYes",1,5,1,630,5.189
"631",19,18,1,"RealYes",1,5,1,631,3.15
"632",19,1,1,"FakeNo",1,6,1,632,3.742
"633",19,49,1,"FakeNo",1,4,0,633,9.635
"634",19,40,1,"RealYes",1,3,0,634,4.535
"635",19,19,1,"RealNo",1,4,1,635,5.843
"636",19,28,1,"RealYes",1,4,1,636,4.712
"637",19,35,1,"NoneNo",1,5,0,637,13.51
"638",19,54,1,"RealNo",1,5,0,638,7.456
"639",19,9,1,"RealNo",1,4,1,639,5.365
"640",19,44,1,"FakeYes",1,2,0,640,4.694
"641",19,52,1,"RealNo",1,3,0,641,11.869
"642",19,10,1,"RealYes",1,3,1,642,6.155
"643",19,12,1,"RealNo",1,5,1,643,3.637
"644",19,38,1,"NoneNo",1,4,0,644,7.655
"645",19,37,1,"FakeNo",1,3,0,645,11.907
"646",19,47,1,"FakeYes",1,3,0,646,3.974
"647",19,51,1,"FakeYes",1,2,0,647,5.431
"648",19,14,1,"FakeYes",1,2,1,648,5.838
"649",19,26,1,"NoneYes",1,3,1,649,2.78
"650",19,22,1,"NoneNo",1,4,1,650,3.21
"651",19,24,1,"FakeYes",1,5,1,651,3.876
"652",19,6,1,"FakeNo",1,2,1,652,2.942
"653",19,42,1,"RealNo",1,2,0,653,8.444
"654",19,11,1,"FakeYes",1,5,1,654,4.103
"655",19,31,1,"NoneYes",1,3,0,655,4.588
"656",19,16,1,"NoneNo",1,5,1,656,2.968
"657",19,41,1,"NoneYes",1,3,0,657,6.805
"658",19,25,1,"RealYes",1,5,1,658,4.02
"659",19,21,1,"FakeNo",1,4,1,659,4.357
"660",19,29,1,"NoneNo",1,3,1,660,4.065
"661",2,26,1,"NoneNo",1,2,0,661,9.899
"662",2,5,1,"FakeNo",1,6,0,662,10.841
"663",2,37,1,"RealNo",1,6,1,663,12.498
"664",2,15,1,"RealYes",1,4,0,664,6.813
"665",2,8,1,"RealYes",1,6,0,665,8.54
"666",2,40,1,"NoneYes",1,2,1,666,4.483
"667",2,7,1,"FakeNo",1,3,0,667,7.138
"668",2,10,1,"NoneYes",1,1,0,668,6.14
"669",2,17,1,"RealNo",1,6,0,669,6.838
"670",2,60,1,"FakeNo",1,4,1,670,7.124
"671",2,47,1,"FakeNo",1,2,1,671,3.558
"672",2,34,1,"RealNo",1,3,1,672,4.235
"673",2,54,1,"FakeYes",1,1,1,673,3.804
"674",2,24,1,"FakeNo",1,2,0,674,4.312
"675",2,22,1,"RealYes",1,3,0,675,6.797
"676",2,13,1,"NoneYes",1,1,0,676,8.357
"677",2,57,1,"NoneNo",1,1,1,677,4.132
"678",2,38,1,"RealYes",1,5,1,678,6.346
"679",2,49,1,"RealNo",1,5,1,679,3.253
"680",2,45,1,"FakeYes",1,3,1,680,4.328
"681",2,19,1,"FakeYes",1,5,0,681,8.812
"682",2,44,1,"FakeNo",1,1,1,682,2.391
"683",2,59,1,"FakeYes",1,4,1,683,6.148
"684",2,56,1,"RealYes",1,2,1,684,5.119
"685",2,33,1,"NoneYes",1,1,1,685,5.54
"686",2,9,1,"FakeYes",1,4,0,686,8.672
"687",2,29,1,"RealYes",1,5,0,687,5.841
"688",2,39,1,"NoneYes",1,2,1,688,4.838
"689",2,31,1,"NoneNo",1,4,1,689,3.288
"690",2,42,1,"FakeYes",1,6,1,690,3.92
"691",2,6,1,"RealNo",1,3,0,691,5.335
"692",2,53,1,"NoneNo",1,2,1,692,4.651
"693",2,41,1,"NoneNo",1,3,1,693,6.571
"694",2,50,1,"RealNo",1,6,1,694,4.925
"695",2,58,1,"RealYes",1,4,1,695,4.217
"696",2,55,1,"FakeNo",1,5,1,696,5.292
"697",2,48,1,"RealNo",1,2,1,697,7.185
"698",2,46,1,"NoneYes",1,5,1,698,5.481
"699",2,52,1,"FakeYes",1,6,1,699,5.927
"700",2,30,1,"NoneNo",1,6,0,700,7.713
"701",2,25,1,"NoneYes",1,3,0,701,9.955
"702",2,14,1,"FakeNo",1,1,0,702,5.752
"703",2,12,1,"FakeYes",1,4,0,703,8.995
"704",2,20,1,"FakeYes",1,1,0,704,4.014
"705",2,35,1,"RealYes",1,6,1,705,2.448
"706",2,32,1,"NoneNo",1,3,1,706,7.341
"707",2,28,1,"NoneYes",1,3,0,707,5.037
"708",2,4,1,"NoneNo",1,3,0,708,4.998
"709",2,27,1,"NoneNo",1,5,0,709,3.135
"710",2,2,1,"RealNo",1,6,0,710,6.646
"711",2,11,1,"FakeNo",1,6,0,711,1.284
"712",2,21,1,"RealNo",1,2,0,712,7.687
"713",2,36,1,"NoneYes",1,1,1,713,7.545
"714",2,16,1,"RealYes",1,5,0,714,7.61
"715",2,1,1,"RealNo",1,5,0,715,6.32
"716",2,51,1,"FakeNo",1,3,1,716,5.492
"717",2,23,1,"FakeYes",1,1,0,717,6.92
"718",2,43,1,"RealYes",1,5,1,718,4.619
"719",2,18,1,"NoneYes",1,2,0,719,10.876
"720",2,3,1,"NoneNo",1,2,0,720,6.818
"721",20,59,1,"RealNo",1,3,1,721,11.076
"722",20,19,1,"RealNo",1,5,0,722,10.266
"723",20,2,1,"FakeNo",1,4,0,723,8.329
"724",20,6,1,"FakeNo",1,2,0,724,10.704
"725",20,31,1,"NoneYes",1,5,1,725,11.788
"726",20,35,1,"NoneNo",1,5,1,726,10.741
"727",20,5,1,"FakeYes",1,2,0,727,11.378
"728",20,50,1,"FakeNo",1,6,1,728,7.49
"729",20,3,1,"NoneYes",1,2,0,729,8.284
"730",20,53,1,"NoneYes",1,1,1,730,6.774
"731",20,27,1,"NoneYes",1,1,0,731,6.178
"732",20,46,1,"RealYes",1,2,1,732,10.241
"733",20,8,1,"NoneNo",1,4,0,733,9.05
"734",20,4,1,"NoneYes",1,6,0,734,11.481
"735",20,12,1,"RealNo",1,6,0,735,7.415
"736",20,57,1,"NoneYes",1,1,1,736,3.085
"737",20,44,1,"FakeYes",1,1,1,737,4.011
"738",20,32,1,"NoneYes",1,5,1,738,5.931
"739",20,18,1,"RealYes",1,6,0,739,7.597
"740",20,43,1,"NoneNo",1,5,1,740,12.307
"741",20,52,1,"RealNo",1,4,1,741,6.038
"742",20,34,1,"FakeNo",1,2,1,742,8.076
"743",20,13,1,"RealYes",1,1,0,743,5.789
"744",20,51,1,"FakeYes",1,2,1,744,10.972
"745",20,47,1,"FakeYes",1,1,1,745,7.958
"746",20,36,1,"RealYes",1,5,1,746,5.948
"747",20,14,1,"FakeYes",1,1,0,747,8.452
"748",20,49,1,"FakeNo",1,4,1,748,6.133
"749",20,40,1,"RealYes",1,2,1,749,15.109
"750",20,7,1,"FakeYes",1,4,0,750,7.962
"751",20,60,1,"FakeYes",1,5,1,751,6.898
"752",20,23,1,"RealNo",1,1,0,752,10.059
"753",20,48,1,"FakeNo",1,2,1,753,15.9
"754",20,16,1,"NoneNo",1,6,0,754,5.755
"755",20,9,1,"RealNo",1,3,0,755,7.102
"756",20,15,1,"NoneNo",1,1,0,756,7.024
"757",20,37,1,"FakeNo",1,4,1,757,7.294
"758",20,24,1,"FakeYes",1,1,0,758,9.2
"759",20,56,1,"NoneNo",1,5,1,759,4.805
"760",20,55,1,"FakeYes",1,4,1,760,7.997
"761",20,41,1,"NoneYes",1,3,1,761,8.033
"762",20,54,1,"RealNo",1,4,1,762,12.646
"763",20,22,1,"NoneNo",1,1,0,763,5.061
"764",20,58,1,"NoneNo",1,2,1,764,7.571
"765",20,29,1,"NoneNo",1,5,0,765,5.45
"766",20,39,1,"RealYes",1,6,1,766,6.327
"767",20,11,1,"FakeYes",1,4,0,767,17.471
"768",20,17,1,"FakeNo",1,5,0,768,10.453
"769",20,28,1,"RealYes",1,2,0,769,15.658
"770",20,45,1,"RealNo",1,6,1,770,7.731
"771",20,33,1,"RealYes",1,5,1,771,6.114
"772",20,30,1,"NoneYes",1,4,0,772,15.66
"773",20,42,1,"RealNo",1,5,1,773,6.036
"774",20,38,1,"NoneNo",1,5,1,774,5.355
"775",20,20,1,"RealNo",1,6,0,775,5.111
"776",20,10,1,"RealYes",1,4,0,776,8.482
"777",20,21,1,"FakeNo",1,5,0,777,14.019
"778",20,25,1,"RealYes",1,6,0,778,13.544
"779",20,26,1,"NoneYes",1,4,0,779,9.91
"780",20,1,1,"FakeNo",1,1,0,780,10.581
"781",21,58,1,"NoneYes",1,4,0,781,5.933
"782",21,21,1,"NoneNo",1,2,1,782,3.024
"783",21,27,1,"RealYes",1,4,1,783,7.214
"784",21,8,1,"NoneYes",1,4,1,784,4.172
"785",21,42,1,"FakeNo",1,6,0,785,4.943
"786",21,31,1,"RealYes",1,5,0,786,2.969
"787",21,26,1,"RealYes",1,4,1,787,2.681
"788",21,1,1,"NoneNo",1,3,1,788,5.418
"789",21,47,1,"RealNo",1,4,0,789,3.404
"790",21,7,1,"RealNo",1,5,1,790,3.896
"791",21,53,1,"RealYes",1,4,0,791,3.621
"792",21,33,1,"FakeYes",1,5,0,792,3.684
"793",21,41,1,"RealYes",1,5,0,793,3.352
"794",21,18,1,"FakeYes",1,5,1,794,2.833
"795",21,52,1,"FakeNo",1,4,0,795,1.148
"796",21,37,1,"NoneNo",1,3,0,796,5.277
"797",21,28,1,"FakeYes",1,4,1,797,2.416
"798",21,34,1,"NoneNo",1,4,0,798,0.466
"799",21,15,1,"NoneYes",1,4,1,799,3.35
"800",21,43,1,"NoneYes",1,5,0,800,5.893
"801",21,23,1,"FakeNo",1,5,1,801,1.952
"802",21,57,1,"RealYes",1,5,0,802,3.886
"803",21,38,1,"NoneYes",1,5,0,803,4.322
"804",21,16,1,"NoneYes",1,2,1,804,2.129
"805",21,50,1,"NoneNo",1,5,0,805,5.496
"806",21,19,1,"FakeNo",1,6,1,806,1.629
"807",21,14,1,"RealNo",1,3,1,807,2.313
"808",21,32,1,"RealYes",1,4,0,808,5.496
"809",21,51,1,"RealNo",1,4,0,809,7.405
"810",21,20,1,"FakeNo",1,5,1,810,1.899
"811",21,5,1,"RealNo",1,6,1,811,1.742
"812",21,48,1,"NoneNo",1,3,0,812,6.845
"813",21,56,1,"NoneYes",1,3,0,813,3.69
"814",21,44,1,"RealNo",1,6,0,814,2.355
"815",21,46,1,"FakeYes",1,3,0,815,4.407
"816",21,12,1,"FakeNo",1,4,1,816,1.633
"817",21,17,1,"NoneNo",1,5,1,817,1.727
"818",21,3,1,"RealYes",1,5,1,818,2.757
"819",21,30,1,"RealYes",1,4,1,819,2.418
"820",21,49,1,"NoneNo",1,4,0,820,4.806
"821",21,22,1,"NoneYes",1,4,1,821,2.639
"822",21,59,1,"FakeNo",1,2,0,822,2.754
"823",21,6,1,"NoneNo",1,3,1,823,2.058
"824",21,24,1,"RealNo",1,4,1,824,1.598
"825",21,9,1,"FakeNo",1,3,1,825,3.748
"826",21,60,1,"RealNo",1,5,0,826,3.37
"827",21,4,1,"RealYes",1,6,1,827,2.958
"828",21,36,1,"FakeYes",1,4,0,828,6.951
"829",21,35,1,"NoneYes",1,1,0,829,5.153
"830",21,10,1,"FakeYes",1,3,1,830,4.616
"831",21,54,1,"FakeNo",1,5,0,831,4.433
"832",21,11,1,"RealNo",1,4,1,832,3.699
"833",21,29,1,"NoneYes",1,5,1,833,3.384
"834",21,2,1,"NoneNo",1,2,1,834,2.708
"835",21,55,1,"RealNo",1,3,0,835,4.35
"836",21,40,1,"FakeYes",1,3,0,836,7.801
"837",21,45,1,"FakeNo",1,1,0,837,2.101
"838",21,25,1,"FakeYes",1,4,1,838,3.1
"839",21,39,1,"FakeYes",1,4,0,839,4.452
"840",21,13,1,"FakeYes",1,3,1,840,3.77
"841",22,45,1,"FakeNo",1,2,1,841,7.139
"842",22,43,1,"NoneYes",1,3,1,842,4.252
"843",22,22,1,"NoneYes",1,5,0,843,7.601
"844",22,52,1,"FakeNo",1,3,1,844,9.623
"845",22,26,1,"RealYes",1,2,0,845,4.993
"846",22,9,1,"FakeNo",1,2,0,846,5.211
"847",22,13,1,"FakeYes",1,3,0,847,13.234
"848",22,5,1,"RealNo",1,4,0,848,6.12
"849",22,30,1,"RealYes",1,2,0,849,8.307
"850",22,58,1,"NoneYes",1,4,1,850,4.018
"851",22,19,1,"FakeNo",1,3,0,851,9.836
"852",22,33,1,"FakeYes",1,4,1,852,7.035
"853",22,27,1,"RealYes",1,5,0,853,3.225
"854",22,25,1,"FakeYes",1,4,0,854,5.737
"855",22,57,1,"RealYes",1,3,1,855,6.019
"856",22,32,1,"RealYes",1,2,1,856,5.755
"857",22,1,1,"NoneNo",1,4,0,857,9.373
"858",22,39,1,"FakeYes",1,5,1,858,5.137
"859",22,20,1,"FakeNo",1,4,0,859,6.526
"860",22,2,1,"NoneNo",1,2,0,860,4.921
"861",22,28,1,"FakeYes",1,3,0,861,8.971
"862",22,16,1,"NoneYes",1,3,0,862,5.095
"863",22,60,1,"RealNo",1,5,1,863,2.526
"864",22,23,1,"FakeNo",1,2,0,864,9.566
"865",22,44,1,"RealNo",1,3,1,865,3.53
"866",22,4,1,"RealYes",1,4,0,866,4.248
"867",22,34,1,"NoneNo",1,5,1,867,4.53
"868",22,56,1,"NoneYes",1,4,1,868,3.03
"869",22,49,1,"NoneNo",1,4,1,869,4.697
"870",22,15,1,"NoneYes",1,2,0,870,3.415
"871",22,8,1,"NoneYes",1,1,0,871,8.982
"872",22,21,1,"NoneNo",1,4,0,872,6.979
"873",22,36,1,"FakeYes",1,2,1,873,3.703
"874",22,11,1,"RealNo",1,2,0,874,16.341
"875",22,24,1,"RealNo",1,2,0,875,6.138
"876",22,46,1,"FakeYes",1,4,1,876,3.404
"877",22,12,1,"FakeNo",1,4,0,877,5.585
"878",22,18,1,"FakeYes",1,3,0,878,8.159
"879",22,37,1,"NoneNo",1,2,1,879,3.183
"880",22,42,1,"FakeNo",1,3,1,880,5.804
"881",22,51,1,"RealNo",1,4,1,881,8.58
"882",22,54,1,"FakeNo",1,3,1,882,3.707
"883",22,55,1,"RealNo",1,3,1,883,4.226
"884",22,53,1,"RealYes",1,4,1,884,2.796
"885",22,38,1,"NoneYes",1,3,1,885,5.567
"886",22,48,1,"NoneNo",1,2,1,886,4.658
"887",22,10,1,"FakeYes",1,2,0,887,3.705
"888",22,47,1,"RealNo",1,5,1,888,3.424
"889",22,7,1,"RealNo",1,4,0,889,7.436
"890",22,59,1,"FakeNo",1,3,1,890,4.033
"891",22,29,1,"NoneYes",1,4,0,891,3.375
"892",22,6,1,"NoneNo",1,2,0,892,4.244
"893",22,31,1,"RealYes",1,4,1,893,3.678
"894",22,50,1,"NoneNo",1,5,1,894,7.399
"895",22,17,1,"NoneNo",1,4,0,895,4.542
"896",22,3,1,"RealYes",1,4,0,896,5.466
"897",22,41,1,"RealYes",1,4,1,897,3.983
"898",22,35,1,"NoneYes",1,3,1,898,7.746
"899",22,14,1,"RealNo",1,2,0,899,6.21
"900",22,40,1,"FakeYes",1,4,1,900,4.56
"901",23,20,1,"RealYes",1,2,1,901,6.187
"902",23,58,1,"FakeYes",1,3,0,902,7.811
"903",23,32,1,"RealNo",1,4,0,903,10.552
"904",23,35,1,"FakeYes",1,5,0,904,5.06
"905",23,29,1,"FakeYes",1,4,1,905,4.458
"906",23,6,1,"NoneYes",1,4,1,906,4.09
"907",23,52,1,"RealYes",1,3,0,907,0.989
"908",23,33,1,"FakeNo",1,4,0,908,7.87
"909",23,53,1,"RealNo",1,5,0,909,4.144
"910",23,27,1,"RealNo",1,1,1,910,3.925
"911",23,51,1,"NoneNo",1,4,0,911,8.715
"912",23,47,1,"NoneNo",1,4,0,912,5.707
"913",23,59,1,"RealYes",1,2,0,913,5.792
"914",23,2,1,"NoneYes",1,4,1,914,3.561
"915",23,55,1,"NoneNo",1,5,0,915,3.157
"916",23,16,1,"FakeYes",1,3,1,916,4.38
"917",23,46,1,"FakeNo",1,4,0,917,7.047
"918",23,40,1,"FakeNo",1,4,0,918,8.292
"919",23,44,1,"NoneNo",1,2,0,919,3.799
"920",23,24,1,"NoneNo",1,1,1,920,2.459
"921",23,22,1,"FakeYes",1,3,1,921,3.661
"922",23,5,1,"NoneNo",1,5,1,922,3.383
"923",23,7,1,"NoneNo",1,5,1,923,3.58
"924",23,9,1,"RealYes",1,4,1,924,3.313
"925",23,21,1,"NoneYes",1,5,1,925,9.151
"926",23,30,1,"RealNo",1,5,1,926,3.078
"927",23,39,1,"FakeNo",1,3,0,927,5.958
"928",23,49,1,"NoneYes",1,4,0,928,4.473
"929",23,37,1,"NoneYes",1,4,0,929,6.913
"930",23,41,1,"RealNo",1,5,0,930,4.492
"931",23,56,1,"FakeYes",1,5,0,931,6.562
"932",23,28,1,"FakeNo",1,2,1,932,6.188
"933",23,25,1,"FakeNo",1,4,1,933,4.021
"934",23,15,1,"FakeYes",1,3,1,934,6.791
"935",23,31,1,"RealNo",1,5,0,935,4.575
"936",23,8,1,"FakeYes",1,3,1,936,10.057
"937",23,54,1,"RealYes",1,2,0,937,6.434
"938",23,12,1,"RealYes",1,6,1,938,8.776
"939",23,36,1,"FakeNo",1,2,0,939,11.22
"940",23,13,1,"FakeNo",1,3,1,940,5.23
"941",23,4,1,"RealNo",1,5,1,941,4.782
"942",23,18,1,"FakeNo",1,5,1,942,4.49
"943",23,34,1,"NoneYes",1,2,0,943,6.935
"944",23,50,1,"NoneYes",1,5,0,944,6.041
"945",23,1,1,"NoneYes",1,5,1,945,4.118
"946",23,42,1,"RealYes",1,6,0,946,2.957
"947",23,60,1,"NoneNo",1,2,0,947,5.939
"948",23,11,1,"NoneNo",1,2,1,948,6.43
"949",23,19,1,"RealYes",1,4,1,949,4.932
"950",23,10,1,"FakeNo",1,2,1,950,3.856
"951",23,26,1,"RealNo",1,3,1,951,2.449
"952",23,43,1,"FakeYes",1,2,0,952,8.845
"953",23,14,1,"NoneNo",1,4,1,953,3.424
"954",23,17,1,"NoneYes",1,4,1,954,6.618
"955",23,38,1,"FakeYes",1,2,0,955,4.361
"956",23,48,1,"NoneYes",1,2,0,956,5.23
"957",23,3,1,"RealNo",1,5,1,957,1.008
"958",23,57,1,"RealNo",1,5,0,958,3.943
"959",23,45,1,"RealYes",1,4,0,959,5.133
"960",23,23,1,"RealYes",1,4,1,960,5.16
"961",24,1,1,"NoneYes",1,3,0,961,21.605
"962",24,15,1,"FakeYes",1,2,0,962,8.431
"963",24,45,1,"RealYes",1,4,1,963,18.178
"964",24,11,1,"NoneNo",1,2,0,964,12.764
"965",24,58,1,"FakeYes",1,3,1,965,11.556
"966",24,21,1,"NoneYes",1,2,0,966,15.789
"967",24,52,1,"RealYes",1,4,1,967,11.023
"968",24,12,1,"RealYes",1,4,0,968,16.343
"969",24,4,1,"RealNo",1,3,0,969,11.173
"970",24,36,1,"FakeNo",1,2,1,970,5.768
"971",24,56,1,"FakeYes",1,2,1,971,7.738
"972",24,51,1,"NoneNo",1,2,1,972,5.578
"973",24,10,1,"FakeNo",1,3,0,973,9.14
"974",24,19,1,"RealYes",1,3,0,974,17.515
"975",24,44,1,"NoneNo",1,3,1,975,6.27
"976",24,57,1,"RealNo",1,1,1,976,2.893
"977",24,41,1,"RealNo",1,4,1,977,8.238
"978",24,32,1,"RealNo",1,2,1,978,16.482
"979",24,38,1,"FakeYes",1,4,1,979,3.855
"980",24,17,1,"NoneYes",1,4,0,980,8.576
"981",24,22,1,"FakeYes",1,4,0,981,6.325
"982",24,20,1,"RealYes",1,3,0,982,8.776
"983",24,59,1,"RealYes",1,5,1,983,2.455
"984",24,49,1,"NoneYes",1,5,1,984,2.737
"985",24,34,1,"NoneYes",1,4,1,985,5.815
"986",24,6,1,"NoneYes",1,4,0,986,7.949
"987",24,16,1,"FakeYes",1,4,0,987,3.828
"988",24,2,1,"NoneYes",1,3,0,988,5.846
"989",24,27,1,"RealNo",1,2,0,989,5.989
"990",24,7,1,"NoneNo",1,2,0,990,4.309
"991",24,43,1,"FakeYes",1,3,1,991,12.22
"992",24,29,1,"FakeYes",1,2,0,992,5.274
"993",24,8,1,"FakeYes",1,2,0,993,8.784
"994",24,25,1,"FakeNo",1,4,0,994,6.237
"995",24,18,1,"FakeNo",1,2,0,995,7.94
"996",24,13,1,"FakeNo",1,4,0,996,8.676
"997",24,14,1,"NoneNo",1,2,0,997,6.807
"998",24,31,1,"RealNo",1,4,1,998,2.727
"999",24,42,1,"RealYes",1,4,1,999,3.559
"1000",24,40,1,"FakeNo",1,4,1,1000,3.996
"1001",24,47,1,"NoneNo",1,4,1,1001,3.655
"1002",24,28,1,"FakeNo",1,4,0,1002,5.897
"1003",24,30,1,"RealNo",1,2,0,1003,9.406
"1004",24,55,1,"NoneNo",1,4,1,1004,6.025
"1005",24,60,1,"NoneNo",1,2,1,1005,9.176
"1006",24,33,1,"FakeNo",1,3,1,1006,8.51
"1007",24,50,1,"NoneYes",1,4,1,1007,6.374
"1008",24,9,1,"RealYes",1,2,0,1008,7.239
"1009",24,54,1,"RealYes",1,5,1,1009,7.283
"1010",24,53,1,"RealNo",1,2,1,1010,3.079
"1011",24,37,1,"NoneYes",1,3,1,1011,4.391
"1012",24,26,1,"RealNo",1,2,0,1012,4.93
"1013",24,48,1,"NoneYes",1,2,1,1013,6.806
"1014",24,35,1,"FakeYes",1,5,1,1014,2.957
"1015",24,24,1,"NoneNo",1,2,0,1015,6.683
"1016",24,3,1,"RealNo",1,4,0,1016,6.702
"1017",24,5,1,"NoneNo",1,5,0,1017,5.355
"1018",24,23,1,"RealYes",1,1,0,1018,7.892
"1019",24,39,1,"FakeNo",1,4,1,1019,6.43
"1020",24,46,1,"FakeNo",1,4,1,1020,4.118
"1021",25,3,1,"NoneNo",1,4,1,1021,0.54
"1022",25,52,1,"FakeYes",1,4,0,1022,10.239
"1023",25,30,1,"NoneNo",1,1,1,1023,2.496
"1024",25,27,1,"NoneNo",1,4,1,1024,2.274
"1025",25,39,1,"NoneYes",1,2,0,1025,5.276
"1026",25,36,1,"NoneYes",1,4,0,1026,2.815
"1027",25,53,1,"NoneNo",1,5,0,1027,6.323
"1028",25,29,1,"RealYes",1,3,1,1028,2.441
"1029",25,50,1,"RealNo",1,4,0,1029,4.371
"1030",25,17,1,"RealNo",1,2,1,1030,5.559
"1031",25,4,1,"NoneNo",1,6,1,1031,2.913
"1032",25,57,1,"NoneNo",1,4,0,1032,3.745
"1033",25,21,1,"RealNo",1,4,1,1033,3.333
"1034",25,60,1,"FakeNo",1,5,0,1034,4.092
"1035",25,19,1,"FakeYes",1,5,1,1035,4.559
"1036",25,20,1,"FakeYes",1,3,1,1036,2.792
"1037",25,7,1,"FakeNo",1,4,1,1037,1.597
"1038",25,55,1,"FakeNo",1,2,0,1038,3.493
"1039",25,22,1,"RealYes",1,2,1,1039,2.417
"1040",25,54,1,"FakeYes",1,2,0,1040,3.154
"1041",25,10,1,"NoneYes",1,4,1,1041,2.901
"1042",25,16,1,"RealYes",1,5,1,1042,2.229
"1043",25,45,1,"FakeYes",1,4,0,1043,2.865
"1044",25,32,1,"NoneNo",1,4,0,1044,2.81
"1045",25,5,1,"FakeNo",1,2,1,1045,2.791
"1046",25,11,1,"FakeNo",1,2,1,1046,1.756
"1047",25,33,1,"NoneYes",1,2,0,1047,3.305
"1048",25,35,1,"RealYes",1,4,0,1048,3.15
"1049",25,26,1,"NoneNo",1,4,1,1049,2.483
"1050",25,56,1,"RealYes",1,2,0,1050,4.517
"1051",25,40,1,"NoneYes",1,4,0,1051,3.178
"1052",25,13,1,"NoneYes",1,4,1,1052,3.258
"1053",25,12,1,"FakeYes",1,6,1,1053,2.723
"1054",25,23,1,"FakeYes",1,5,1,1054,1.909
"1055",25,38,1,"RealYes",1,4,0,1055,1.717
"1056",25,25,1,"NoneYes",1,4,1,1056,2.094
"1057",25,59,1,"FakeYes",1,5,0,1057,2.734
"1058",25,9,1,"FakeYes",1,4,1,1058,2.621
"1059",25,6,1,"RealNo",1,4,1,1059,0.448
"1060",25,49,1,"RealNo",1,5,0,1060,3.412
"1061",25,51,1,"FakeNo",1,5,0,1061,3.792
"1062",25,44,1,"FakeNo",1,2,0,1062,3.34
"1063",25,8,1,"RealYes",1,3,1,1063,2.684
"1064",25,42,1,"FakeYes",1,5,0,1064,2.173
"1065",25,41,1,"NoneNo",1,3,0,1065,2.347
"1066",25,31,1,"NoneNo",1,4,0,1066,3.882
"1067",25,28,1,"NoneYes",1,5,1,1067,2.839
"1068",25,1,1,"RealNo",1,4,1,1068,2.546
"1069",25,58,1,"RealYes",1,4,0,1069,2.616
"1070",25,24,1,"FakeNo",1,5,1,1070,2.052
"1071",25,14,1,"FakeNo",1,4,1,1071,2.591
"1072",25,18,1,"NoneYes",1,4,1,1072,2.067
"1073",25,47,1,"FakeNo",1,4,0,1073,2.11
"1074",25,37,1,"RealNo",1,4,0,1074,1.112
"1075",25,34,1,"RealNo",1,5,0,1075,4.762
"1076",25,48,1,"RealNo",1,4,0,1076,1.475
"1077",25,2,1,"RealNo",1,3,1,1077,3.671
"1078",25,43,1,"RealYes",1,4,0,1078,2.672
"1079",25,46,1,"NoneYes",1,4,0,1079,2.153
"1080",25,15,1,"RealYes",1,3,1,1080,2.117
"1081",26,22,1,"RealYes",1,5,0,1081,13.451
"1082",26,54,1,"FakeYes",1,2,1,1082,6.974
"1083",26,25,1,"NoneYes",1,3,0,1083,7.007
"1084",26,4,1,"NoneNo",1,4,0,1084,6.301
"1085",26,18,1,"NoneYes",1,5,0,1085,11.817
"1086",26,50,1,"RealNo",1,6,1,1086,6.241
"1087",26,8,1,"RealYes",1,4,0,1087,5.725
"1088",26,40,1,"NoneYes",1,2,1,1088,3.201
"1089",26,32,1,"NoneNo",1,3,1,1089,2.821
"1090",26,58,1,"RealYes",1,4,1,1090,5.335
"1091",26,35,1,"RealYes",1,2,1,1091,2.608
"1092",26,31,1,"NoneNo",1,3,1,1092,3.285
"1093",26,20,1,"FakeYes",1,3,0,1093,4.093
"1094",26,33,1,"NoneYes",1,2,1,1094,3.052
"1095",26,12,1,"FakeYes",1,4,0,1095,8.668
"1096",26,14,1,"FakeNo",1,3,0,1096,5.079
"1097",26,55,1,"FakeNo",1,2,1,1097,2.926
"1098",26,42,1,"FakeYes",1,3,1,1098,3.356
"1099",26,43,1,"RealYes",1,6,1,1099,2.241
"1100",26,11,1,"FakeNo",1,4,0,1100,5.926
"1101",26,57,1,"NoneNo",1,2,1,1101,3.001
"1102",26,39,1,"NoneYes",1,3,1,1102,4.054
"1103",26,24,1,"FakeNo",1,2,0,1103,4.742
"1104",26,41,1,"NoneNo",1,1,1,1104,3.124
"1105",26,13,1,"NoneYes",1,2,0,1105,8.257
"1106",26,1,1,"RealNo",1,4,0,1106,3.726
"1107",26,52,1,"FakeYes",1,5,1,1107,2.971
"1108",26,5,1,"FakeNo",1,2,0,1108,3.784
"1109",26,7,1,"FakeNo",1,3,0,1109,4.973
"1110",26,60,1,"FakeNo",1,4,1,1110,4.808
"1111",26,26,1,"NoneNo",1,2,0,1111,5.674
"1112",26,2,1,"RealNo",1,4,0,1112,6.055
"1113",26,23,1,"FakeYes",1,3,0,1113,10.484
"1114",26,15,1,"RealYes",1,3,0,1114,8.12
"1115",26,56,1,"RealYes",1,5,1,1115,4.944
"1116",26,51,1,"FakeNo",1,3,1,1116,3.717
"1117",26,6,1,"RealNo",1,6,0,1117,2.068
"1118",26,34,1,"RealNo",1,2,1,1118,2.278
"1119",26,29,1,"RealYes",1,5,0,1119,4.934
"1120",26,30,1,"NoneNo",1,3,0,1120,7.17
"1121",26,37,1,"RealNo",1,4,1,1121,4.018
"1122",26,3,1,"NoneNo",1,3,0,1122,5.637
"1123",26,46,1,"NoneYes",1,4,1,1123,4.269
"1124",26,53,1,"NoneNo",1,2,1,1124,2.758
"1125",26,10,1,"NoneYes",1,1,0,1125,5.428
"1126",26,28,1,"NoneYes",1,2,0,1126,5.284
"1127",26,17,1,"RealNo",1,5,0,1127,3.507
"1128",26,16,1,"RealYes",1,3,0,1128,5.055
"1129",26,44,1,"FakeNo",1,4,1,1129,4.559
"1130",26,27,1,"NoneNo",1,3,0,1130,4.876
"1131",26,38,1,"RealYes",1,4,1,1131,3.147
"1132",26,21,1,"RealNo",1,4,0,1132,4.993
"1133",26,47,1,"FakeNo",1,3,1,1133,2.684
"1134",26,45,1,"FakeYes",1,4,1,1134,4.981
"1135",26,9,1,"FakeYes",1,3,0,1135,4.957
"1136",26,49,1,"RealNo",1,5,1,1136,2.25
"1137",26,19,1,"FakeYes",1,3,0,1137,9.269
"1138",26,59,1,"FakeYes",1,4,1,1138,3.26
"1139",26,36,1,"NoneYes",1,3,1,1139,2.117
"1140",26,48,1,"RealNo",1,5,1,1140,7.438
"1141",27,14,1,"RealYes",1,5,1,1141,25.005
"1142",27,54,1,"NoneYes",1,2,0,1142,14.236
"1143",27,5,1,"RealYes",1,3,1,1143,7.583
"1144",27,27,1,"FakeNo",1,4,1,1144,3.543
"1145",27,44,1,"RealYes",1,6,0,1145,2.414
"1146",27,16,1,"RealNo",1,4,1,1146,2.874
"1147",27,33,1,"NoneNo",1,5,0,1147,4.452
"1148",27,40,1,"NoneNo",1,4,0,1148,3.685
"1149",27,41,1,"FakeNo",1,5,0,1149,4.509
"1150",27,12,1,"NoneYes",1,5,1,1150,4.338
"1151",27,32,1,"FakeNo",1,3,0,1151,8.432
"1152",27,18,1,"NoneNo",1,4,1,1152,2.675
"1153",27,15,1,"RealNo",1,4,1,1153,2.741
"1154",27,53,1,"FakeNo",1,3,0,1154,3.749
"1155",27,1,1,"FakeYes",1,4,1,1155,7.593
"1156",27,50,1,"FakeYes",1,4,0,1156,6.335
"1157",27,35,1,"RealNo",1,3,0,1157,3.17
"1158",27,8,1,"RealNo",1,4,1,1158,4.008
"1159",27,29,1,"RealNo",1,4,1,1159,3.809
"1160",27,11,1,"RealYes",1,4,1,1160,2.059
"1161",27,47,1,"RealYes",1,3,0,1161,6.47
"1162",27,60,1,"RealYes",1,5,0,1162,3.075
"1163",27,24,1,"RealYes",1,3,1,1163,4.54
"1164",27,39,1,"NoneNo",1,3,0,1164,7.225
"1165",27,43,1,"RealNo",1,4,0,1165,6.454
"1166",27,45,1,"NoneYes",1,3,0,1166,8.652
"1167",27,56,1,"RealNo",1,3,0,1167,8.814
"1168",27,49,1,"FakeYes",1,4,0,1168,3.85
"1169",27,55,1,"RealYes",1,4,0,1169,4.412
"1170",27,2,1,"FakeYes",1,4,1,1170,2.926
"1171",27,23,1,"NoneYes",1,3,1,1171,2.588
"1172",27,22,1,"RealNo",1,4,1,1172,1.755
"1173",27,59,1,"NoneYes",1,4,0,1173,6.194
"1174",27,17,1,"FakeYes",1,4,1,1174,3.049
"1175",27,34,1,"FakeYes",1,5,0,1175,10.965
"1176",27,21,1,"FakeYes",1,3,1,1176,3.519
"1177",27,31,1,"FakeNo",1,3,0,1177,5.773
"1178",27,28,1,"NoneNo",1,3,1,1178,1.928
"1179",27,46,1,"NoneNo",1,4,0,1179,4.209
"1180",27,42,1,"NoneYes",1,3,0,1180,6.251
"1181",27,51,1,"RealYes",1,5,0,1181,4.857
"1182",27,48,1,"FakeYes",1,3,0,1182,6.393
"1183",27,38,1,"RealNo",1,4,0,1183,3.729
"1184",27,19,1,"NoneYes",1,6,1,1184,1.983
"1185",27,10,1,"NoneNo",1,3,1,1185,3.341
"1186",27,36,1,"NoneNo",1,3,0,1186,7.403
"1187",27,25,1,"NoneNo",1,3,1,1187,7.058
"1188",27,6,1,"FakeYes",1,3,1,1188,3.191
"1189",27,58,1,"RealNo",1,4,0,1189,4.347
"1190",27,57,1,"FakeNo",1,3,0,1190,3.936
"1191",27,37,1,"FakeYes",1,3,0,1191,6.541
"1192",27,13,1,"NoneNo",1,4,1,1192,2.072
"1193",27,3,1,"FakeNo",1,4,1,1193,5.692
"1194",27,26,1,"FakeNo",1,4,1,1194,3.201
"1195",27,9,1,"NoneYes",1,4,1,1195,4.133
"1196",27,52,1,"NoneYes",1,5,0,1196,7.386
"1197",27,7,1,"RealYes",1,4,1,1197,4.241
"1198",27,20,1,"NoneYes",1,4,1,1198,1.491
"1199",27,4,1,"FakeNo",1,4,1,1199,3.333
"1200",27,30,1,"FakeNo",1,4,1,1200,2.924
"1201",28,46,1,"NoneNo",1,4,1,1201,4.967
"1202",28,40,1,"NoneNo",1,2,1,1202,14.434
"1203",28,38,1,"RealNo",1,4,1,1203,6.222
"1204",28,17,1,"FakeYes",1,2,0,1204,6.98
"1205",28,15,1,"RealNo",1,6,0,1205,4.252
"1206",28,9,1,"NoneYes",1,4,0,1206,9.178
"1207",28,20,1,"NoneYes",1,5,0,1207,4.014
"1208",28,10,1,"NoneNo",1,2,0,1208,3.72
"1209",28,54,1,"NoneYes",1,4,1,1209,6.07
"1210",28,43,1,"RealNo",1,3,1,1210,7.532
"1211",28,22,1,"RealNo",1,5,0,1211,6.214
"1212",28,3,1,"FakeNo",1,2,0,1212,5.677
"1213",28,24,1,"RealYes",1,5,0,1213,3.947
"1214",28,60,1,"RealYes",1,6,1,1214,1.991
"1215",28,50,1,"FakeYes",1,6,1,1215,1.869
"1216",28,29,1,"RealNo",1,6,0,1216,4.064
"1217",28,21,1,"FakeYes",1,3,0,1217,6.416
"1218",28,14,1,"RealYes",1,1,0,1218,4.494
"1219",28,42,1,"NoneYes",1,5,1,1219,2.716
"1220",28,7,1,"RealYes",1,3,0,1220,7.1
"1221",28,27,1,"FakeNo",1,1,0,1221,3.751
"1222",28,39,1,"NoneNo",1,3,1,1222,3.469
"1223",28,19,1,"NoneYes",1,4,0,1223,6.149
"1224",28,45,1,"NoneYes",1,4,1,1224,4.685
"1225",28,55,1,"RealYes",1,6,1,1225,2.772
"1226",28,37,1,"FakeYes",1,4,1,1226,6.955
"1227",28,58,1,"RealNo",1,4,1,1227,0.593
"1228",28,52,1,"NoneYes",1,3,1,1228,5.912
"1229",28,25,1,"NoneNo",1,3,0,1229,5.979
"1230",28,53,1,"FakeNo",1,3,1,1230,4.229
"1231",28,56,1,"RealNo",1,5,1,1231,3.59
"1232",28,11,1,"RealYes",1,1,0,1232,6.347
"1233",28,57,1,"FakeNo",1,4,1,1233,5.013
"1234",28,2,1,"FakeYes",1,4,0,1234,3.117
"1235",28,51,1,"RealYes",1,3,1,1235,11.764
"1236",28,47,1,"RealYes",1,3,1,1236,4.318
"1237",28,35,1,"RealNo",1,1,1,1237,2.468
"1238",28,26,1,"FakeNo",1,1,0,1238,7.031
"1239",28,59,1,"NoneYes",1,4,1,1239,3.332
"1240",28,32,1,"FakeNo",1,2,1,1240,6.211
"1241",28,6,1,"FakeYes",1,3,0,1241,5.298
"1242",28,8,1,"RealNo",1,1,0,1242,4.305
"1243",28,4,1,"FakeNo",1,2,0,1243,5.464
"1244",28,28,1,"NoneNo",1,2,0,1244,5.781
"1245",28,49,1,"FakeYes",1,4,1,1245,3.847
"1246",28,41,1,"FakeNo",1,4,1,1246,6.858
"1247",28,18,1,"NoneNo",1,2,0,1247,7.253
"1248",28,31,1,"FakeNo",1,2,1,1248,3.027
"1249",28,34,1,"FakeYes",1,1,1,1249,3.734
"1250",28,44,1,"RealYes",1,4,1,1250,3.012
"1251",28,30,1,"FakeNo",1,1,0,1251,5.024
"1252",28,12,1,"NoneYes",1,3,0,1252,5.511
"1253",28,16,1,"RealNo",1,5,0,1253,4.938
"1254",28,33,1,"NoneNo",1,4,1,1254,5.064
"1255",28,13,1,"NoneNo",1,2,0,1255,4.718
"1256",28,23,1,"NoneYes",1,4,0,1256,7.225
"1257",28,1,1,"FakeYes",1,2,0,1257,6.296
"1258",28,5,1,"RealYes",1,2,0,1258,5.107
"1259",28,36,1,"NoneNo",1,2,1,1259,3.48
"1260",28,48,1,"FakeYes",1,3,1,1260,3.993
"1261",29,29,1,"FakeNo",1,5,1,1261,23.72
"1262",29,47,1,"NoneYes",1,5,0,1262,9.921
"1263",29,6,1,"RealYes",1,5,1,1263,3.197
"1264",29,27,1,"FakeYes",1,5,1,1264,3.345
"1265",29,25,1,"RealNo",1,4,1,1265,5.552
"1266",29,9,1,"NoneNo",1,3,1,1266,3.579
"1267",29,24,1,"NoneYes",1,5,1,1267,4.311
"1268",29,55,1,"NoneYes",1,4,0,1268,3.203
"1269",29,46,1,"RealNo",1,5,0,1269,5.207
"1270",29,53,1,"FakeYes",1,5,0,1270,5.144
"1271",29,45,1,"NoneNo",1,2,0,1271,3.917
"1272",29,28,1,"RealNo",1,4,1,1272,5.338
"1273",29,34,1,"RealYes",1,4,0,1273,16.226
"1274",29,5,1,"NoneYes",1,5,1,1274,4.859
"1275",29,48,1,"RealYes",1,4,0,1275,17.441
"1276",29,18,1,"RealNo",1,3,1,1276,8.28
"1277",29,12,1,"NoneNo",1,4,1,1277,7.827
"1278",29,20,1,"NoneNo",1,4,1,1278,3.8
"1279",29,21,1,"RealYes",1,3,1,1279,4.336
"1280",29,2,1,"RealYes",1,5,1,1280,2.729
"1281",29,4,1,"FakeYes",1,3,1,1281,3.232
"1282",29,57,1,"FakeYes",1,3,0,1282,4.771
"1283",29,23,1,"NoneNo",1,5,1,1283,2.678
"1284",29,30,1,"FakeYes",1,5,1,1284,3.192
"1285",29,32,1,"FakeYes",1,2,0,1285,12.467
"1286",29,33,1,"RealNo",1,4,0,1286,3.825
"1287",29,56,1,"FakeNo",1,3,0,1287,9.995
"1288",29,44,1,"NoneYes",1,2,0,1288,8.709
"1289",29,13,1,"RealNo",1,6,1,1289,3.869
"1290",29,50,1,"RealYes",1,5,0,1290,5.411
"1291",29,37,1,"RealYes",1,4,0,1291,5.323
"1292",29,58,1,"FakeNo",1,4,0,1292,5.047
"1293",29,19,1,"NoneNo",1,3,1,1293,9.352
"1294",29,14,1,"NoneYes",1,4,1,1294,5.313
"1295",29,36,1,"RealNo",1,4,0,1295,18.917
"1296",29,7,1,"NoneYes",1,2,1,1296,3.943
"1297",29,8,1,"FakeNo",1,5,1,1297,7.837
"1298",29,15,1,"FakeNo",1,4,1,1298,8.865
"1299",29,38,1,"FakeNo",1,3,0,1299,7.49
"1300",29,54,1,"NoneNo",1,4,0,1300,15.749
"1301",29,35,1,"FakeNo",1,3,0,1301,8.667
"1302",29,52,1,"NoneNo",1,5,0,1302,7.341
"1303",29,26,1,"FakeYes",1,4,1,1303,7.614
"1304",29,10,1,"RealNo",1,3,1,1304,4.58
"1305",29,49,1,"RealYes",1,4,0,1305,9.085
"1306",29,59,1,"NoneNo",1,3,0,1306,6.166
"1307",29,3,1,"FakeYes",1,4,1,1307,3.185
"1308",29,1,1,"RealYes",1,5,1,1308,6.491
"1309",29,17,1,"RealYes",1,4,1,1309,5.26
"1310",29,60,1,"NoneYes",1,1,0,1310,6.69
"1311",29,41,1,"FakeYes",1,4,0,1311,6.125
"1312",29,39,1,"RealNo",1,3,0,1312,7.432
"1313",29,51,1,"NoneYes",1,1,0,1313,9.555
"1314",29,31,1,"FakeYes",1,4,0,1314,9.385
"1315",29,42,1,"NoneNo",1,2,0,1315,4.694
"1316",29,22,1,"FakeNo",1,3,1,1316,2.741
"1317",29,16,1,"FakeNo",1,5,1,1317,4.372
"1318",29,43,1,"FakeNo",1,2,0,1318,9.335
"1319",29,40,1,"RealNo",1,5,0,1319,5.343
"1320",29,11,1,"NoneYes",1,5,1,1320,2.849
"1321",3,47,1,"RealYes",1,4,0,1321,7.943
"1322",3,36,1,"NoneNo",1,3,0,1322,10.83
"1323",3,59,1,"NoneYes",1,4,0,1323,8.584
"1324",3,7,1,"RealYes",1,5,1,1324,5.178
"1325",3,17,1,"FakeYes",1,3,1,1325,10.043
"1326",3,57,1,"FakeNo",1,5,0,1326,5.978
"1327",3,2,1,"FakeYes",1,5,1,1327,6.668
"1328",3,30,1,"FakeNo",1,2,1,1328,6.126
"1329",3,21,1,"FakeYes",1,5,1,1329,8.253
"1330",3,34,1,"FakeYes",1,3,0,1330,11.142
"1331",3,54,1,"NoneYes",1,4,0,1331,13.456
"1332",3,18,1,"NoneNo",1,3,1,1332,8.355
"1333",3,13,1,"NoneNo",1,6,1,1333,2.612
"1334",3,46,1,"NoneNo",1,4,0,1334,7.304
"1335",3,39,1,"NoneNo",1,3,0,1335,6.754
"1336",3,60,1,"RealYes",1,4,0,1336,7.481
"1337",3,10,1,"NoneNo",1,5,1,1337,3.652
"1338",3,31,1,"FakeNo",1,2,0,1338,5.847
"1339",3,28,1,"NoneNo",1,4,1,1339,4.006
"1340",3,9,1,"NoneYes",1,4,1,1340,6.455
"1341",3,22,1,"RealNo",1,5,1,1341,3.126
"1342",3,41,1,"FakeNo",1,4,0,1342,4.885
"1343",3,33,1,"NoneNo",1,2,0,1343,7.307
"1344",3,48,1,"FakeYes",1,3,0,1344,9.947
"1345",3,12,1,"NoneYes",1,3,1,1345,10.184
"1346",3,44,1,"RealYes",1,2,0,1346,5.697
"1347",3,16,1,"RealNo",1,5,1,1347,2.359
"1348",3,37,1,"FakeYes",1,5,0,1348,5.645
"1349",3,43,1,"RealNo",1,4,0,1349,25.908
"1350",3,11,1,"RealYes",1,5,1,1350,4.315
"1351",3,38,1,"RealNo",1,4,0,1351,4.88
"1352",3,50,1,"FakeYes",1,5,0,1352,4.134
"1353",3,8,1,"RealNo",1,5,1,1353,7.747
"1354",3,26,1,"FakeNo",1,4,1,1354,6.971
"1355",3,29,1,"RealNo",1,4,1,1355,4.322
"1356",3,14,1,"RealYes",1,5,1,1356,4.782
"1357",3,52,1,"NoneYes",1,4,0,1357,10.373
"1358",3,25,1,"NoneNo",1,4,1,1358,12.05
"1359",3,53,1,"FakeNo",1,2,0,1359,4.038
"1360",3,45,1,"NoneYes",1,2,0,1360,6.448
"1361",3,5,1,"RealYes",1,5,1,1361,3.564
"1362",3,6,1,"FakeYes",1,4,1,1362,8.864
"1363",3,42,1,"NoneYes",1,5,0,1363,3.441
"1364",3,27,1,"FakeNo",1,3,1,1364,4.131
"1365",3,58,1,"RealNo",1,5,0,1365,2.858
"1366",3,40,1,"NoneNo",1,4,0,1366,10.924
"1367",3,1,1,"FakeYes",1,5,1,1367,4.967
"1368",3,49,1,"FakeYes",1,5,0,1368,6.376
"1369",3,35,1,"RealNo",1,5,0,1369,4.897
"1370",3,19,1,"NoneYes",1,5,1,1370,4.061
"1371",3,32,1,"FakeNo",1,2,0,1371,11.868
"1372",3,20,1,"NoneYes",1,5,1,1372,2.93
"1373",3,4,1,"FakeNo",1,2,1,1373,8.801
"1374",3,3,1,"FakeNo",1,3,1,1374,4.006
"1375",3,24,1,"RealYes",1,3,1,1375,5.599
"1376",3,51,1,"RealYes",1,2,0,1376,7.271
"1377",3,55,1,"RealYes",1,4,0,1377,3.514
"1378",3,23,1,"NoneYes",1,5,1,1378,0.884
"1379",3,56,1,"RealNo",1,4,0,1379,5.712
"1380",3,15,1,"RealNo",1,4,1,1380,2.926
"1381",30,48,1,"RealYes",1,3,1,1381,9.186
"1382",30,10,1,"RealNo",1,2,0,1382,13.959
"1383",30,39,1,"RealNo",1,3,1,1383,10.078
"1384",30,9,1,"NoneNo",1,4,0,1384,9.239
"1385",30,18,1,"RealNo",1,2,0,1385,13.44
"1386",30,24,1,"NoneYes",1,5,0,1386,6.005
"1387",30,40,1,"RealNo",1,4,1,1387,5.83
"1388",30,8,1,"FakeNo",1,5,0,1388,19.908
"1389",30,50,1,"RealYes",1,4,1,1389,6.781
"1390",30,7,1,"NoneYes",1,5,0,1390,8.237
"1391",30,60,1,"NoneYes",1,2,1,1391,6.656
"1392",30,41,1,"FakeYes",1,2,1,1392,6.797
"1393",30,11,1,"NoneYes",1,3,0,1393,12.372
"1394",30,54,1,"NoneNo",1,5,1,1394,0.679
"1395",30,44,1,"NoneYes",1,3,1,1395,4.635
"1396",30,4,1,"FakeYes",1,4,0,1396,6.619
"1397",30,28,1,"RealNo",1,4,0,1397,7.435
"1398",30,3,1,"FakeYes",1,4,0,1398,10.095
"1399",30,19,1,"NoneNo",1,5,0,1399,11.846
"1400",30,42,1,"NoneNo",1,4,1,1400,4.013
"1401",30,17,1,"RealYes",1,5,0,1401,11.191
"1402",30,35,1,"FakeNo",1,4,1,1402,7.498
"1403",30,14,1,"NoneYes",1,2,0,1403,8.724
"1404",30,49,1,"RealYes",1,4,1,1404,6.067
"1405",30,38,1,"FakeNo",1,3,1,1405,5.081
"1406",30,47,1,"NoneYes",1,4,1,1406,5.567
"1407",30,31,1,"FakeYes",1,2,1,1407,6.626
"1408",30,57,1,"FakeYes",1,4,1,1408,6.824
"1409",30,58,1,"FakeNo",1,5,1,1409,5.479
"1410",30,53,1,"FakeYes",1,3,1,1410,4.989
"1411",30,5,1,"NoneYes",1,5,0,1411,6.478
"1412",30,6,1,"RealYes",1,5,0,1412,5.939
"1413",30,32,1,"FakeYes",1,4,1,1413,15.542
"1414",30,59,1,"NoneNo",1,2,1,1414,3.932
"1415",30,43,1,"FakeNo",1,4,1,1415,7.521
"1416",30,56,1,"FakeNo",1,2,1,1416,4.116
"1417",30,21,1,"RealYes",1,5,0,1417,8.833
"1418",30,51,1,"NoneYes",1,4,1,1418,9.869
"1419",30,45,1,"NoneNo",1,2,1,1419,3.957
"1420",30,52,1,"NoneNo",1,3,1,1420,6.393
"1421",30,29,1,"FakeNo",1,2,0,1421,5.881
"1422",30,36,1,"RealNo",1,3,1,1422,7.742
"1423",30,16,1,"FakeNo",1,3,0,1423,0.525
"1424",30,27,1,"FakeYes",1,4,0,1424,7.16
"1425",30,22,1,"FakeNo",1,6,0,1425,8.472
"1426",30,55,1,"NoneYes",1,5,1,1426,3.914
"1427",30,15,1,"FakeNo",1,3,0,1427,13.192
"1428",30,37,1,"RealYes",1,4,1,1428,6.551
"1429",30,20,1,"NoneNo",1,3,0,1429,6.809
"1430",30,46,1,"RealNo",1,4,1,1430,4.721
"1431",30,25,1,"RealNo",1,4,0,1431,9.639
"1432",30,34,1,"RealYes",1,3,1,1432,5.712
"1433",30,26,1,"FakeYes",1,3,0,1433,8.347
"1434",30,13,1,"RealNo",1,5,0,1434,8.939
"1435",30,2,1,"RealYes",1,5,0,1435,12.617
"1436",30,33,1,"RealNo",1,5,1,1436,3.896
"1437",30,12,1,"NoneNo",1,3,0,1437,15.76
"1438",30,1,1,"RealYes",1,5,0,1438,7.252
"1439",30,23,1,"NoneNo",1,4,0,1439,9.799
"1440",30,30,1,"FakeYes",1,5,0,1440,8.426
"1441",31,11,1,"FakeYes",1,2,1,1441,4.759
"1442",31,23,1,"RealNo",1,4,1,1442,6.241
"1443",31,22,1,"NoneNo",1,1,1,1443,2.104
"1444",31,14,1,"FakeYes",1,2,1,1444,7.961
"1445",31,38,1,"NoneNo",1,4,0,1445,4.257
"1446",31,12,1,"RealNo",1,1,1,1446,4.816
"1447",31,46,1,"RealYes",1,1,0,1447,8.441
"1448",31,54,1,"RealNo",1,1,0,1448,5.372
"1449",31,33,1,"RealYes",1,3,0,1449,8.549
"1450",31,28,1,"RealYes",1,4,1,1450,7.417
"1451",31,53,1,"NoneYes",1,1,0,1451,3.805
"1452",31,52,1,"RealNo",1,1,0,1452,9.249
"1453",31,44,1,"FakeYes",1,3,0,1453,9.433
"1454",31,30,1,"NoneYes",1,4,1,1454,2.795
"1455",31,9,1,"RealNo",1,2,1,1455,3.688
"1456",31,6,1,"FakeNo",1,4,1,1456,3.167
"1457",31,34,1,"FakeNo",1,4,0,1457,6.18
"1458",31,5,1,"FakeYes",1,3,1,1458,6.716
"1459",31,59,1,"RealNo",1,5,0,1459,2.984
"1460",31,55,1,"FakeYes",1,5,0,1460,3.244
"1461",31,2,1,"FakeNo",1,4,1,1461,5.454
"1462",31,48,1,"FakeNo",1,3,0,1462,6.527
"1463",31,3,1,"NoneYes",1,4,1,1463,3.632
"1464",31,21,1,"FakeNo",1,4,1,1464,7.2
"1465",31,17,1,"FakeNo",1,4,1,1465,2.952
"1466",31,58,1,"NoneNo",1,1,0,1466,3.359
"1467",31,60,1,"FakeYes",1,6,0,1467,4.381
"1468",31,40,1,"RealYes",1,5,0,1468,5.795
"1469",31,10,1,"RealYes",1,1,1,1469,2.466
"1470",31,41,1,"NoneYes",1,5,0,1470,4.603
"1471",31,45,1,"RealNo",1,1,0,1471,3.58
"1472",31,20,1,"RealNo",1,5,1,1472,3.753
"1473",31,16,1,"NoneNo",1,4,1,1473,2.743
"1474",31,8,1,"NoneNo",1,2,1,1474,6.653
"1475",31,50,1,"FakeNo",1,5,0,1475,5.211
"1476",31,31,1,"NoneYes",1,1,0,1476,7.275
"1477",31,7,1,"FakeYes",1,1,1,1477,2.327
"1478",31,37,1,"FakeNo",1,4,0,1478,4.071
"1479",31,25,1,"RealYes",1,5,1,1479,3.086
"1480",31,29,1,"NoneNo",1,6,1,1480,3.816
"1481",31,26,1,"NoneYes",1,2,1,1481,2.935
"1482",31,51,1,"FakeYes",1,1,0,1482,3.924
"1483",31,57,1,"NoneYes",1,5,0,1483,3.826
"1484",31,36,1,"RealYes",1,2,0,1484,5.905
"1485",31,24,1,"FakeYes",1,1,1,1485,2.382
"1486",31,43,1,"NoneNo",1,5,0,1486,10.3
"1487",31,13,1,"RealYes",1,5,1,1487,5.041
"1488",31,49,1,"FakeNo",1,4,0,1488,3.457
"1489",31,19,1,"RealNo",1,5,1,1489,2.691
"1490",31,47,1,"FakeYes",1,5,0,1490,5.595
"1491",31,32,1,"NoneYes",1,4,0,1491,7.594
"1492",31,15,1,"NoneNo",1,1,1,1492,2.657
"1493",31,35,1,"NoneNo",1,4,0,1493,6.276
"1494",31,4,1,"NoneYes",1,5,1,1494,2.245
"1495",31,18,1,"RealYes",1,2,1,1495,8.967
"1496",31,42,1,"RealNo",1,4,0,1496,2.813
"1497",31,27,1,"NoneYes",1,1,1,1497,3.878
"1498",31,56,1,"NoneNo",1,5,0,1498,3.702
"1499",31,1,1,"FakeNo",1,5,1,1499,4.062
"1500",31,39,1,"RealYes",1,1,0,1500,5.757
"1501",32,48,1,"FakeNo",1,2,1,1501,5.88
"1502",32,7,1,"FakeYes",1,4,0,1502,10.91
"1503",32,11,1,"FakeYes",1,2,0,1503,16.419
"1504",32,25,1,"RealYes",1,5,0,1504,10.1
"1505",32,14,1,"FakeYes",1,2,0,1505,7.747
"1506",32,15,1,"NoneNo",1,2,0,1506,5.243
"1507",32,51,1,"FakeYes",1,4,1,1507,4.147
"1508",32,47,1,"FakeYes",1,4,1,1508,5.166
"1509",32,2,1,"FakeNo",1,4,0,1509,9.465
"1510",32,12,1,"RealNo",1,5,0,1510,6.322
"1511",32,50,1,"FakeNo",1,3,1,1511,5.238
"1512",32,31,1,"NoneYes",1,3,1,1512,4.559
"1513",32,21,1,"FakeNo",1,2,0,1513,6.097
"1514",32,23,1,"RealNo",1,2,0,1514,5.79
"1515",32,24,1,"FakeYes",1,2,0,1515,8.511
"1516",32,32,1,"NoneYes",1,1,1,1516,6.446
"1517",32,3,1,"NoneYes",1,3,0,1517,6.477
"1518",32,44,1,"FakeYes",1,4,1,1518,3.321
"1519",32,34,1,"FakeNo",1,4,1,1519,3.144
"1520",32,22,1,"NoneNo",1,2,0,1520,3.982
"1521",32,39,1,"RealYes",1,3,1,1521,5.793
"1522",32,27,1,"NoneYes",1,3,0,1522,6.075
"1523",32,9,1,"RealNo",1,4,0,1523,6.144
"1524",32,57,1,"NoneYes",1,2,1,1524,3.537
"1525",32,60,1,"FakeYes",1,4,1,1525,3.544
"1526",32,26,1,"NoneYes",1,3,0,1526,4.493
"1527",32,6,1,"FakeNo",1,2,0,1527,4.468
"1528",32,4,1,"NoneYes",1,4,0,1528,5.307
"1529",32,17,1,"FakeNo",1,3,0,1529,6.065
"1530",32,55,1,"FakeYes",1,4,1,1530,3.815
"1531",32,53,1,"NoneYes",1,3,1,1531,5.265
"1532",32,29,1,"NoneNo",1,5,0,1532,4.656
"1533",32,46,1,"RealYes",1,5,1,1533,6.622
"1534",32,58,1,"NoneNo",1,4,1,1534,3.526
"1535",32,19,1,"RealNo",1,5,0,1535,6.862
"1536",32,40,1,"RealYes",1,4,1,1536,4.32
"1537",32,45,1,"RealNo",1,4,1,1537,4.982
"1538",32,37,1,"FakeNo",1,4,1,1538,4.481
"1539",32,18,1,"RealYes",1,5,0,1539,5.912
"1540",32,38,1,"NoneNo",1,3,1,1540,4.596
"1541",32,28,1,"RealYes",1,2,0,1541,5.079
"1542",32,41,1,"NoneYes",1,2,1,1542,5.012
"1543",32,56,1,"NoneNo",1,3,1,1543,3.518
"1544",32,54,1,"RealNo",1,4,1,1544,9.806
"1545",32,52,1,"RealNo",1,5,1,1545,3.432
"1546",32,1,1,"FakeNo",1,4,0,1546,7.346
"1547",32,43,1,"NoneNo",1,3,1,1547,7.09
"1548",32,36,1,"RealYes",1,2,1,1548,4.462
"1549",32,33,1,"RealYes",1,5,1,1549,3.342
"1550",32,10,1,"RealYes",1,4,0,1550,2.996
"1551",32,13,1,"RealYes",1,2,0,1551,7.056
"1552",32,49,1,"FakeNo",1,5,1,1552,4.485
"1553",32,30,1,"NoneYes",1,3,0,1553,4.444
"1554",32,16,1,"NoneNo",1,5,0,1554,3.388
"1555",32,20,1,"RealNo",1,4,0,1555,6.529
"1556",32,8,1,"NoneNo",1,4,0,1556,5.028
"1557",32,5,1,"FakeYes",1,3,0,1557,4.836
"1558",32,35,1,"NoneNo",1,2,1,1558,5.557
"1559",32,59,1,"RealNo",1,5,1,1559,3.697
"1560",32,42,1,"RealNo",1,4,1,1560,2.473
"1561",33,10,1,"FakeYes",1,2,1,1561,7.859
"1562",33,17,1,"NoneNo",1,4,1,1562,4.783
"1563",33,34,1,"NoneNo",1,6,0,1563,5.842
"1564",33,27,1,"RealYes",1,4,1,1564,3.615
"1565",33,19,1,"FakeNo",1,6,1,1565,5.634
"1566",33,44,1,"RealNo",1,5,0,1566,3.547
"1567",33,25,1,"FakeYes",1,3,1,1567,7.36
"1568",33,56,1,"NoneYes",1,2,0,1568,3.352
"1569",33,29,1,"NoneYes",1,5,1,1569,4.174
"1570",33,54,1,"FakeNo",1,4,0,1570,4.4
"1571",33,58,1,"NoneYes",1,5,0,1571,4.963
"1572",33,15,1,"NoneYes",1,5,1,1572,5.031
"1573",33,18,1,"FakeYes",1,3,1,1573,3.167
"1574",33,32,1,"RealYes",1,5,0,1574,5.852
"1575",33,11,1,"RealNo",1,3,1,1575,3.482
"1576",33,33,1,"FakeYes",1,1,0,1576,17.714
"1577",33,49,1,"NoneNo",1,4,0,1577,4.255
"1578",33,47,1,"RealNo",1,3,0,1578,7.072
"1579",33,51,1,"RealNo",1,4,0,1579,5.74
"1580",33,52,1,"FakeNo",1,1,0,1580,7.567
"1581",33,35,1,"NoneYes",1,1,0,1581,3.766
"1582",33,9,1,"FakeNo",1,1,1,1582,3.285
"1583",33,23,1,"FakeNo",1,3,1,1583,5.627
"1584",33,37,1,"NoneNo",1,4,0,1584,5.604
"1585",33,6,1,"NoneNo",1,1,1,1585,3.837
"1586",33,22,1,"NoneYes",1,2,1,1586,2.415
"1587",33,4,1,"RealYes",1,6,1,1587,2.69
"1588",33,24,1,"RealNo",1,5,1,1588,5.029
"1589",33,36,1,"FakeYes",1,2,0,1589,5.237
"1590",33,50,1,"NoneNo",1,4,0,1590,4.277
"1591",33,3,1,"RealYes",1,5,1,1591,3.598
"1592",33,16,1,"NoneYes",1,5,1,1592,5.521
"1593",33,43,1,"NoneYes",1,5,0,1593,6.037
"1594",33,14,1,"RealNo",1,6,1,1594,4.029
"1595",33,45,1,"FakeNo",1,4,0,1595,3.743
"1596",33,2,1,"NoneNo",1,4,1,1596,2.885
"1597",33,59,1,"FakeNo",1,4,0,1597,4.054
"1598",33,30,1,"RealYes",1,4,1,1598,2.519
"1599",33,20,1,"FakeNo",1,4,1,1599,4.248
"1600",33,1,1,"NoneNo",1,5,1,1600,2.697
"1601",33,53,1,"RealYes",1,2,0,1601,5.497
"1602",33,13,1,"FakeYes",1,2,1,1602,8.798
"1603",33,48,1,"NoneNo",1,3,0,1603,5.515
"1604",33,40,1,"FakeYes",1,3,0,1604,4.647
"1605",33,55,1,"RealNo",1,4,0,1605,4.472
"1606",33,8,1,"NoneYes",1,5,1,1606,6.327
"1607",33,39,1,"FakeYes",1,4,0,1607,9.105
"1608",33,5,1,"RealNo",1,2,1,1608,4.337
"1609",33,12,1,"FakeNo",1,4,1,1609,4.814
"1610",33,7,1,"RealNo",1,4,1,1610,5.496
"1611",33,21,1,"NoneNo",1,5,1,1611,3.013
"1612",33,60,1,"RealNo",1,5,0,1612,5.177
"1613",33,57,1,"RealYes",1,4,0,1613,4.925
"1614",33,41,1,"RealYes",1,5,0,1614,4.367
"1615",33,31,1,"RealYes",1,4,0,1615,3.819
"1616",33,28,1,"FakeYes",1,3,1,1616,3.822
"1617",33,26,1,"RealYes",1,5,1,1617,3.033
"1618",33,38,1,"NoneYes",1,4,0,1618,4.338
"1619",33,46,1,"FakeYes",1,6,0,1619,3.961
"1620",33,42,1,"FakeNo",1,4,0,1620,6.581
"1621",34,36,1,"FakeYes",1,3,1,1621,7.169
"1622",34,31,1,"RealYes",1,2,1,1622,5.185
"1623",34,58,1,"NoneYes",1,5,1,1623,4.346
"1624",34,6,1,"NoneNo",1,3,0,1624,8.511
"1625",34,1,1,"NoneNo",1,4,0,1625,14.399
"1626",34,52,1,"FakeNo",1,2,1,1626,8.628
"1627",34,50,1,"NoneNo",1,3,1,1627,7.784
"1628",34,14,1,"RealNo",1,1,0,1628,5.711
"1629",34,22,1,"NoneYes",1,4,0,1629,9.329
"1630",34,25,1,"FakeYes",1,3,0,1630,12.135
"1631",34,2,1,"NoneNo",1,3,0,1631,6.226
"1632",34,57,1,"RealYes",1,6,1,1632,4.504
"1633",34,11,1,"RealNo",1,6,0,1633,6.278
"1634",34,35,1,"NoneYes",1,4,1,1634,4.13
"1635",34,59,1,"FakeNo",1,4,1,1635,6.76
"1636",34,37,1,"NoneNo",1,4,1,1636,6.713
"1637",34,30,1,"RealYes",1,6,0,1637,10.891
"1638",34,56,1,"NoneYes",1,3,1,1638,2.8
"1639",34,39,1,"FakeYes",1,4,1,1639,8.78
"1640",34,21,1,"NoneNo",1,4,0,1640,13.69
"1641",34,49,1,"NoneNo",1,4,1,1641,4.757
"1642",34,47,1,"RealNo",1,6,1,1642,7.401
"1643",34,34,1,"NoneNo",1,4,1,1643,3.688
"1644",34,13,1,"FakeYes",1,3,0,1644,9.524
"1645",34,48,1,"NoneNo",1,4,1,1645,11.708
"1646",34,43,1,"NoneYes",1,4,1,1646,4.655
"1647",34,45,1,"FakeNo",1,4,1,1647,4.985
"1648",34,18,1,"FakeYes",1,1,0,1648,12.017
"1649",34,55,1,"RealNo",1,4,1,1649,5.314
"1650",34,15,1,"NoneYes",1,4,0,1650,6.597
"1651",34,38,1,"NoneYes",1,4,1,1651,4.195
"1652",34,20,1,"FakeNo",1,3,0,1652,9.902
"1653",34,40,1,"FakeYes",1,5,1,1653,4.74
"1654",34,8,1,"NoneYes",1,3,0,1654,11.903
"1655",34,28,1,"FakeYes",1,4,0,1655,10.194
"1656",34,3,1,"RealYes",1,4,0,1656,9.124
"1657",34,12,1,"FakeNo",1,5,0,1657,5.987
"1658",34,33,1,"FakeYes",1,4,1,1658,6.707
"1659",34,17,1,"NoneNo",1,3,0,1659,8.143
"1660",34,60,1,"RealNo",1,6,1,1660,2.623
"1661",34,53,1,"RealYes",1,5,1,1661,7.09
"1662",34,5,1,"RealNo",1,4,0,1662,5.989
"1663",34,42,1,"FakeNo",1,4,1,1663,2.448
"1664",34,41,1,"RealYes",1,5,1,1664,4.265
"1665",34,54,1,"FakeNo",1,5,1,1665,17.952
"1666",34,27,1,"RealYes",1,4,0,1666,7.41
"1667",34,16,1,"NoneYes",1,5,0,1667,7.304
"1668",34,51,1,"RealNo",1,5,1,1668,2.403
"1669",34,4,1,"RealYes",1,4,0,1669,4.896
"1670",34,46,1,"FakeYes",1,4,1,1670,5.341
"1671",34,26,1,"RealYes",1,4,0,1671,8.199
"1672",34,24,1,"RealNo",1,2,0,1672,6.853
"1673",34,9,1,"FakeNo",1,3,0,1673,10.345
"1674",34,7,1,"RealNo",1,5,0,1674,6.207
"1675",34,10,1,"FakeYes",1,3,0,1675,9.382
"1676",34,32,1,"RealYes",1,5,1,1676,5.066
"1677",34,29,1,"NoneYes",1,4,0,1677,7.518
"1678",34,23,1,"FakeNo",1,2,0,1678,14.278
"1679",34,44,1,"RealNo",1,2,1,1679,4.025
"1680",34,19,1,"FakeNo",1,3,0,1680,10.594
"1681",35,25,1,"FakeNo",1,4,1,1681,11.196
"1682",35,46,1,"FakeNo",1,5,0,1682,4.901
"1683",35,15,1,"FakeYes",1,3,1,1683,12.777
"1684",35,7,1,"NoneNo",1,2,1,1684,5.083
"1685",35,57,1,"RealNo",1,4,0,1685,6.745
"1686",35,12,1,"RealYes",1,5,1,1686,5.48
"1687",35,10,1,"FakeNo",1,2,1,1687,3.205
"1688",35,48,1,"NoneYes",1,3,0,1688,8.248
"1689",35,38,1,"FakeYes",1,4,0,1689,5.032
"1690",35,21,1,"NoneYes",1,4,1,1690,5.111
"1691",35,27,1,"RealNo",1,5,1,1691,3.38
"1692",35,14,1,"NoneNo",1,4,1,1692,4.424
"1693",35,33,1,"FakeNo",1,2,0,1693,4.898
"1694",35,30,1,"RealNo",1,4,1,1694,5.912
"1695",35,42,1,"RealYes",1,5,0,1695,5.099
"1696",35,37,1,"NoneYes",1,2,0,1696,4.335
"1697",35,54,1,"RealYes",1,5,0,1697,4.492
"1698",35,41,1,"RealNo",1,4,0,1698,10.122
"1699",35,28,1,"FakeNo",1,4,1,1699,4.705
"1700",35,56,1,"FakeYes",1,2,0,1700,4.292
"1701",35,53,1,"RealNo",1,3,0,1701,8.045
"1702",35,17,1,"NoneYes",1,6,1,1702,5.711
"1703",35,2,1,"NoneYes",1,3,1,1703,6.984
"1704",35,3,1,"RealNo",1,2,1,1704,3.536
"1705",35,1,1,"NoneYes",1,4,1,1705,4.485
"1706",35,13,1,"FakeNo",1,5,1,1706,3.46
"1707",35,49,1,"NoneYes",1,4,0,1707,6.542
"1708",35,24,1,"NoneNo",1,3,1,1708,4.127
"1709",35,35,1,"FakeYes",1,2,0,1709,13.034
"1710",35,34,1,"NoneYes",1,3,0,1710,6.614
"1711",35,6,1,"NoneYes",1,5,1,1711,2.679
"1712",35,11,1,"NoneNo",1,2,1,1712,5.801
"1713",35,32,1,"RealNo",1,4,0,1713,5.625
"1714",35,58,1,"FakeYes",1,4,0,1714,4.673
"1715",35,44,1,"NoneNo",1,2,0,1715,2.848
"1716",35,60,1,"NoneNo",1,4,0,1716,5.643
"1717",35,59,1,"RealYes",1,3,0,1717,3.977
"1718",35,52,1,"RealYes",1,3,0,1718,7.989
"1719",35,16,1,"FakeYes",1,4,1,1719,3.345
"1720",35,39,1,"FakeNo",1,3,0,1720,6.416
"1721",35,23,1,"RealYes",1,5,1,1721,4.787
"1722",35,22,1,"FakeYes",1,5,1,1722,5.645
"1723",35,9,1,"RealYes",1,2,1,1723,4.474
"1724",35,20,1,"RealYes",1,2,1,1724,3.137
"1725",35,5,1,"NoneNo",1,3,1,1725,4.048
"1726",35,47,1,"NoneNo",1,4,0,1726,3.873
"1727",35,55,1,"NoneNo",1,2,0,1727,5.794
"1728",35,51,1,"NoneNo",1,3,0,1728,9.083
"1729",35,36,1,"FakeNo",1,4,0,1729,5.772
"1730",35,4,1,"RealNo",1,3,1,1730,2.542
"1731",35,29,1,"FakeYes",1,5,1,1731,2.331
"1732",35,50,1,"NoneYes",1,3,0,1732,5.41
"1733",35,45,1,"RealYes",1,3,0,1733,3.402
"1734",35,43,1,"FakeYes",1,3,0,1734,9.9
"1735",35,26,1,"RealNo",1,4,1,1735,3.725
"1736",35,31,1,"RealNo",1,6,0,1736,7.946
"1737",35,8,1,"FakeYes",1,4,1,1737,3.929
"1738",35,18,1,"FakeNo",1,2,1,1738,7.039
"1739",35,40,1,"FakeNo",1,4,0,1739,9.052
"1740",35,19,1,"RealYes",1,1,1,1740,6.733
"1741",36,5,1,"NoneNo",1,2,0,1741,37.754
"1742",36,32,1,"RealNo",1,3,1,1742,28.505
"1743",36,41,1,"RealNo",1,3,1,1743,23.007
"1744",36,17,1,"NoneYes",1,3,0,1744,27.054
"1745",36,38,1,"FakeYes",1,3,1,1745,79.531
"1746",36,46,1,"FakeNo",1,6,1,1746,66.691
"1747",36,52,1,"RealYes",1,1,1,1747,17.893
"1748",36,25,1,"FakeNo",1,5,0,1748,22.473
"1749",36,57,1,"RealNo",1,3,1,1749,28.135
"1750",36,27,1,"RealNo",1,6,0,1750,9.213
"1751",36,51,1,"NoneNo",1,3,1,1751,15.856
"1752",36,59,1,"RealYes",1,1,1,1752,9.232
"1753",36,26,1,"RealNo",1,1,0,1753,9.251
"1754",36,30,1,"RealNo",1,1,0,1754,10.963
"1755",36,43,1,"FakeYes",1,1,1,1755,33.885
"1756",36,35,1,"FakeYes",1,1,1,1756,14.832
"1757",36,7,1,"NoneNo",1,4,0,1757,17.14
"1758",36,18,1,"FakeNo",1,2,0,1758,22.207
"1759",36,19,1,"RealYes",1,3,0,1759,17.733
"1760",36,28,1,"FakeNo",1,3,0,1760,6.816
"1761",36,9,1,"RealYes",1,3,0,1761,11.405
"1762",36,49,1,"NoneYes",1,3,1,1762,7.253
"1763",36,54,1,"RealYes",1,1,1,1763,10.95
"1764",36,33,1,"FakeNo",1,3,1,1764,10.657
"1765",36,44,1,"NoneNo",1,4,1,1765,31.384
"1766",36,15,1,"FakeYes",1,3,0,1766,9.109
"1767",36,37,1,"NoneYes",1,2,1,1767,9.756
"1768",36,48,1,"NoneYes",1,1,1,1768,20.166
"1769",36,58,1,"FakeYes",1,4,1,1769,7.216
"1770",36,22,1,"FakeYes",1,3,0,1770,11.235
"1771",36,55,1,"NoneNo",1,2,1,1771,4.843
"1772",36,42,1,"RealYes",1,4,1,1772,8.434
"1773",36,11,1,"NoneNo",1,1,0,1773,7.118
"1774",36,6,1,"NoneYes",1,4,0,1774,14.437
"1775",36,21,1,"NoneYes",1,3,0,1775,18.438
"1776",36,13,1,"FakeNo",1,6,0,1776,27.267
"1777",36,4,1,"RealNo",1,5,0,1777,12.245
"1778",36,34,1,"NoneYes",1,4,1,1778,10.498
"1779",36,29,1,"FakeYes",1,2,0,1779,6.645
"1780",36,39,1,"FakeNo",1,4,1,1780,19.041
"1781",36,31,1,"RealNo",1,1,1,1781,1.12
"1782",36,47,1,"NoneNo",1,3,1,1782,7.858
"1783",36,36,1,"FakeNo",1,4,1,1783,10.437
"1784",36,16,1,"FakeYes",1,3,0,1784,17.988
"1785",36,8,1,"FakeYes",1,1,0,1785,9.565
"1786",36,60,1,"NoneNo",1,3,1,1786,18.432
"1787",36,50,1,"NoneYes",1,6,1,1787,11.861
"1788",36,2,1,"NoneYes",1,6,0,1788,3.319
"1789",36,56,1,"FakeYes",1,3,1,1789,5.087
"1790",36,45,1,"RealYes",1,4,1,1790,6.803
"1791",36,14,1,"NoneNo",1,6,0,1791,3.819
"1792",36,20,1,"RealYes",1,4,0,1792,14.899
"1793",36,53,1,"RealNo",1,2,1,1793,8.908
"1794",36,1,1,"NoneYes",1,4,0,1794,40.561
"1795",36,24,1,"NoneNo",1,1,0,1795,5.686
"1796",36,10,1,"FakeNo",1,4,0,1796,4.579
"1797",36,3,1,"RealNo",1,3,0,1797,4.543
"1798",36,40,1,"FakeNo",1,1,1,1798,4.876
"1799",36,12,1,"RealYes",1,3,0,1799,11.103
"1800",36,23,1,"RealYes",1,4,0,1800,21.089
"1801",37,12,1,"FakeYes",1,6,1,1801,7.678
"1802",37,52,1,"FakeYes",1,4,0,1802,10.246
"1803",37,9,1,"FakeYes",1,6,1,1803,9.308
"1804",37,2,1,"RealNo",1,5,1,1804,5.156
"1805",37,46,1,"NoneYes",1,3,0,1805,6.902
"1806",37,55,1,"FakeNo",1,2,0,1806,5.89
"1807",37,33,1,"NoneYes",1,2,0,1807,11.732
"1808",37,3,1,"NoneNo",1,6,1,1808,3.912
"1809",37,37,1,"RealNo",1,2,0,1809,9.416
"1810",37,51,1,"FakeNo",1,1,0,1810,9.874
"1811",37,44,1,"FakeNo",1,2,0,1811,4.242
"1812",37,53,1,"NoneNo",1,3,0,1812,6.227
"1813",37,40,1,"NoneYes",1,2,0,1813,11.001
"1814",37,27,1,"NoneNo",1,5,1,1814,9.179
"1815",37,15,1,"RealYes",1,5,1,1815,4.349
"1816",37,13,1,"NoneYes",1,5,1,1816,10.126
"1817",37,21,1,"RealNo",1,5,1,1817,5.923
"1818",37,48,1,"RealNo",1,2,0,1818,10.559
"1819",37,54,1,"FakeYes",1,5,0,1819,6.36
"1820",37,25,1,"NoneYes",1,6,1,1820,4.542
"1821",37,7,1,"FakeNo",1,4,1,1821,4.044
"1822",37,47,1,"FakeNo",1,2,0,1822,8.788
"1823",37,31,1,"NoneNo",1,3,0,1823,5.291
"1824",37,16,1,"RealYes",1,4,1,1824,5.239
"1825",37,24,1,"FakeNo",1,4,1,1825,3.756
"1826",37,4,1,"NoneNo",1,5,1,1826,3.923
"1827",37,29,1,"RealYes",1,5,1,1827,11.727
"1828",37,1,1,"RealNo",1,4,1,1828,8.153
"1829",37,38,1,"RealYes",1,3,0,1829,8.655
"1830",37,8,1,"RealYes",1,5,1,1830,5.111
"1831",37,43,1,"RealYes",1,3,0,1831,6.035
"1832",37,57,1,"NoneNo",1,3,0,1832,5.843
"1833",37,39,1,"NoneYes",1,3,0,1833,8.407
"1834",37,60,1,"FakeNo",1,2,0,1834,11.14
"1835",37,11,1,"FakeNo",1,5,1,1835,5.039
"1836",37,42,1,"FakeYes",1,3,0,1836,8.598
"1837",37,50,1,"RealNo",1,3,0,1837,10.835
"1838",37,17,1,"RealNo",1,4,1,1838,8.773
"1839",37,34,1,"RealNo",1,2,0,1839,14.402
"1840",37,35,1,"RealYes",1,5,0,1840,8.885
"1841",37,26,1,"NoneNo",1,5,1,1841,4.214
"1842",37,32,1,"NoneNo",1,2,0,1842,5.576
"1843",37,20,1,"FakeYes",1,3,1,1843,6.504
"1844",37,41,1,"NoneNo",1,4,0,1844,9.747
"1845",37,10,1,"NoneYes",1,5,1,1845,4.689
"1846",37,28,1,"NoneYes",1,4,1,1846,12.99
"1847",37,30,1,"NoneNo",1,3,1,1847,3.095
"1848",37,5,1,"FakeNo",1,5,1,1848,4.007
"1849",37,18,1,"NoneYes",1,1,1,1849,5.48
"1850",37,45,1,"FakeYes",1,2,0,1850,7.116
"1851",37,6,1,"RealNo",1,3,1,1851,3.839
"1852",37,59,1,"FakeYes",1,3,0,1852,6.128
"1853",37,36,1,"NoneYes",1,3,0,1853,11.803
"1854",37,58,1,"RealYes",1,4,0,1854,5.993
"1855",37,14,1,"FakeNo",1,2,1,1855,5.145
"1856",37,22,1,"RealYes",1,3,1,1856,7.666
"1857",37,56,1,"RealYes",1,3,0,1857,4.148
"1858",37,19,1,"FakeYes",1,4,1,1858,3.792
"1859",37,23,1,"FakeYes",1,4,1,1859,4.017
"1860",37,49,1,"RealNo",1,3,0,1860,6.668
"1861",38,30,1,"NoneNo",1,1,0,1861,9.651
"1862",38,51,1,"FakeNo",1,1,1,1862,2.965
"1863",38,18,1,"NoneYes",1,5,0,1863,4.722
"1864",38,5,1,"FakeNo",1,6,0,1864,4.111
"1865",38,4,1,"NoneNo",1,4,0,1865,3.621
"1866",38,1,1,"RealNo",1,5,0,1866,4.479
"1867",38,38,1,"RealYes",1,2,1,1867,5.341
"1868",38,3,1,"NoneNo",1,6,0,1868,5
"1869",38,49,1,"RealNo",1,5,1,1869,3.387
"1870",38,47,1,"FakeNo",1,2,1,1870,3.608
"1871",38,35,1,"RealYes",1,5,1,1871,4.927
"1872",38,8,1,"RealYes",1,3,0,1872,5.795
"1873",38,17,1,"RealNo",1,6,0,1873,4.355
"1874",38,31,1,"NoneNo",1,5,1,1874,3.152
"1875",38,36,1,"NoneYes",1,2,1,1875,7.34
"1876",38,45,1,"FakeYes",1,1,1,1876,1.987
"1877",38,26,1,"NoneNo",1,5,0,1877,3.843
"1878",38,25,1,"NoneYes",1,4,0,1878,4.305
"1879",38,54,1,"FakeYes",1,3,1,1879,5.149
"1880",38,24,1,"FakeNo",1,1,0,1880,2.913
"1881",38,14,1,"FakeNo",1,2,0,1881,7.065
"1882",38,29,1,"RealYes",1,6,0,1882,4.691
"1883",38,58,1,"RealYes",1,1,1,1883,3.463
"1884",38,9,1,"FakeYes",1,3,0,1884,6.007
"1885",38,50,1,"RealNo",1,2,1,1885,3.63
"1886",38,57,1,"NoneNo",1,6,1,1886,1.881
"1887",38,33,1,"NoneYes",1,5,1,1887,2.803
"1888",38,44,1,"FakeNo",1,3,1,1888,2.175
"1889",38,22,1,"RealYes",1,6,0,1889,3.332
"1890",38,20,1,"FakeYes",1,6,0,1890,4.496
"1891",38,43,1,"RealYes",1,1,1,1891,6.797
"1892",38,42,1,"FakeYes",1,4,1,1892,2.946
"1893",38,11,1,"FakeNo",1,1,0,1893,7.768
"1894",38,28,1,"NoneYes",1,5,0,1894,3.644
"1895",38,7,1,"FakeNo",1,1,0,1895,3.599
"1896",38,27,1,"NoneNo",1,6,0,1896,3.634
"1897",38,48,1,"RealNo",1,5,1,1897,2.868
"1898",38,41,1,"NoneNo",1,6,1,1898,3.11
"1899",38,37,1,"RealNo",1,2,1,1899,2.678
"1900",38,16,1,"RealYes",1,3,0,1900,5.527
"1901",38,59,1,"FakeYes",1,1,1,1901,1.276
"1902",38,52,1,"FakeYes",1,5,1,1902,5.35
"1903",38,13,1,"NoneYes",1,3,0,1903,8.557
"1904",38,23,1,"FakeYes",1,3,0,1904,6.883
"1905",38,10,1,"NoneYes",1,5,0,1905,3.111
"1906",38,19,1,"FakeYes",1,6,0,1906,3.22
"1907",38,34,1,"RealNo",1,6,1,1907,1.95
"1908",38,53,1,"NoneNo",1,1,1,1908,1.941
"1909",38,15,1,"RealYes",1,2,0,1909,3.57
"1910",38,2,1,"RealNo",1,4,0,1910,3.503
"1911",38,6,1,"RealNo",1,4,0,1911,2.904
"1912",38,32,1,"NoneNo",1,5,1,1912,2.513
"1913",38,56,1,"RealYes",1,5,1,1913,2.623
"1914",38,40,1,"NoneYes",1,6,1,1914,2.035
"1915",38,12,1,"FakeYes",1,4,0,1915,4.733
"1916",38,46,1,"NoneYes",1,6,1,1916,2.312
"1917",38,39,1,"NoneYes",1,3,1,1917,4.087
"1918",38,55,1,"FakeNo",1,3,1,1918,4.062
"1919",38,60,1,"FakeNo",1,4,1,1919,2.856
"1920",38,21,1,"RealNo",1,6,0,1920,4.65
"1921",39,57,1,"FakeNo",1,1,0,1921,6.866
"1922",39,47,1,"RealYes",1,5,0,1922,9.356
"1923",39,31,1,"FakeNo",1,3,0,1923,8.651
"1924",39,20,1,"NoneYes",1,5,1,1924,5.382
"1925",39,53,1,"FakeNo",1,2,0,1925,8.607
"1926",39,59,1,"NoneYes",1,1,0,1926,6.525
"1927",39,5,1,"RealYes",1,3,1,1927,6.271
"1928",39,10,1,"NoneNo",1,1,1,1928,6.029
"1929",39,34,1,"FakeYes",1,1,0,1929,10.724
"1930",39,6,1,"FakeYes",1,1,1,1930,2.456
"1931",39,32,1,"FakeNo",1,3,0,1931,14.474
"1932",39,46,1,"NoneNo",1,4,0,1932,10.772
"1933",39,23,1,"NoneYes",1,1,1,1933,5.44
"1934",39,30,1,"FakeNo",1,4,1,1934,10.101
"1935",39,26,1,"FakeNo",1,3,1,1935,6.685
"1936",39,4,1,"FakeNo",1,2,1,1936,6.018
"1937",39,22,1,"RealNo",1,3,1,1937,6.666
"1938",39,1,1,"FakeYes",1,4,1,1938,11.309
"1939",39,12,1,"NoneYes",1,4,1,1939,5.234
"1940",39,33,1,"NoneNo",1,4,0,1940,7.354
"1941",39,36,1,"NoneNo",1,4,0,1941,8.434
"1942",39,38,1,"RealNo",1,4,0,1942,6.712
"1943",39,43,1,"RealNo",1,4,0,1943,6.482
"1944",39,55,1,"RealYes",1,5,0,1944,8.165
"1945",39,2,1,"FakeYes",1,5,1,1945,6.837
"1946",39,40,1,"NoneNo",1,2,0,1946,9.61
"1947",39,9,1,"NoneYes",1,3,1,1947,10.774
"1948",39,51,1,"RealYes",1,5,0,1948,6.311
"1949",39,21,1,"FakeYes",1,4,1,1949,7.312
"1950",39,7,1,"RealYes",1,6,1,1950,4.985
"1951",39,27,1,"FakeNo",1,2,1,1951,4.724
"1952",39,54,1,"NoneYes",1,2,0,1952,12.168
"1953",39,14,1,"RealYes",1,2,1,1953,6.138
"1954",39,50,1,"FakeYes",1,4,0,1954,13.483
"1955",39,52,1,"NoneYes",1,4,0,1955,13.261
"1956",39,44,1,"RealYes",1,2,0,1956,11.055
"1957",39,8,1,"RealNo",1,6,1,1957,5.344
"1958",39,35,1,"RealNo",1,4,0,1958,16.41
"1959",39,45,1,"NoneYes",1,4,0,1959,5.357
"1960",39,48,1,"FakeYes",1,3,0,1960,9.727
"1961",39,58,1,"RealNo",1,5,0,1961,8.518
"1962",39,11,1,"RealYes",1,4,1,1962,5.403
"1963",39,49,1,"FakeYes",1,2,0,1963,8.485
"1964",39,16,1,"RealNo",1,3,1,1964,4.551
"1965",39,56,1,"RealNo",1,4,0,1965,6.532
"1966",39,60,1,"RealYes",1,2,0,1966,25.353
"1967",39,29,1,"RealNo",1,4,1,1967,5.914
"1968",39,15,1,"RealNo",1,1,1,1968,3.679
"1969",39,17,1,"FakeYes",1,4,1,1969,6.973
"1970",39,13,1,"NoneNo",1,4,1,1970,6.751
"1971",39,3,1,"FakeNo",1,2,1,1971,6.376
"1972",39,19,1,"NoneYes",1,3,1,1972,11.616
"1973",39,42,1,"NoneYes",1,4,0,1973,4.415
"1974",39,28,1,"NoneNo",1,3,1,1974,5.786
"1975",39,25,1,"NoneNo",1,5,1,1975,7.964
"1976",39,39,1,"NoneNo",1,3,0,1976,12.61
"1977",39,18,1,"NoneNo",1,5,1,1977,8.808
"1978",39,41,1,"FakeNo",1,4,0,1978,6.981
"1979",39,37,1,"FakeYes",1,4,0,1979,7.501
"1980",39,24,1,"RealYes",1,4,1,1980,9.904
"1981",4,51,1,"RealYes",1,1,1,1981,5.629
"1982",4,28,1,"NoneNo",1,1,0,1982,5.542
"1983",4,12,1,"NoneYes",1,2,0,1983,12.421
"1984",4,39,1,"NoneNo",1,3,1,1984,5.174
"1985",4,60,1,"RealYes",1,5,1,1985,5.077
"1986",4,13,1,"NoneNo",1,5,0,1986,6.971
"1987",4,27,1,"FakeNo",1,5,0,1987,3.58
"1988",4,38,1,"RealNo",1,3,1,1988,0.54
"1989",4,1,1,"FakeYes",1,4,0,1989,6.371
"1990",4,58,1,"RealNo",1,5,1,1990,2.74
"1991",4,56,1,"RealNo",1,4,1,1991,4.084
"1992",4,45,1,"NoneYes",1,2,1,1992,4.883
"1993",4,10,1,"NoneNo",1,4,0,1993,5.729
"1994",4,43,1,"RealNo",1,2,1,1994,4.637
"1995",4,55,1,"RealYes",1,4,1,1995,2.395
"1996",4,44,1,"RealYes",1,1,1,1996,2.887
"1997",4,42,1,"NoneYes",1,1,1,1997,2.336
"1998",4,49,1,"FakeYes",1,2,1,1998,2.764
"1999",4,59,1,"NoneYes",1,3,1,1999,2.163
"2000",4,37,1,"FakeYes",1,4,1,2000,2.4
"2001",4,19,1,"NoneYes",1,5,0,2001,5.411
"2002",4,22,1,"RealNo",1,3,0,2002,5.851
"2003",4,20,1,"NoneYes",1,2,0,2003,3.983
"2004",4,31,1,"FakeNo",1,4,1,2004,4.147
"2005",4,54,1,"NoneYes",1,2,1,2005,4.182
"2006",4,6,1,"FakeYes",1,1,0,2006,5.67
"2007",4,26,1,"FakeNo",1,1,0,2007,4.58
"2008",4,23,1,"NoneYes",1,5,0,2008,9.83
"2009",4,36,1,"NoneNo",1,1,1,2009,4.855
"2010",4,32,1,"FakeNo",1,1,1,2010,5.864
"2011",4,16,1,"RealNo",1,4,0,2011,4.598
"2012",4,18,1,"NoneNo",1,4,0,2012,7.391
"2013",4,2,1,"FakeYes",1,6,0,2013,3.946
"2014",4,40,1,"NoneNo",1,2,1,2014,3.321
"2015",4,52,1,"NoneYes",1,1,1,2015,5.221
"2016",4,9,1,"NoneYes",1,2,0,2016,5.94
"2017",4,57,1,"FakeNo",1,5,1,2017,3.399
"2018",4,24,1,"RealYes",1,2,0,2018,3.955
"2019",4,5,1,"RealYes",1,2,0,2019,5.59
"2020",4,29,1,"RealNo",1,5,0,2020,4.944
"2021",4,7,1,"RealYes",1,5,0,2021,6.41
"2022",4,3,1,"FakeNo",1,5,0,2022,4.585
"2023",4,47,1,"RealYes",1,5,1,2023,5.218
"2024",4,41,1,"FakeNo",1,4,1,2024,4.283
"2025",4,48,1,"FakeYes",1,2,1,2025,3.929
"2026",4,34,1,"FakeYes",1,6,1,2026,3.174
"2027",4,4,1,"FakeNo",1,5,0,2027,2.355
"2028",4,46,1,"NoneNo",1,5,1,2028,3.587
"2029",4,53,1,"FakeNo",1,2,1,2029,3.816
"2030",4,14,1,"RealYes",1,5,0,2030,5.168
"2031",4,50,1,"FakeYes",1,2,1,2031,4.095
"2032",4,30,1,"FakeNo",1,2,0,2032,5.093
"2033",4,25,1,"NoneNo",1,5,0,2033,6.715
"2034",4,8,1,"RealNo",1,6,0,2034,5.543
"2035",4,35,1,"RealNo",1,6,1,2035,3.393
"2036",4,21,1,"FakeYes",1,6,0,2036,4.678
"2037",4,17,1,"FakeYes",1,5,0,2037,3.962
"2038",4,11,1,"RealYes",1,5,0,2038,5.053
"2039",4,15,1,"RealNo",1,5,0,2039,4.819
"2040",4,33,1,"NoneNo",1,5,1,2040,3.03
"2041",40,31,1,"FakeNo",1,3,1,2041,27.381
"2042",40,51,1,"RealYes",1,5,1,2042,4.13
"2043",40,40,1,"NoneNo",1,5,1,2043,2.184
"2044",40,25,1,"NoneNo",1,6,0,2044,4.926
"2045",40,19,1,"NoneYes",1,5,0,2045,7.105
"2046",40,27,1,"FakeNo",1,2,0,2046,4.571
"2047",40,41,1,"FakeNo",1,5,1,2047,3.888
"2048",40,5,1,"RealYes",1,5,0,2048,5.67
"2049",40,55,1,"RealYes",1,5,1,2049,2.946
"2050",40,21,1,"FakeYes",1,5,0,2050,5.569
"2051",40,1,1,"FakeYes",1,6,0,2051,4.442
"2052",40,46,1,"NoneNo",1,5,1,2052,3.187
"2053",40,53,1,"FakeNo",1,1,1,2053,3.096
"2054",40,14,1,"RealYes",1,2,0,2054,6.047
"2055",40,33,1,"NoneNo",1,5,1,2055,3.174
"2056",40,47,1,"RealYes",1,6,1,2056,2.994
"2057",40,56,1,"RealNo",1,1,1,2057,2.454
"2058",40,38,1,"RealNo",1,5,1,2058,2.266
"2059",40,39,1,"NoneNo",1,1,1,2059,4.166
"2060",40,60,1,"RealYes",1,2,1,2060,4.128
"2061",40,44,1,"RealYes",1,1,1,2061,2.438
"2062",40,15,1,"RealNo",1,1,0,2062,4.352
"2063",40,7,1,"RealYes",1,2,0,2063,6.652
"2064",40,34,1,"FakeYes",1,1,1,2064,3.857
"2065",40,35,1,"RealNo",1,2,1,2065,3.617
"2066",40,54,1,"NoneYes",1,1,1,2066,6.083
"2067",40,57,1,"FakeNo",1,2,1,2067,7.511
"2068",40,43,1,"RealNo",1,4,1,2068,2.457
"2069",40,11,1,"RealYes",1,2,0,2069,28.242
"2070",40,3,1,"FakeNo",1,3,0,2070,6.324
"2071",40,42,1,"NoneYes",1,4,1,2071,3.238
"2072",40,23,1,"NoneYes",1,4,0,2072,7.672
"2073",40,10,1,"NoneNo",1,5,0,2073,6.659
"2074",40,12,1,"NoneYes",1,5,0,2074,4.59
"2075",40,8,1,"RealNo",1,4,0,2075,14.473
"2076",40,29,1,"RealNo",1,5,0,2076,4.05
"2077",40,26,1,"FakeNo",1,5,0,2077,3.724
"2078",40,32,1,"FakeNo",1,2,1,2078,4.209
"2079",40,18,1,"NoneNo",1,4,0,2079,9.091
"2080",40,45,1,"NoneYes",1,2,1,2080,4.725
"2081",40,49,1,"FakeYes",1,4,1,2081,9.621
"2082",40,17,1,"FakeYes",1,5,0,2082,7.287
"2083",40,6,1,"FakeYes",1,1,0,2083,6.152
"2084",40,36,1,"NoneNo",1,6,1,2084,4.187
"2085",40,24,1,"RealYes",1,1,0,2085,4.973
"2086",40,28,1,"NoneNo",1,2,0,2086,4.8
"2087",40,13,1,"NoneNo",1,2,0,2087,3.898
"2088",40,58,1,"RealNo",1,5,1,2088,3.858
"2089",40,37,1,"FakeYes",1,4,1,2089,3.043
"2090",40,52,1,"NoneYes",1,5,1,2090,5.227
"2091",40,2,1,"FakeYes",1,2,0,2091,3.266
"2092",40,9,1,"NoneYes",1,3,0,2092,5.699
"2093",40,48,1,"FakeYes",1,4,1,2093,7.142
"2094",40,30,1,"FakeNo",1,1,0,2094,7.991
"2095",40,50,1,"FakeYes",1,2,1,2095,4.22
"2096",40,22,1,"RealNo",1,4,0,2096,8.782
"2097",40,20,1,"NoneYes",1,6,0,2097,4.322
"2098",40,4,1,"FakeNo",1,1,0,2098,4.434
"2099",40,59,1,"NoneYes",1,5,1,2099,6.771
"2100",40,16,1,"RealNo",1,5,0,2100,6.491
"2101",41,58,1,"FakeNo",1,4,0,2101,8.968
"2102",41,1,1,"RealYes",1,5,1,2102,7.39
"2103",41,59,1,"NoneNo",1,1,0,2103,7.844
"2104",41,45,1,"NoneNo",1,1,0,2104,5.059
"2105",41,32,1,"FakeYes",1,1,0,2105,6.461
"2106",41,31,1,"FakeYes",1,3,0,2106,3.825
"2107",41,46,1,"RealNo",1,5,0,2107,4.452
"2108",41,57,1,"FakeYes",1,2,0,2108,4.961
"2109",41,28,1,"RealNo",1,4,1,2109,4.748
"2110",41,49,1,"RealYes",1,6,0,2110,5.576
"2111",41,6,1,"RealYes",1,4,1,2111,5.362
"2112",41,35,1,"FakeNo",1,6,0,2112,4.38
"2113",41,9,1,"NoneNo",1,2,1,2113,7.224
"2114",41,12,1,"NoneNo",1,5,1,2114,3.998
"2115",41,19,1,"NoneNo",1,3,1,2115,2.057
"2116",41,3,1,"FakeYes",1,5,1,2116,4.73
"2117",41,34,1,"RealYes",1,4,0,2117,5.487
"2118",41,54,1,"NoneNo",1,1,0,2118,5.165
"2119",41,8,1,"FakeNo",1,2,1,2119,6.086
"2120",41,2,1,"RealYes",1,5,1,2120,5.147
"2121",41,33,1,"RealNo",1,4,0,2121,4.878
"2122",41,14,1,"NoneYes",1,2,1,2122,3.755
"2123",41,38,1,"FakeNo",1,5,0,2123,5.44
"2124",41,10,1,"RealNo",1,2,1,2124,2.584
"2125",41,23,1,"NoneNo",1,4,1,2125,6.478
"2126",41,41,1,"FakeYes",1,2,0,2126,8.382
"2127",41,24,1,"NoneYes",1,6,1,2127,2.42
"2128",41,21,1,"RealYes",1,6,1,2128,4.576
"2129",41,11,1,"NoneYes",1,6,1,2129,3.136
"2130",41,56,1,"FakeNo",1,2,0,2130,3.454
"2131",41,18,1,"RealNo",1,2,1,2131,4.162
"2132",41,48,1,"RealYes",1,3,0,2132,7.989
"2133",41,53,1,"FakeYes",1,5,0,2133,4.513
"2134",41,47,1,"NoneYes",1,5,0,2134,3.926
"2135",41,22,1,"FakeNo",1,3,1,2135,2.339
"2136",41,29,1,"FakeNo",1,4,1,2136,7.698
"2137",41,40,1,"RealNo",1,3,0,2137,8.579
"2138",41,42,1,"NoneNo",1,5,0,2138,2.857
"2139",41,36,1,"RealNo",1,5,0,2139,8.867
"2140",41,27,1,"FakeYes",1,5,1,2140,4.418
"2141",41,13,1,"RealNo",1,5,1,2141,3.477
"2142",41,26,1,"FakeYes",1,3,1,2142,4.54
"2143",41,5,1,"NoneYes",1,5,1,2143,3.792
"2144",41,16,1,"FakeNo",1,4,1,2144,6.259
"2145",41,39,1,"RealNo",1,3,0,2145,5.505
"2146",41,7,1,"NoneYes",1,2,1,2146,3.101
"2147",41,17,1,"RealYes",1,5,1,2147,3.973
"2148",41,50,1,"RealYes",1,6,0,2148,3.8
"2149",41,37,1,"RealYes",1,5,0,2149,4.652
"2150",41,51,1,"NoneYes",1,1,0,2150,4.809
"2151",41,4,1,"FakeYes",1,6,1,2151,2.081
"2152",41,52,1,"NoneNo",1,4,0,2152,8.523
"2153",41,55,1,"NoneYes",1,2,0,2153,3.874
"2154",41,60,1,"NoneYes",1,2,0,2154,3.912
"2155",41,44,1,"NoneYes",1,1,0,2155,4.405
"2156",41,43,1,"FakeNo",1,2,0,2156,4.104
"2157",41,30,1,"FakeYes",1,5,1,2157,5.318
"2158",41,25,1,"RealNo",1,5,1,2158,7.721
"2159",41,15,1,"FakeNo",1,2,1,2159,2.939
"2160",41,20,1,"NoneNo",1,5,1,2160,4.378
"2161",42,11,1,"NoneYes",1,2,0,2161,17.728
"2162",42,37,1,"RealYes",1,2,1,2162,7.722
"2163",42,8,1,"FakeNo",1,3,0,2163,9.361
"2164",42,55,1,"NoneYes",1,4,1,2164,1.613
"2165",42,10,1,"RealNo",1,2,0,2165,6.809
"2166",42,56,1,"FakeNo",1,3,1,2166,3.502
"2167",42,47,1,"NoneYes",1,5,1,2167,3.235
"2168",42,42,1,"NoneNo",1,5,1,2168,2.654
"2169",42,39,1,"RealNo",1,2,1,2169,4.823
"2170",42,25,1,"RealNo",1,3,0,2170,8.424
"2171",42,30,1,"FakeYes",1,2,0,2171,7.817
"2172",42,34,1,"RealYes",1,5,1,2172,8.517
"2173",42,59,1,"NoneNo",1,5,1,2173,1.997
"2174",42,4,1,"FakeYes",1,3,0,2174,5.042
"2175",42,38,1,"FakeNo",1,4,1,2175,3.683
"2176",42,54,1,"NoneNo",1,5,1,2176,9.986
"2177",42,27,1,"FakeYes",1,2,0,2177,5.267
"2178",42,31,1,"FakeYes",1,5,1,2178,2.185
"2179",42,7,1,"NoneYes",1,2,0,2179,6.117
"2180",42,6,1,"RealYes",1,4,0,2180,8.095
"2181",42,32,1,"FakeYes",1,2,1,2181,4.526
"2182",42,26,1,"FakeYes",1,3,0,2182,5.201
"2183",42,2,1,"RealYes",1,2,0,2183,7.088
"2184",42,21,1,"RealYes",1,5,0,2184,6.128
"2185",42,20,1,"NoneNo",1,1,0,2185,7.396
"2186",42,57,1,"FakeYes",1,5,1,2186,3.522
"2187",42,1,1,"RealYes",1,5,0,2187,1.219
"2188",42,36,1,"RealNo",1,2,1,2188,8.384
"2189",42,33,1,"RealNo",1,4,1,2189,4.926
"2190",42,14,1,"NoneYes",1,2,0,2190,6.124
"2191",42,22,1,"FakeNo",1,6,0,2191,4.781
"2192",42,28,1,"RealNo",1,4,0,2192,6.503
"2193",42,48,1,"RealYes",1,5,1,2193,4.969
"2194",42,17,1,"RealYes",1,6,0,2194,5.994
"2195",42,18,1,"RealNo",1,6,0,2195,7.897
"2196",42,9,1,"NoneNo",1,2,0,2196,5.322
"2197",42,49,1,"RealYes",1,3,1,2197,7.991
"2198",42,23,1,"NoneNo",1,3,0,2198,0.98
"2199",42,19,1,"NoneNo",1,6,0,2199,7.371
"2200",42,35,1,"FakeNo",1,6,1,2200,2.346
"2201",42,44,1,"NoneYes",1,1,1,2201,5.745
"2202",42,12,1,"NoneNo",1,3,0,2202,10.917
"2203",42,50,1,"RealYes",1,6,1,2203,6.704
"2204",42,43,1,"FakeNo",1,4,1,2204,6.268
"2205",42,60,1,"NoneYes",1,5,1,2205,2.656
"2206",42,29,1,"FakeNo",1,5,0,2206,10.923
"2207",42,58,1,"FakeNo",1,3,1,2207,3.279
"2208",42,3,1,"FakeYes",1,2,0,2208,5.319
"2209",42,41,1,"FakeYes",1,4,1,2209,5.059
"2210",42,51,1,"NoneYes",1,4,1,2210,7.119
"2211",42,45,1,"NoneNo",1,3,1,2211,4.042
"2212",42,15,1,"FakeNo",1,2,0,2212,5.995
"2213",42,16,1,"FakeNo",1,6,0,2213,4.771
"2214",42,46,1,"RealNo",1,6,1,2214,2.824
"2215",42,53,1,"FakeYes",1,4,1,2215,3.97
"2216",42,5,1,"NoneYes",1,2,0,2216,7.486
"2217",42,24,1,"NoneYes",1,4,0,2217,3.793
"2218",42,13,1,"RealNo",1,3,0,2218,6.591
"2219",42,52,1,"NoneNo",1,5,1,2219,7.429
"2220",42,40,1,"RealNo",1,4,1,2220,4.93
"2221",43,10,1,"RealYes",1,3,1,2221,11.012
"2222",43,50,1,"FakeNo",1,6,0,2222,10.727
"2223",43,51,1,"FakeYes",1,5,0,2223,8.666
"2224",43,2,1,"FakeNo",1,3,1,2224,7.101
"2225",43,32,1,"NoneYes",1,2,0,2225,11.078
"2226",43,7,1,"FakeYes",1,6,1,2226,4.731
"2227",43,36,1,"RealYes",1,6,0,2227,8.022
"2228",43,31,1,"NoneYes",1,5,0,2228,7.122
"2229",43,12,1,"RealNo",1,6,1,2229,2.461
"2230",43,28,1,"RealYes",1,4,1,2230,4.365
"2231",43,20,1,"RealNo",1,6,1,2231,3.018
"2232",43,35,1,"NoneNo",1,6,0,2232,5.374
"2233",43,60,1,"FakeYes",1,6,0,2233,7.367
"2234",43,1,1,"FakeNo",1,3,1,2234,10.343
"2235",43,52,1,"RealNo",1,6,0,2235,8.996
"2236",43,19,1,"RealNo",1,6,1,2236,4.168
"2237",43,9,1,"RealNo",1,5,1,2237,4.539
"2238",43,43,1,"NoneNo",1,5,0,2238,6.648
"2239",43,57,1,"NoneYes",1,1,0,2239,8.516
"2240",43,14,1,"FakeYes",1,5,1,2240,2.444
"2241",43,33,1,"RealYes",1,6,0,2241,6.174
"2242",43,25,1,"RealYes",1,6,1,2242,4.215
"2243",43,55,1,"FakeYes",1,3,0,2243,6.263
"2244",43,6,1,"FakeNo",1,3,1,2244,3.66
"2245",43,44,1,"FakeYes",1,4,0,2245,8.708
"2246",43,47,1,"FakeYes",1,2,0,2246,7.787
"2247",43,11,1,"FakeYes",1,4,1,2247,9.344
"2248",43,21,1,"FakeNo",1,2,1,2248,4.655
"2249",43,34,1,"FakeNo",1,1,0,2249,8.325
"2250",43,27,1,"NoneYes",1,3,1,2250,4.157
"2251",43,48,1,"FakeNo",1,3,0,2251,9.922
"2252",43,59,1,"RealNo",1,5,0,2252,4.457
"2253",43,5,1,"FakeYes",1,5,1,2253,3.769
"2254",43,16,1,"NoneNo",1,5,1,2254,7.213
"2255",43,22,1,"NoneNo",1,2,1,2255,2.676
"2256",43,46,1,"RealYes",1,6,0,2256,8.733
"2257",43,8,1,"NoneNo",1,4,1,2257,3.004
"2258",43,53,1,"NoneYes",1,2,0,2258,6.111
"2259",43,24,1,"FakeYes",1,4,1,2259,3.859
"2260",43,30,1,"NoneYes",1,6,1,2260,4.188
"2261",43,13,1,"RealYes",1,5,1,2261,7.093
"2262",43,49,1,"FakeNo",1,2,0,2262,5.017
"2263",43,45,1,"RealNo",1,5,0,2263,8.043
"2264",43,40,1,"RealYes",1,5,0,2264,9.396
"2265",43,4,1,"NoneYes",1,2,1,2265,4.439
"2266",43,23,1,"RealNo",1,4,1,2266,6.151
"2267",43,29,1,"NoneNo",1,2,1,2267,15.169
"2268",43,3,1,"NoneYes",1,5,1,2268,4.238
"2269",43,15,1,"NoneNo",1,3,1,2269,7.222
"2270",43,37,1,"FakeNo",1,4,0,2270,11.189
"2271",43,41,1,"NoneYes",1,4,0,2271,8.358
"2272",43,54,1,"RealNo",1,5,0,2272,6.293
"2273",43,58,1,"NoneNo",1,1,0,2273,4.736
"2274",43,38,1,"NoneNo",1,4,0,2274,6.935
"2275",43,17,1,"FakeNo",1,5,1,2275,5.201
"2276",43,26,1,"NoneYes",1,2,1,2276,3.928
"2277",43,56,1,"NoneNo",1,3,0,2277,4.264
"2278",43,42,1,"RealNo",1,5,0,2278,3.287
"2279",43,39,1,"RealYes",1,5,0,2279,7.206
"2280",43,18,1,"RealYes",1,6,1,2280,4.443
"2281",44,33,1,"RealYes",1,2,1,2281,22.298
"2282",44,6,1,"FakeNo",1,2,0,2282,7.425
"2283",44,31,1,"NoneYes",1,5,1,2283,2.695
"2284",44,26,1,"NoneYes",1,4,0,2284,4.494
"2285",44,60,1,"FakeYes",1,3,1,2285,8.035
"2286",44,21,1,"FakeNo",1,2,0,2286,9.374
"2287",44,25,1,"RealYes",1,5,0,2287,5.512
"2288",44,22,1,"NoneNo",1,4,0,2288,5.212
"2289",44,49,1,"FakeNo",1,2,1,2289,4.645
"2290",44,1,1,"FakeNo",1,3,0,2290,7.43
"2291",44,55,1,"FakeYes",1,5,1,2291,3.634
"2292",44,57,1,"NoneYes",1,2,1,2292,3.153
"2293",44,38,1,"NoneNo",1,2,1,2293,1.696
"2294",44,50,1,"FakeNo",1,4,1,2294,6.738
"2295",44,16,1,"NoneNo",1,4,0,2295,3.516
"2296",44,5,1,"FakeYes",1,5,0,2296,4.802
"2297",44,19,1,"RealNo",1,5,0,2297,6.172
"2298",44,12,1,"RealNo",1,5,0,2298,3.877
"2299",44,46,1,"RealYes",1,4,1,2299,2.923
"2300",44,45,1,"RealNo",1,5,1,2300,2.22
"2301",44,59,1,"RealNo",1,4,1,2301,2.416
"2302",44,4,1,"NoneYes",1,5,0,2302,3.443
"2303",44,10,1,"RealYes",1,4,0,2303,7.028
"2304",44,54,1,"RealNo",1,5,1,2304,6.025
"2305",44,30,1,"NoneYes",1,3,0,2305,8.912
"2306",44,58,1,"NoneNo",1,2,1,2306,2.513
"2307",44,51,1,"FakeYes",1,1,1,2307,3.368
"2308",44,13,1,"RealYes",1,4,0,2308,4.089
"2309",44,17,1,"FakeNo",1,4,0,2309,4.112
"2310",44,24,1,"FakeYes",1,2,0,2310,3.718
"2311",44,47,1,"FakeYes",1,4,1,2311,3.299
"2312",44,7,1,"FakeYes",1,1,0,2312,6.416
"2313",44,41,1,"NoneYes",1,3,1,2313,3.519
"2314",44,43,1,"NoneNo",1,4,1,2314,4.966
"2315",44,56,1,"NoneNo",1,4,1,2315,1.946
"2316",44,18,1,"RealYes",1,3,0,2316,6.265
"2317",44,14,1,"FakeYes",1,2,0,2317,4.196
"2318",44,3,1,"NoneYes",1,3,0,2318,8.229
"2319",44,44,1,"FakeYes",1,2,1,2319,2.489
"2320",44,20,1,"RealNo",1,4,0,2320,4.019
"2321",44,34,1,"FakeNo",1,1,1,2321,3.485
"2322",44,11,1,"FakeYes",1,1,0,2322,17.13
"2323",44,48,1,"FakeNo",1,3,1,2323,3.447
"2324",44,52,1,"RealNo",1,5,1,2324,2.505
"2325",44,40,1,"RealYes",1,4,1,2325,6.175
"2326",44,42,1,"RealNo",1,6,1,2326,2.193
"2327",44,37,1,"FakeNo",1,2,1,2327,3.544
"2328",44,35,1,"NoneNo",1,4,1,2328,1.773
"2329",44,28,1,"RealYes",1,4,0,2329,4.291
"2330",44,15,1,"NoneNo",1,2,0,2330,4.931
"2331",44,36,1,"RealYes",1,3,1,2331,3.948
"2332",44,39,1,"RealYes",1,3,1,2332,3.273
"2333",44,8,1,"NoneNo",1,5,0,2333,3.818
"2334",44,29,1,"NoneNo",1,4,0,2334,3.461
"2335",44,9,1,"RealNo",1,4,0,2335,5.901
"2336",44,23,1,"RealNo",1,4,0,2336,4.73
"2337",44,53,1,"NoneYes",1,3,1,2337,2.276
"2338",44,2,1,"FakeNo",1,2,0,2338,4.207
"2339",44,32,1,"NoneYes",1,1,1,2339,3.527
"2340",44,27,1,"NoneYes",1,4,0,2340,2.915
"2341",45,46,1,"FakeYes",1,2,0,2341,13.048
"2342",45,49,1,"NoneNo",1,3,0,2342,4.797
"2343",45,39,1,"FakeYes",1,2,0,2343,7.447
"2344",45,31,1,"RealYes",1,5,0,2344,7.057
"2345",45,43,1,"NoneYes",1,6,0,2345,6.821
"2346",45,50,1,"NoneNo",1,6,0,2346,7.164
"2347",45,56,1,"NoneYes",1,5,0,2347,5.38
"2348",45,23,1,"FakeNo",1,5,1,2348,5.629
"2349",45,9,1,"FakeNo",1,5,1,2349,9.62
"2350",45,10,1,"FakeYes",1,3,1,2350,5.053
"2351",45,19,1,"FakeNo",1,6,1,2351,3.163
"2352",45,57,1,"RealYes",1,2,0,2352,4.255
"2353",45,52,1,"FakeNo",1,5,0,2353,10.367
"2354",45,24,1,"RealNo",1,6,1,2354,3.393
"2355",45,13,1,"FakeYes",1,4,1,2355,6.9
"2356",45,41,1,"RealYes",1,6,0,2356,7.206
"2357",45,21,1,"NoneNo",1,2,1,2357,3.613
"2358",45,40,1,"FakeYes",1,3,0,2358,8.47
"2359",45,1,1,"NoneNo",1,4,1,2359,7.209
"2360",45,6,1,"NoneNo",1,3,1,2360,3.465
"2361",45,48,1,"NoneNo",1,2,0,2361,8.753
"2362",45,32,1,"RealYes",1,5,0,2362,7.461
"2363",45,5,1,"RealNo",1,5,1,2363,5.202
"2364",45,33,1,"FakeYes",1,4,0,2364,5.73
"2365",45,58,1,"NoneYes",1,4,0,2365,5.748
"2366",45,60,1,"RealNo",1,6,0,2366,6.12
"2367",45,51,1,"RealNo",1,2,0,2367,6.29
"2368",45,11,1,"RealNo",1,6,1,2368,3.094
"2369",45,29,1,"NoneYes",1,2,1,2369,5.573
"2370",45,18,1,"FakeYes",1,1,1,2370,4.964
"2371",45,42,1,"FakeNo",1,6,0,2371,3.633
"2372",45,7,1,"RealNo",1,5,1,2372,4.596
"2373",45,54,1,"FakeNo",1,3,0,2373,10.508
"2374",45,44,1,"RealNo",1,1,0,2374,3.731
"2375",45,38,1,"NoneYes",1,5,0,2375,4.617
"2376",45,30,1,"RealYes",1,6,1,2376,5.32
"2377",45,55,1,"RealNo",1,4,0,2377,5.438
"2378",45,36,1,"FakeYes",1,2,0,2378,6.344
"2379",45,14,1,"RealNo",1,4,1,2379,4.715
"2380",45,27,1,"RealYes",1,5,1,2380,3.825
"2381",45,3,1,"RealYes",1,6,1,2381,6.282
"2382",45,4,1,"RealYes",1,4,1,2382,5.83
"2383",45,45,1,"FakeNo",1,1,0,2383,4.037
"2384",45,17,1,"NoneNo",1,4,1,2384,4.845
"2385",45,34,1,"NoneNo",1,3,0,2385,5.695
"2386",45,8,1,"NoneYes",1,2,1,2386,3.729
"2387",45,28,1,"FakeYes",1,3,1,2387,5.158
"2388",45,26,1,"RealYes",1,4,1,2388,3.663
"2389",45,15,1,"NoneYes",1,5,1,2389,2.768
"2390",45,59,1,"FakeNo",1,2,0,2390,5.14
"2391",45,25,1,"FakeYes",1,5,1,2391,4.904
"2392",45,53,1,"RealYes",1,5,0,2392,5.182
"2393",45,37,1,"NoneNo",1,4,0,2393,7.079
"2394",45,16,1,"NoneYes",1,5,1,2394,4.242
"2395",45,2,1,"NoneNo",1,2,1,2395,3.548
"2396",45,35,1,"NoneYes",1,2,0,2396,7.992
"2397",45,12,1,"FakeNo",1,4,1,2397,4.783
"2398",45,22,1,"NoneYes",1,3,1,2398,3.895
"2399",45,47,1,"RealNo",1,6,0,2399,4.855
"2400",45,20,1,"FakeNo",1,4,1,2400,3.584
"2401",46,30,1,"RealYes",1,4,0,2401,17.359
"2402",46,36,1,"FakeYes",1,5,1,2402,6.457
"2403",46,49,1,"NoneNo",1,2,1,2403,5.672
"2404",46,13,1,"FakeYes",1,1,0,2404,8.565
"2405",46,54,1,"FakeNo",1,4,1,2405,6.155
"2406",46,55,1,"RealNo",1,4,1,2406,6.413
"2407",46,45,1,"FakeNo",1,2,1,2407,3.516
"2408",46,39,1,"FakeYes",1,4,1,2408,4.164
"2409",46,56,1,"NoneYes",1,3,1,2409,3.44
"2410",46,6,1,"NoneNo",1,1,0,2410,6.097
"2411",46,24,1,"RealNo",1,1,0,2411,6.846
"2412",46,10,1,"FakeYes",1,4,0,2412,9.292
"2413",46,5,1,"RealNo",1,2,0,2413,7.524
"2414",46,23,1,"FakeNo",1,1,0,2414,11.334
"2415",46,25,1,"FakeYes",1,2,0,2415,8.896
"2416",46,52,1,"FakeNo",1,4,1,2416,7.817
"2417",46,35,1,"NoneYes",1,4,1,2417,5.044
"2418",46,29,1,"NoneYes",1,3,0,2418,7.779
"2419",46,38,1,"NoneYes",1,4,1,2419,4.352
"2420",46,27,1,"RealYes",1,4,0,2420,5.844
"2421",46,58,1,"NoneYes",1,3,1,2421,4.289
"2422",46,26,1,"RealYes",1,3,0,2422,11.449
"2423",46,3,1,"RealYes",1,4,0,2423,5.695
"2424",46,59,1,"FakeNo",1,1,1,2424,3.421
"2425",46,60,1,"RealNo",1,4,1,2425,6.497
"2426",46,34,1,"NoneNo",1,5,1,2426,3.851
"2427",46,14,1,"RealNo",1,2,0,2427,10.782
"2428",46,7,1,"RealNo",1,1,0,2428,4.008
"2429",46,9,1,"FakeNo",1,2,0,2429,6.58
"2430",46,4,1,"RealYes",1,2,0,2430,6.547
"2431",46,12,1,"FakeNo",1,1,0,2431,9.533
"2432",46,1,1,"NoneNo",1,4,0,2432,8.339
"2433",46,51,1,"RealNo",1,3,1,2433,10.468
"2434",46,40,1,"FakeYes",1,1,1,2434,7.619
"2435",46,37,1,"NoneNo",1,4,1,2435,4.025
"2436",46,43,1,"NoneYes",1,4,1,2436,6.523
"2437",46,15,1,"NoneYes",1,5,0,2437,6.324
"2438",46,32,1,"RealYes",1,4,1,2438,4.389
"2439",46,46,1,"FakeYes",1,4,1,2439,5.696
"2440",46,18,1,"FakeYes",1,4,0,2440,12.814
"2441",46,42,1,"FakeNo",1,4,1,2441,8.012
"2442",46,28,1,"FakeYes",1,4,0,2442,7.13
"2443",46,47,1,"RealNo",1,5,1,2443,8.171
"2444",46,17,1,"NoneNo",1,4,0,2444,7.322
"2445",46,53,1,"RealYes",1,4,1,2445,4.196
"2446",46,50,1,"NoneNo",1,4,1,2446,4.023
"2447",46,19,1,"FakeNo",1,1,0,2447,7.8
"2448",46,16,1,"NoneYes",1,4,0,2448,6.022
"2449",46,21,1,"NoneNo",1,4,0,2449,7.973
"2450",46,22,1,"NoneYes",1,5,0,2450,6.396
"2451",46,44,1,"RealNo",1,3,1,2451,5.172
"2452",46,8,1,"NoneYes",1,4,0,2452,9.571
"2453",46,11,1,"RealNo",1,5,0,2453,6.097
"2454",46,2,1,"NoneNo",1,4,0,2454,7.198
"2455",46,48,1,"NoneNo",1,3,1,2455,4.828
"2456",46,57,1,"RealYes",1,3,1,2456,4.901
"2457",46,33,1,"FakeYes",1,6,1,2457,4.035
"2458",46,31,1,"RealYes",1,3,1,2458,2.116
"2459",46,20,1,"FakeNo",1,4,0,2459,5.406
"2460",46,41,1,"RealYes",1,4,1,2460,4.79
"2461",47,32,1,"RealNo",1,3,0,2461,18.594
"2462",47,11,1,"NoneNo",1,2,1,2462,10.506
"2463",47,20,1,"RealYes",1,3,1,2463,7.96
"2464",47,9,1,"RealYes",1,4,1,2464,7.101
"2465",47,53,1,"RealNo",1,3,0,2465,10.111
"2466",47,31,1,"RealNo",1,3,0,2466,9.99
"2467",47,29,1,"FakeYes",1,6,1,2467,6.549
"2468",47,51,1,"NoneNo",1,1,0,2468,5.19
"2469",47,10,1,"FakeNo",1,2,1,2469,7.319
"2470",47,36,1,"FakeNo",1,3,0,2470,12.792
"2471",47,43,1,"FakeYes",1,2,0,2471,7.087
"2472",47,4,1,"RealNo",1,3,1,2472,6.065
"2473",47,54,1,"RealYes",1,2,0,2473,8.574
"2474",47,39,1,"FakeNo",1,3,0,2474,9.57
