"","subject","statement_identifier","procedure_identifier","within_identifier","between_identifier","response","repeated","trial","rt"
"1",1,28,1,"Real",1,2,1,37,6873
"2",1,26,1,"Fake",1,2,NA,38,18000
"3",1,30,1,"Fake",1,4,0,39,6174
"4",1,36,1,"Fake",1,4,0,40,6088
"5",1,43,1,"Real",1,3,1,41,3202
"6",1,49,1,"Fake",1,3,NA,42,8180
"7",1,32,1,"Real",1,4,0,43,9353
"8",1,40,1,"Fake",1,3,1,44,6950
"9",1,19,1,"Fake",1,4,1,45,437
"10",1,38,1,"Real",1,4,1,46,5446
"11",1,50,1,"Real",1,4,0,47,8387
"12",1,47,1,"Fake",1,2,1,48,3181
"13",1,31,1,"Real",1,5,0,49,6049
"14",1,24,1,"Real",1,3,0,50,6120
"15",1,44,1,"Real",1,4,0,51,5642
"16",1,17,1,"Fake",1,5,1,52,5414
"17",1,27,1,"Real",1,5,1,53,4496
"18",1,14,1,"Fake",1,3,NA,54,7869
"19",1,33,1,"Fake",1,4,0,55,5631
"20",1,51,1,"Fake",1,2,1,56,5150
"21",1,11,1,"Fake",1,3,1,57,3295
"22",1,22,1,"Real",1,5,NA,58,6965
"23",1,54,1,"Real",1,3,NA,59,5614
"24",1,25,1,"Real",1,2,0,60,12125
"25",1,53,1,"Real",1,5,1,61,6597
"26",1,29,1,"Real",1,3,0,62,5108
"27",1,2,1,"Fake",1,4,1,63,5608
"28",1,7,1,"Real",1,4,NA,64,5263
"29",1,6,1,"Fake",1,4,0,65,5588
"30",1,46,1,"Fake",1,5,0,66,6531
"31",1,16,1,"Real",1,2,NA,67,7300
"32",1,45,1,"Real",1,3,NA,68,4088
"33",1,37,1,"Fake",1,4,NA,69,5675
"34",1,5,1,"Fake",1,1,0,70,6447
"35",1,12,1,"Fake",1,1,NA,71,6019
"36",1,4,1,"Fake",1,3,NA,72,3354
"37",1,8,1,"Fake",1,3,NA,73,5735
"38",1,23,1,"Fake",1,2,0,74,8071
"39",1,34,1,"Fake",1,4,1,75,6696
"40",1,13,1,"Fake",1,2,NA,76,3610
"41",1,42,1,"Real",1,4,0,77,4267
"42",1,15,1,"Real",1,3,NA,78,3993
"43",1,39,1,"Real",1,3,0,79,7995
"44",1,1,1,"Real",1,2,NA,80,4671
"45",1,9,1,"Real",1,1,1,81,4255
"46",1,52,1,"Fake",1,4,0,82,11758
"47",1,3,1,"Real",1,4,1,83,4333
"48",1,18,1,"Fake",1,3,1,84,3904
"49",1,20,1,"Fake",1,4,0,85,6864
"50",1,21,1,"Real",1,3,NA,86,4067
"51",1,48,1,"Real",1,2,1,87,6866
"52",1,10,1,"Fake",1,2,NA,88,4526
"53",1,35,1,"Real",1,4,1,89,3802
"54",1,41,1,"Real",1,3,NA,90,4634
"55",10,38,1,"Real",1,4,0,37,7309
"56",10,13,1,"Fake",1,3,1,38,5007
"57",10,44,1,"Real",1,4,1,39,3385
"58",10,28,1,"Real",1,4,0,40,6241
"59",10,45,1,"Fake",1,4,0,41,4119
"60",10,11,1,"Real",1,2,NA,42,5062
"61",10,25,1,"Real",1,4,1,43,2822
"62",10,4,1,"Fake",1,5,1,44,3410
"63",10,51,1,"Real",1,2,NA,45,8023
"64",10,46,1,"Fake",1,4,NA,46,5669
"65",10,23,1,"Fake",1,4,NA,47,10531
"66",10,43,1,"Real",1,1,0,48,3592
"67",10,8,1,"Fake",1,2,1,49,3716
"68",10,27,1,"Real",1,2,0,50,6597
"69",10,7,1,"Fake",1,2,0,51,4885
"70",10,53,1,"Real",1,4,0,52,5452
"71",10,16,1,"Fake",1,3,0,53,6852
"72",10,42,1,"Real",1,3,1,54,1914
"73",10,26,1,"Fake",1,2,1,55,4243
"74",10,18,1,"Real",1,5,NA,56,6445
"75",10,36,1,"Fake",1,2,NA,57,2715
"76",10,35,1,"Real",1,3,0,58,6661
"77",10,31,1,"Real",1,2,1,59,4010
"78",10,49,1,"Fake",1,4,1,60,3789
"79",10,47,1,"Real",1,2,NA,61,4353
"80",10,52,1,"Fake",1,4,NA,62,5647
"81",10,2,1,"Real",1,2,NA,63,6077
"82",10,6,1,"Fake",1,2,NA,64,4924
"83",10,33,1,"Fake",1,4,NA,65,8202
"84",10,5,1,"Fake",1,5,NA,66,4046
"85",10,20,1,"Fake",1,2,NA,67,4392
"86",10,14,1,"Fake",1,4,1,68,3804
"87",10,10,1,"Fake",1,4,1,69,5728
"88",10,48,1,"Real",1,4,0,70,4668
"89",10,40,1,"Real",1,4,NA,71,4988
"90",10,50,1,"Real",1,4,1,72,3503
"91",10,37,1,"Fake",1,4,1,73,914
"92",10,17,1,"Real",1,3,NA,74,5743
"93",10,3,1,"Real",1,2,0,75,6491
"94",10,39,1,"Real",1,1,1,76,6630
"95",10,34,1,"Real",1,2,NA,77,5076
"96",10,30,1,"Fake",1,4,NA,78,3421
"97",10,12,1,"Fake",1,2,1,79,10872
"98",10,15,1,"Fake",1,4,0,80,7647
"99",10,21,1,"Fake",1,2,0,81,7307
"100",10,22,1,"Fake",1,1,0,82,8269
"101",10,19,1,"Real",1,2,NA,83,5087
"102",10,29,1,"Real",1,4,1,84,3270
"103",10,41,1,"Fake",1,2,0,85,6312
"104",10,24,1,"Real",1,2,1,86,7524
"105",10,1,1,"Fake",1,4,0,87,3693
"106",10,54,1,"Fake",1,4,0,88,3623
"107",10,32,1,"Real",1,2,1,89,7498
"108",10,9,1,"Real",1,2,0,90,8044
"109",11,14,1,"Fake",1,4,1,37,8418
"110",11,10,1,"Fake",1,5,1,38,5578
"111",11,52,1,"Fake",1,5,NA,39,8330
"112",11,22,1,"Fake",1,1,0,40,10967
"113",11,11,1,"Real",1,1,NA,41,6495
"114",11,12,1,"Fake",1,2,1,42,8609
"115",11,19,1,"Real",1,5,NA,43,4627
"116",11,7,1,"Fake",1,1,0,44,6505
"117",11,20,1,"Fake",1,1,NA,45,5972
"118",11,51,1,"Real",1,4,NA,46,9817
"119",11,28,1,"Real",1,5,0,47,3816
"120",11,9,1,"Real",1,1,0,48,4307
"121",11,25,1,"Real",1,2,1,49,5527
"122",11,29,1,"Real",1,5,1,50,4654
"123",11,24,1,"Real",1,5,1,51,2414
"124",11,13,1,"Fake",1,5,1,52,6430
"125",11,18,1,"Real",1,4,NA,53,5954
"126",11,4,1,"Fake",1,2,1,54,4370
"127",11,26,1,"Fake",1,2,1,55,12123
"128",11,38,1,"Real",1,6,0,56,11029
"129",11,3,1,"Real",1,3,0,57,6148
"130",11,49,1,"Fake",1,4,1,58,6670
"131",11,17,1,"Real",1,2,NA,59,4657
"132",11,43,1,"Real",1,5,0,60,5534
"133",11,36,1,"Fake",1,4,NA,61,4016
"134",11,31,1,"Real",1,4,1,62,2921
"135",11,33,1,"Fake",1,4,NA,63,6151
"136",11,8,1,"Fake",1,4,1,64,5479
"137",11,5,1,"Fake",1,6,NA,65,5290
"138",11,40,1,"Real",1,6,NA,66,6574
"139",11,6,1,"Fake",1,3,NA,67,5333
"140",11,50,1,"Real",1,4,1,68,7689
"141",11,53,1,"Real",1,2,0,69,9111
"142",11,16,1,"Fake",1,5,0,70,6566
"143",11,35,1,"Real",1,5,0,71,7309
"144",11,23,1,"Fake",1,5,NA,72,6838
"145",11,41,1,"Fake",1,2,0,73,8561
"146",11,54,1,"Fake",1,4,0,74,5084
"147",11,21,1,"Fake",1,5,0,75,4049
"148",11,34,1,"Real",1,5,NA,76,8805
"149",11,45,1,"Fake",1,6,0,77,7360
"150",11,37,1,"Fake",1,2,1,78,6948
"151",11,2,1,"Real",1,2,NA,79,7675
"152",11,42,1,"Real",1,5,1,80,2894
"153",11,1,1,"Fake",1,5,0,81,9724
"154",11,30,1,"Fake",1,5,NA,82,7171
"155",11,47,1,"Real",1,3,NA,83,6433
"156",11,48,1,"Real",1,5,0,84,12981
"157",11,15,1,"Fake",1,2,0,85,6499
"158",11,32,1,"Real",1,4,1,86,4501
"159",11,46,1,"Fake",1,4,NA,87,4884
"160",11,39,1,"Real",1,5,1,88,5605
"161",11,27,1,"Real",1,5,0,89,4926
"162",11,44,1,"Real",1,4,1,90,3883
"163",12,48,1,"Fake",1,6,NA,37,4031
"164",12,28,1,"Fake",1,1,NA,38,3040
"165",12,36,1,"Fake",1,6,1,39,2356
"166",12,7,1,"Real",1,6,1,40,2244
"167",12,22,1,"Real",1,6,1,41,3953
"168",12,21,1,"Real",1,6,1,42,3133
"169",12,19,1,"Real",1,3,0,43,6156
"170",12,5,1,"Fake",1,6,1,44,1926
"171",12,4,1,"Fake",1,3,0,45,5632
"172",12,53,1,"Fake",1,4,NA,46,6487
"173",12,52,1,"Fake",1,6,1,47,2212
"174",12,11,1,"Real",1,2,0,48,3010
"175",12,45,1,"Real",1,6,1,49,2989
"176",12,1,1,"Real",1,6,1,50,2402
"177",12,24,1,"Real",1,6,NA,51,2200
"178",12,54,1,"Real",1,6,1,52,2190
"179",12,40,1,"Real",1,3,0,53,4444
"180",12,15,1,"Real",1,6,1,54,2068
"181",12,50,1,"Real",1,3,NA,55,2839
"182",12,26,1,"Fake",1,2,0,56,3459
"183",12,47,1,"Real",1,3,0,57,3371
"184",12,30,1,"Fake",1,6,1,58,2417
"185",12,33,1,"Fake",1,6,1,59,1766
"186",12,20,1,"Fake",1,6,1,60,1631
"187",12,34,1,"Real",1,2,0,61,2997
"188",12,17,1,"Real",1,3,0,62,1537
"189",12,31,1,"Real",1,4,NA,63,4794
"190",12,41,1,"Real",1,5,1,64,5493
"191",12,27,1,"Fake",1,6,NA,65,3794
"192",12,12,1,"Fake",1,3,0,66,8637
"193",12,42,1,"Real",1,5,NA,67,2626
"194",12,29,1,"Real",1,4,NA,68,2750
"195",12,16,1,"Real",1,5,1,69,1741
"196",12,25,1,"Real",1,5,NA,70,2350
"197",12,35,1,"Fake",1,4,NA,71,2933
"198",12,44,1,"Real",1,3,NA,72,2516
"199",12,13,1,"Fake",1,4,0,73,2317
"200",12,8,1,"Fake",1,3,0,74,2311
"201",12,39,1,"Real",1,2,NA,75,3480
"202",12,38,1,"Fake",1,4,NA,76,2424
"203",12,2,1,"Real",1,2,0,77,4509
"204",12,46,1,"Fake",1,6,1,78,3564
"205",12,51,1,"Real",1,6,0,79,5584
"206",12,43,1,"Fake",1,3,NA,80,2690
"207",12,49,1,"Fake",1,2,0,81,3692
"208",12,10,1,"Fake",1,3,0,82,2404
"209",12,18,1,"Real",1,3,0,83,2545
"210",12,23,1,"Fake",1,6,1,84,3152
"211",12,32,1,"Real",1,4,NA,85,2278
"212",12,14,1,"Fake",1,2,0,86,5089
"213",12,3,1,"Fake",1,3,NA,87,4288
"214",12,9,1,"Fake",1,3,NA,88,3648
"215",12,6,1,"Fake",1,6,1,89,2345
"216",12,37,1,"Fake",1,2,0,90,4104
"217",13,54,1,"Fake",1,2,NA,37,11549
"218",13,8,1,"Real",1,2,0,38,7759
"219",13,41,1,"Fake",1,1,NA,39,8900
"220",13,2,1,"Fake",1,4,0,40,7557
"221",13,19,1,"Fake",1,4,0,41,5227
"222",13,18,1,"Fake",1,2,0,42,4361
"223",13,39,1,"Fake",1,4,1,43,5612
"224",13,40,1,"Fake",1,5,0,44,7555
"225",13,44,1,"Fake",1,6,1,45,3723
"226",13,53,1,"Real",1,5,NA,46,5992
"227",13,28,1,"Real",1,2,NA,47,3072
"228",13,52,1,"Real",1,6,1,48,937
"229",13,30,1,"Real",1,6,1,49,2514
"230",13,14,1,"Real",1,1,0,50,6354
"231",13,4,1,"Real",1,4,0,51,6466
"232",13,21,1,"Fake",1,6,NA,52,5375
"233",13,7,1,"Fake",1,5,NA,53,2288
"234",13,16,1,"Fake",1,5,NA,54,3705
"235",13,33,1,"Real",1,5,1,55,5272
"236",13,38,1,"Real",1,3,NA,56,3245
"237",13,24,1,"Fake",1,6,1,57,4159
"238",13,15,1,"Fake",1,1,NA,58,4236
"239",13,6,1,"Real",1,6,1,59,2731
"240",13,46,1,"Real",1,6,1,60,2913
"241",13,51,1,"Fake",1,6,0,61,5472
"242",13,17,1,"Fake",1,3,0,62,3510
"243",13,27,1,"Real",1,5,NA,63,4045
"244",13,43,1,"Real",1,5,NA,64,2398
"245",13,31,1,"Fake",1,4,1,65,6586
"246",13,47,1,"Fake",1,2,0,66,3954
"247",13,45,1,"Fake",1,2,NA,67,4318
"248",13,5,1,"Real",1,6,1,68,3195
"249",13,12,1,"Real",1,5,0,69,5504
"250",13,26,1,"Real",1,4,0,70,4364
"251",13,36,1,"Real",1,4,1,71,3790
"252",13,20,1,"Real",1,5,1,72,4226
"253",13,48,1,"Real",1,6,NA,73,3202
"254",13,50,1,"Fake",1,4,1,74,5110
"255",13,34,1,"Fake",1,5,0,75,3913
"256",13,35,1,"Real",1,6,NA,76,4712
"257",13,49,1,"Real",1,3,0,77,5038
"258",13,37,1,"Real",1,6,0,78,4259
"259",13,3,1,"Real",1,2,NA,79,5491
"260",13,29,1,"Fake",1,6,1,80,3472
"261",13,13,1,"Real",1,5,0,81,2984
"262",13,42,1,"Fake",1,5,1,82,2028
"263",13,9,1,"Real",1,5,NA,83,3241
"264",13,11,1,"Fake",1,2,0,84,3787
"265",13,25,1,"Fake",1,6,1,85,3702
"266",13,23,1,"Real",1,5,1,86,2564
"267",13,22,1,"Fake",1,1,NA,87,3209
"268",13,32,1,"Fake",1,5,1,88,4028
"269",13,10,1,"Real",1,3,0,89,4182
"270",13,1,1,"Fake",1,2,NA,90,4215
"271",14,49,1,"Fake",1,6,NA,37,10236
"272",14,38,1,"Real",1,4,1,38,9540
"273",14,6,1,"Fake",1,5,0,39,13393
"274",14,19,1,"Fake",1,4,1,40,8702
"275",14,3,1,"Real",1,3,1,41,14261
"276",14,43,1,"Real",1,2,1,42,4359
"277",14,33,1,"Fake",1,3,0,43,26505
"278",14,1,1,"Real",1,4,NA,44,6218
"279",14,27,1,"Real",1,3,1,45,9224
"280",14,40,1,"Fake",1,4,1,46,7163
"281",14,48,1,"Real",1,3,1,47,5970
"282",14,17,1,"Fake",1,2,1,48,6131
"283",14,51,1,"Fake",1,5,1,49,7237
"284",14,25,1,"Real",1,3,0,50,14272
"285",14,10,1,"Fake",1,4,NA,51,9529
"286",14,16,1,"Real",1,5,NA,52,12470
"287",14,14,1,"Fake",1,6,NA,53,13219
"288",14,12,1,"Fake",1,3,NA,54,12030
"289",14,18,1,"Fake",1,4,1,55,13588
"290",14,41,1,"Real",1,5,NA,56,34584
"291",14,35,1,"Real",1,4,1,57,14961
"292",14,15,1,"Real",1,5,NA,58,17142
"293",14,54,1,"Real",1,5,NA,59,13080
"294",14,21,1,"Real",1,4,NA,60,18628
"295",14,20,1,"Fake",1,4,0,61,12203
"296",14,4,1,"Fake",1,3,NA,62,11105
"297",14,24,1,"Real",1,5,0,63,13860
"298",14,30,1,"Fake",1,4,0,64,10821
"299",14,8,1,"Fake",1,4,NA,65,19926
"300",14,32,1,"Real",1,3,0,66,40268
"301",14,39,1,"Real",1,4,0,67,13139
"302",14,31,1,"Real",1,5,0,68,8923
"303",14,26,1,"Fake",1,4,NA,69,13282
"304",14,5,1,"Fake",1,4,0,70,16329
"305",14,47,1,"Fake",1,4,1,71,6724
"306",14,36,1,"Fake",1,3,0,72,25621
"307",14,34,1,"Fake",1,4,1,73,8321
"308",14,13,1,"Fake",1,5,NA,74,5378
"309",14,7,1,"Real",1,5,NA,75,8475
"310",14,45,1,"Real",1,4,NA,76,10205
"311",14,50,1,"Real",1,4,0,77,17365
"312",14,23,1,"Fake",1,2,0,78,24333
"313",14,28,1,"Real",1,4,1,79,9663
"314",14,53,1,"Real",1,5,1,80,14064
"315",14,52,1,"Fake",1,4,0,81,9769
"316",14,9,1,"Real",1,4,1,82,8733
"317",14,42,1,"Real",1,5,0,83,9587
"318",14,11,1,"Fake",1,4,1,84,26894
"319",14,2,1,"Fake",1,4,1,85,12509
"320",14,46,1,"Fake",1,4,0,86,9670
"321",14,44,1,"Real",1,4,0,87,15382
"322",14,37,1,"Fake",1,4,NA,88,31376
"323",14,22,1,"Real",1,5,NA,89,8039
"324",14,29,1,"Real",1,4,0,90,6475
"325",15,42,1,"Fake",1,5,NA,37,16064
"326",15,2,1,"Real",1,6,1,38,11702
"327",15,5,1,"Real",1,4,0,39,11361
"328",15,49,1,"Real",1,3,NA,40,4963
"329",15,27,1,"Fake",1,4,0,41,10655
"330",15,14,1,"Real",1,2,NA,42,14271
"331",15,1,1,"Fake",1,3,1,43,5598
"332",15,28,1,"Fake",1,2,0,44,10839
"333",15,13,1,"Real",1,4,NA,45,15158
"334",15,44,1,"Fake",1,2,NA,46,24833
"335",15,26,1,"Real",1,5,NA,47,6596
"336",15,29,1,"Fake",1,5,NA,48,5403
"337",15,33,1,"Real",1,3,0,49,10397
"338",15,7,1,"Fake",1,2,1,50,7216
"339",15,20,1,"Real",1,6,0,51,5598
"340",15,25,1,"Fake",1,3,NA,52,4272
"341",15,38,1,"Fake",1,4,0,53,6849
"342",15,37,1,"Real",1,5,NA,54,4294
"343",15,18,1,"Real",1,3,1,55,4645
"344",15,17,1,"Real",1,5,1,56,4439
"345",15,15,1,"Fake",1,4,1,57,8833
"346",15,34,1,"Real",1,5,1,58,3548
"347",15,6,1,"Real",1,5,0,59,10233
"348",15,8,1,"Real",1,3,NA,60,3754
"349",15,50,1,"Fake",1,2,NA,61,6112
"350",15,22,1,"Fake",1,3,1,62,19116
"351",15,46,1,"Real",1,6,0,63,6964
"352",15,23,1,"Real",1,4,0,64,6877
"353",15,12,1,"Real",1,5,NA,65,11418
"354",15,35,1,"Fake",1,5,0,66,7257
"355",15,51,1,"Real",1,3,1,67,744
"356",15,3,1,"Fake",1,6,0,68,4355
"357",15,19,1,"Real",1,4,1,69,4479
"358",15,36,1,"Real",1,5,0,70,10552
"359",15,40,1,"Real",1,4,1,71,2572
"360",15,41,1,"Fake",1,5,1,72,3882
"361",15,4,1,"Real",1,6,NA,73,3571
"362",15,16,1,"Fake",1,3,1,74,3225
"363",15,43,1,"Fake",1,4,0,75,7582
"364",15,54,1,"Fake",1,5,1,76,5109
"365",15,31,1,"Fake",1,4,NA,77,13170
"366",15,24,1,"Fake",1,4,NA,78,6945
"367",15,53,1,"Fake",1,5,0,79,10074
"368",15,10,1,"Real",1,4,NA,80,3290
"369",15,48,1,"Fake",1,5,0,81,9498
"370",15,45,1,"Fake",1,4,1,82,11563
"371",15,11,1,"Real",1,4,1,83,5485
"372",15,47,1,"Real",1,3,1,84,10395
"373",15,9,1,"Fake",1,4,0,85,5524
"374",15,30,1,"Real",1,5,0,86,5738
"375",15,21,1,"Fake",1,5,1,87,4285
"376",15,32,1,"Fake",1,4,NA,88,4981
"377",15,39,1,"Fake",1,3,NA,89,3208
"378",15,52,1,"Real",1,3,0,90,14805
"379",17,45,1,"Fake",1,3,NA,37,6442
"380",17,37,1,"Real",1,5,0,38,8247
"381",17,23,1,"Real",1,4,1,39,5105
"382",17,10,1,"Real",1,1,0,40,7598
"383",17,40,1,"Fake",1,1,0,41,7605
"384",17,9,1,"Real",1,4,NA,42,4506
"385",17,28,1,"Real",1,5,NA,43,4766
"386",17,31,1,"Fake",1,5,1,44,3778
"387",17,5,1,"Real",1,4,1,45,3661
"388",17,19,1,"Fake",1,3,0,46,6982
"389",17,48,1,"Real",1,2,NA,47,6612
"390",17,11,1,"Fake",1,4,0,48,5963
"391",17,2,1,"Fake",1,1,0,49,5285
"392",17,15,1,"Fake",1,4,NA,50,10008
"393",17,12,1,"Real",1,3,0,51,8419
"394",17,47,1,"Fake",1,5,0,52,2893
"395",17,50,1,"Fake",1,3,1,53,3583
"396",17,27,1,"Real",1,5,NA,54,3338
"397",17,22,1,"Fake",1,2,NA,55,5817
"398",17,20,1,"Real",1,6,1,56,3207
"399",17,13,1,"Real",1,5,0,57,3018
"400",17,46,1,"Real",1,4,1,58,3373
"401",17,49,1,"Real",1,2,0,59,7521
"402",17,16,1,"Fake",1,5,NA,60,3057
"403",17,21,1,"Fake",1,4,NA,61,3690
"404",17,30,1,"Real",1,4,1,62,4673
"405",17,32,1,"Fake",1,2,1,63,3112
"406",17,7,1,"Fake",1,4,NA,64,4167
"407",17,29,1,"Fake",1,4,1,65,3691
"408",17,38,1,"Real",1,3,NA,66,8249
"409",17,44,1,"Fake",1,4,1,67,4741
"410",17,8,1,"Real",1,5,0,68,5671
"411",17,52,1,"Real",1,1,1,69,2237
"412",17,39,1,"Fake",1,3,1,70,4929
"413",17,24,1,"Fake",1,4,1,71,4067
"414",17,25,1,"Fake",1,4,1,72,5026
"415",17,18,1,"Fake",1,3,0,73,5067
"416",17,33,1,"Real",1,2,1,74,4288
"417",17,42,1,"Fake",1,4,1,75,3694
"418",17,3,1,"Real",1,5,NA,76,2758
"419",17,1,1,"Fake",1,4,NA,77,3964
"420",17,4,1,"Real",1,3,0,78,7223
"421",17,36,1,"Real",1,4,1,79,2716
"422",17,54,1,"Fake",1,2,NA,80,4149
"423",17,26,1,"Real",1,2,0,81,9040
"424",17,14,1,"Real",1,1,0,82,10409
"425",17,35,1,"Real",1,2,NA,83,8428
"426",17,34,1,"Fake",1,3,0,84,4589
"427",17,17,1,"Fake",1,4,0,85,2761
"428",17,41,1,"Fake",1,4,NA,86,6078
"429",17,6,1,"Real",1,4,1,87,2963
"430",17,43,1,"Real",1,2,NA,88,3998
"431",17,51,1,"Fake",1,2,0,89,9417
"432",17,53,1,"Real",1,4,NA,90,5331
"433",18,52,1,"Real",1,5,1,37,10025
"434",18,53,1,"Real",1,6,NA,38,4900
"435",18,5,1,"Real",1,2,1,39,7891
"436",18,40,1,"Fake",1,3,0,40,17917
"437",18,46,1,"Real",1,6,1,41,2368
"438",18,21,1,"Fake",1,2,NA,42,7768
"439",18,26,1,"Real",1,4,0,43,18528
"440",18,13,1,"Real",1,6,0,44,3568
"441",18,36,1,"Real",1,3,1,45,10847
"442",18,54,1,"Fake",1,3,NA,46,21552
"443",18,27,1,"Real",1,3,NA,47,9108
"444",18,2,1,"Fake",1,5,0,48,17284
"445",18,39,1,"Fake",1,2,1,49,6928
"446",18,42,1,"Fake",1,5,1,50,5891
"447",18,18,1,"Fake",1,5,0,51,5800
"448",18,43,1,"Real",1,3,NA,52,12723
"449",18,35,1,"Real",1,3,NA,53,18676
"450",18,38,1,"Real",1,2,NA,54,12751
"451",18,9,1,"Real",1,5,NA,55,7073
"452",18,20,1,"Real",1,5,1,56,3566
"453",18,1,1,"Fake",1,3,NA,57,10340
"454",18,7,1,"Fake",1,1,NA,58,13706
"455",18,47,1,"Fake",1,2,0,59,6210
"456",18,25,1,"Fake",1,1,1,60,8163
"457",18,32,1,"Fake",1,2,1,61,8410
"458",18,23,1,"Real",1,6,1,62,2790
"459",18,29,1,"Fake",1,5,1,63,6373
"460",18,14,1,"Real",1,6,0,64,1459
"461",18,28,1,"Real",1,2,NA,65,7321
"462",18,16,1,"Fake",1,3,NA,66,14899
"463",18,17,1,"Fake",1,5,0,67,7595
"464",18,37,1,"Real",1,6,0,68,5986
"465",18,15,1,"Fake",1,3,NA,69,11044
"466",18,31,1,"Fake",1,4,1,70,6844
"467",18,34,1,"Fake",1,1,0,71,11569
"468",18,45,1,"Fake",1,2,NA,72,17036
"469",18,8,1,"Real",1,4,0,73,5946
"470",18,49,1,"Real",1,3,0,74,14406
"471",18,3,1,"Real",1,1,NA,75,5531
"472",18,12,1,"Real",1,3,0,76,18271
"473",18,33,1,"Real",1,3,1,77,5763
"474",18,24,1,"Fake",1,5,1,78,10638
"475",18,44,1,"Fake",1,5,1,79,10821
"476",18,30,1,"Real",1,4,1,80,4616
"477",18,11,1,"Fake",1,5,0,81,8738
"478",18,41,1,"Fake",1,2,NA,82,11834
"479",18,22,1,"Fake",1,1,NA,83,15537
"480",18,19,1,"Fake",1,1,0,84,6142
"481",18,10,1,"Real",1,2,0,85,10330
"482",18,50,1,"Fake",1,4,1,86,7544
"483",18,6,1,"Real",1,5,1,87,5538
"484",18,48,1,"Real",1,4,NA,88,5421
"485",18,4,1,"Real",1,6,0,89,18654
"486",18,51,1,"Fake",1,4,0,90,12267
"487",19,41,1,"Real",1,2,1,37,10930
"488",19,24,1,"Real",1,6,NA,38,1782
"489",19,36,1,"Fake",1,6,1,39,1079
"490",19,20,1,"Fake",1,6,1,40,1770
"491",19,13,1,"Fake",1,1,0,41,1657
"492",19,35,1,"Fake",1,1,NA,42,3438
"493",19,40,1,"Real",1,1,0,43,1432
"494",19,44,1,"Real",1,6,NA,44,1126
"495",19,50,1,"Real",1,6,NA,45,2305
"496",19,51,1,"Real",1,1,0,46,4585
"497",19,52,1,"Fake",1,6,1,47,1187
"498",19,3,1,"Fake",1,1,NA,48,2004
"499",19,48,1,"Fake",1,2,NA,49,3249
"500",19,54,1,"Real",1,6,1,50,668
"501",19,33,1,"Fake",1,1,1,51,3128
"502",19,42,1,"Real",1,1,NA,52,2112
"503",19,29,1,"Real",1,1,NA,53,2873
"504",19,37,1,"Fake",1,1,0,54,1891
"505",19,18,1,"Real",1,1,0,55,2710
"506",19,46,1,"Fake",1,6,1,56,2301
"507",19,1,1,"Real",1,6,1,57,3006
"508",19,31,1,"Real",1,1,NA,58,2331
"509",19,2,1,"Real",1,1,0,59,2644
"510",19,8,1,"Fake",1,1,0,60,4287
"511",19,7,1,"Real",1,6,1,61,2016
"512",19,14,1,"Fake",1,1,0,62,2109
"513",19,21,1,"Real",1,5,1,63,2758
"514",19,9,1,"Fake",1,6,NA,64,893
"515",19,53,1,"Fake",1,6,NA,65,5833
"516",19,34,1,"Real",1,2,0,66,4208
"517",19,16,1,"Real",1,6,1,67,1770
"518",19,6,1,"Fake",1,6,1,68,2035
"519",19,19,1,"Real",1,1,0,69,3416
"520",19,22,1,"Real",1,6,1,70,3027
"521",19,11,1,"Real",1,1,0,71,4093
"522",19,5,1,"Fake",1,6,1,72,2221
"523",19,43,1,"Fake",1,6,NA,73,1875
"524",19,49,1,"Fake",1,2,0,74,5238
"525",19,47,1,"Real",1,2,0,75,3214
"526",19,10,1,"Fake",1,4,0,76,4018
"527",19,38,1,"Fake",1,6,NA,77,1316
"528",19,15,1,"Real",1,6,1,78,1926
"529",19,45,1,"Real",1,6,1,79,1855
"530",19,28,1,"Fake",1,1,NA,80,2651
"531",19,4,1,"Fake",1,1,0,81,2607
"532",19,17,1,"Real",1,6,0,82,2051
"533",19,30,1,"Fake",1,5,1,83,2529
"534",19,26,1,"Fake",1,1,0,84,4176
"535",19,39,1,"Real",1,6,NA,85,3332
"536",19,32,1,"Real",1,1,NA,86,3418
"537",19,27,1,"Fake",1,6,NA,87,2167
"538",19,23,1,"Fake",1,6,1,88,2359
"539",19,25,1,"Real",1,1,NA,89,650
"540",19,12,1,"Fake",1,1,0,90,2224
"541",2,31,1,"Real",1,2,1,37,14451
"542",2,32,1,"Real",1,1,1,38,8317
"543",2,46,1,"Fake",1,5,NA,39,6558
"544",2,35,1,"Real",1,2,0,40,12377
"545",2,45,1,"Fake",1,1,0,41,5736
"546",2,52,1,"Fake",1,1,NA,42,3030
"547",2,53,1,"Real",1,1,0,43,6993
"548",2,29,1,"Real",1,1,1,44,3387
"549",2,15,1,"Fake",1,3,0,45,9664
"550",2,27,1,"Real",1,4,0,46,4002
"551",2,22,1,"Fake",1,1,0,47,10838
"552",2,23,1,"Fake",1,1,NA,48,6966
"553",2,14,1,"Fake",1,5,1,49,10008
"554",2,8,1,"Fake",1,5,1,50,2490
"555",2,51,1,"Real",1,4,NA,51,11133
"556",2,20,1,"Fake",1,4,NA,52,4578
"557",2,4,1,"Fake",1,1,1,53,2917
"558",2,34,1,"Real",1,1,NA,54,3479
"559",2,33,1,"Fake",1,5,NA,55,9322
"560",2,5,1,"Fake",1,5,NA,56,8186
"561",2,21,1,"Fake",1,4,0,57,6543
"562",2,50,1,"Real",1,2,1,58,6323
"563",2,19,1,"Real",1,2,NA,59,4502
"564",2,43,1,"Real",1,1,0,60,3550
"565",2,1,1,"Fake",1,2,0,61,11565
"566",2,10,1,"Fake",1,1,1,62,2304
"567",2,13,1,"Fake",1,6,1,63,2234
"568",2,7,1,"Fake",1,3,0,64,5193
"569",2,44,1,"Real",1,1,1,65,3188
"570",2,24,1,"Real",1,1,1,66,3058
"571",2,6,1,"Fake",1,2,NA,67,9542
"572",2,41,1,"Fake",1,1,0,68,13453
"573",2,17,1,"Real",1,1,NA,69,3865
"574",2,54,1,"Fake",1,2,0,70,26779
"575",2,12,1,"Fake",1,2,1,71,7628
"576",2,25,1,"Real",1,4,1,72,5803
"577",2,3,1,"Real",1,4,0,73,9804
"578",2,39,1,"Real",1,5,1,74,6815
"579",2,2,1,"Real",1,2,NA,75,34968
"580",2,26,1,"Fake",1,2,1,76,2766
"581",2,18,1,"Real",1,3,NA,77,6533
"582",2,48,1,"Real",1,1,0,78,7208
"583",2,38,1,"Real",1,1,0,79,7255
"584",2,42,1,"Real",1,3,1,80,7221
"585",2,16,1,"Fake",1,1,0,81,7724
"586",2,37,1,"Fake",1,3,1,82,7302
"587",2,40,1,"Real",1,4,NA,83,11952
"588",2,49,1,"Fake",1,3,1,84,8707
"589",2,9,1,"Real",1,4,0,85,10612
"590",2,11,1,"Real",1,2,NA,86,6357
"591",2,28,1,"Real",1,4,0,87,11791
"592",2,47,1,"Real",1,3,NA,88,8960
"593",2,36,1,"Fake",1,2,NA,89,6776
"594",2,30,1,"Fake",1,3,NA,90,7329
"595",20,22,1,"Real",1,4,0,37,7639
"596",20,32,1,"Fake",1,2,0,38,6635
"597",20,26,1,"Real",1,5,1,39,3658
"598",20,50,1,"Fake",1,4,0,40,7083
"599",20,41,1,"Real",1,5,0,41,5279
"600",20,29,1,"Fake",1,4,0,42,5757
"601",20,30,1,"Real",1,4,NA,43,3416
"602",20,27,1,"Fake",1,3,1,44,3274
"603",20,37,1,"Real",1,5,1,45,6685
"604",20,25,1,"Fake",1,4,0,46,6776
"605",20,51,1,"Fake",1,5,NA,47,2776
"606",20,12,1,"Real",1,3,1,48,2654
"607",20,4,1,"Real",1,5,1,49,1738
"608",20,46,1,"Real",1,3,NA,50,3289
"609",20,23,1,"Real",1,2,NA,51,2282
"610",20,5,1,"Real",1,3,NA,52,3596
"611",20,10,1,"Real",1,4,1,53,4191
"612",20,36,1,"Real",1,4,NA,54,2268
"613",20,39,1,"Fake",1,2,0,55,1237
"614",20,47,1,"Fake",1,3,NA,56,4978
"615",20,20,1,"Real",1,2,NA,57,5119
"616",20,45,1,"Real",1,2,0,58,6114
"617",20,13,1,"Real",1,5,1,59,2142
"618",20,11,1,"Fake",1,4,NA,60,3536
"619",20,7,1,"Real",1,3,0,61,3918
"620",20,34,1,"Fake",1,2,NA,62,3317
"621",20,19,1,"Fake",1,3,NA,63,5468
"622",20,9,1,"Fake",1,2,1,64,2316
"623",20,35,1,"Fake",1,2,1,65,3788
"624",20,42,1,"Fake",1,3,0,66,2544
"625",20,3,1,"Fake",1,2,1,67,3207
"626",20,28,1,"Fake",1,5,1,68,3652
"627",20,40,1,"Fake",1,4,NA,69,2173
"628",20,1,1,"Real",1,2,0,70,4460
"629",20,21,1,"Real",1,4,0,71,4204
"630",20,54,1,"Real",1,4,0,72,3958
"631",20,2,1,"Fake",1,4,NA,73,3035
"632",20,14,1,"Real",1,3,1,74,3221
"633",20,53,1,"Fake",1,2,1,75,904
"634",20,15,1,"Real",1,6,0,76,4547
"635",20,33,1,"Real",1,5,NA,77,2815
"636",20,18,1,"Fake",1,5,NA,78,2843
"637",20,52,1,"Real",1,3,NA,79,4390
"638",20,8,1,"Real",1,4,1,80,2249
"639",20,49,1,"Real",1,2,1,81,1013
"640",20,44,1,"Fake",1,3,0,82,3060
"641",20,17,1,"Fake",1,6,NA,83,1765
"642",20,24,1,"Fake",1,4,0,84,2942
"643",20,43,1,"Fake",1,6,1,85,1637
"644",20,31,1,"Fake",1,4,0,86,4074
"645",20,16,1,"Real",1,2,0,87,4737
"646",20,48,1,"Fake",1,2,1,88,3943
"647",20,6,1,"Real",1,2,NA,89,3956
"648",20,38,1,"Fake",1,3,1,90,3745
"649",21,6,1,"Fake",1,2,0,37,9853
"650",21,52,1,"Fake",1,2,0,38,4781
"651",21,49,1,"Fake",1,2,NA,39,6145
"652",21,12,1,"Fake",1,3,NA,40,9139
"653",21,8,1,"Fake",1,5,NA,41,4761
"654",21,31,1,"Real",1,5,0,42,6332
"655",21,1,1,"Real",1,4,NA,43,5502
"656",21,33,1,"Fake",1,2,0,44,7476
"657",21,28,1,"Real",1,4,1,45,4495
"658",21,4,1,"Fake",1,3,NA,46,6021
"659",21,13,1,"Fake",1,4,NA,47,5652
"660",21,24,1,"Real",1,5,0,48,8762
"661",21,25,1,"Real",1,4,0,49,7818
"662",21,27,1,"Real",1,5,1,50,5967
"663",21,50,1,"Real",1,3,0,51,8656
"664",21,42,1,"Real",1,2,0,52,3770
"665",21,36,1,"Fake",1,4,0,53,6678
"666",21,16,1,"Real",1,5,NA,54,3643
"667",21,5,1,"Fake",1,2,0,55,4932
"668",21,37,1,"Fake",1,5,NA,56,7840
"669",21,48,1,"Real",1,4,1,57,4077
"670",21,34,1,"Fake",1,5,1,58,4021
"671",21,17,1,"Fake",1,6,1,59,2709
"672",21,32,1,"Real",1,2,0,60,5813
"673",21,23,1,"Fake",1,3,0,61,11844
"674",21,15,1,"Real",1,3,NA,62,4259
"675",21,46,1,"Fake",1,2,0,63,4668
"676",21,9,1,"Real",1,4,1,64,3894
"677",21,43,1,"Real",1,4,1,65,3734
"678",21,14,1,"Fake",1,2,NA,66,4555
"679",21,41,1,"Real",1,4,NA,67,10551
"680",21,40,1,"Fake",1,4,1,68,4211
"681",21,45,1,"Real",1,3,NA,69,3774
"682",21,21,1,"Real",1,5,NA,70,4472
"683",21,44,1,"Real",1,4,0,71,5329
"684",21,7,1,"Real",1,2,NA,72,4573
"685",21,29,1,"Real",1,5,0,73,9767
"686",21,10,1,"Fake",1,2,NA,74,5077
"687",21,53,1,"Real",1,5,1,75,6002
"688",21,18,1,"Fake",1,5,1,76,5963
"689",21,35,1,"Real",1,3,1,77,3420
"690",21,20,1,"Fake",1,3,0,78,4447
"691",21,39,1,"Real",1,1,0,79,7406
"692",21,38,1,"Real",1,2,1,80,2821
"693",21,3,1,"Real",1,5,1,81,3544
"694",21,19,1,"Fake",1,3,1,82,5573
"695",21,51,1,"Fake",1,4,1,83,4431
"696",21,54,1,"Real",1,3,NA,84,4305
"697",21,11,1,"Fake",1,2,1,85,3862
"698",21,22,1,"Real",1,2,NA,86,10262
"699",21,30,1,"Fake",1,4,0,87,5798
"700",21,26,1,"Fake",1,3,NA,88,8167
"701",21,47,1,"Fake",1,4,1,89,2678
"702",21,2,1,"Fake",1,5,1,90,4311
"703",22,26,1,"Fake",1,2,0,37,9822
"704",22,10,1,"Fake",1,4,0,38,10262
"705",22,4,1,"Fake",1,3,0,39,8891
"706",22,44,1,"Real",1,3,NA,40,8723
"707",22,35,1,"Fake",1,2,NA,41,5007
"708",22,50,1,"Real",1,4,NA,42,7764
"709",22,45,1,"Real",1,3,1,43,5490
"710",22,14,1,"Fake",1,5,0,44,11430
"711",22,7,1,"Real",1,5,1,45,2333
"712",22,41,1,"Real",1,3,1,46,5020
"713",22,29,1,"Real",1,4,NA,47,5490
"714",22,1,1,"Real",1,4,1,48,5334
"715",22,23,1,"Fake",1,5,1,49,3608
"716",22,12,1,"Fake",1,4,0,50,9585
"717",22,53,1,"Fake",1,3,NA,51,6609
"718",22,31,1,"Real",1,3,NA,52,6660
"719",22,46,1,"Fake",1,5,1,53,6401
"720",22,51,1,"Real",1,5,0,54,7767
"721",22,42,1,"Real",1,4,NA,55,7343
"722",22,27,1,"Fake",1,2,NA,56,4975
"723",22,39,1,"Real",1,2,NA,57,4394
"724",22,16,1,"Real",1,3,1,58,4392
"725",22,18,1,"Real",1,4,0,59,7316
"726",22,6,1,"Fake",1,4,1,60,3453
"727",22,21,1,"Real",1,5,1,61,6406
"728",22,11,1,"Real",1,5,0,62,6313
"729",22,32,1,"Real",1,4,NA,63,12597
"730",22,43,1,"Fake",1,5,NA,64,7146
"731",22,33,1,"Fake",1,4,1,65,5680
"732",22,30,1,"Fake",1,3,1,66,12610
"733",22,49,1,"Fake",1,4,0,67,8312
"734",22,28,1,"Fake",1,4,NA,68,5414
"735",22,38,1,"Fake",1,1,NA,69,8359
"736",22,2,1,"Real",1,1,0,70,7099
"737",22,8,1,"Fake",1,3,0,71,16789
"738",22,54,1,"Real",1,2,1,72,10366
"739",22,13,1,"Fake",1,3,0,73,7352
"740",22,15,1,"Real",1,5,1,74,3814
"741",22,40,1,"Real",1,5,0,75,6648
"742",22,47,1,"Real",1,4,0,76,6650
"743",22,3,1,"Fake",1,4,NA,77,15910
"744",22,19,1,"Real",1,3,0,78,8763
"745",22,22,1,"Real",1,4,1,79,11024
"746",22,25,1,"Real",1,6,NA,80,3896
"747",22,48,1,"Fake",1,1,NA,81,6166
"748",22,20,1,"Fake",1,6,1,82,5081
"749",22,36,1,"Fake",1,6,1,83,4326
"750",22,9,1,"Fake",1,4,NA,84,6273
"751",22,34,1,"Real",1,4,0,85,5797
"752",22,24,1,"Real",1,5,NA,86,3740
"753",22,37,1,"Fake",1,3,0,87,6039
"754",22,17,1,"Real",1,4,0,88,6582
"755",22,52,1,"Fake",1,6,1,89,4148
"756",22,5,1,"Fake",1,6,1,90,5176
"757",23,29,1,"Fake",1,4,0,37,8627
"758",23,12,1,"Real",1,4,1,38,9462
"759",23,48,1,"Fake",1,2,1,39,4118
"760",23,25,1,"Fake",1,3,0,40,9324
"761",23,46,1,"Real",1,5,NA,41,8121
"762",23,19,1,"Fake",1,2,NA,42,11705
"763",23,31,1,"Fake",1,4,0,43,8461
"764",23,7,1,"Real",1,1,0,44,4502
"765",23,23,1,"Real",1,2,NA,45,12132
"766",23,28,1,"Fake",1,4,1,46,6078
"767",23,33,1,"Real",1,1,NA,47,7308
"768",23,6,1,"Real",1,4,NA,48,8188
"769",23,30,1,"Real",1,3,NA,49,4851
"770",23,20,1,"Real",1,1,NA,50,7235
"771",23,14,1,"Real",1,5,1,51,7984
"772",23,26,1,"Real",1,2,1,52,5118
"773",23,5,1,"Real",1,4,NA,53,6259
"774",23,9,1,"Fake",1,4,1,54,6409
"775",23,15,1,"Real",1,3,0,55,8984
"776",23,44,1,"Fake",1,5,0,56,8012
"777",23,8,1,"Real",1,4,1,57,3680
"778",23,4,1,"Real",1,2,1,58,6720
"779",23,2,1,"Fake",1,2,NA,59,8996
"780",23,53,1,"Fake",1,3,1,60,8758
"781",23,1,1,"Real",1,4,0,61,6444
"782",23,24,1,"Fake",1,5,0,62,4969
"783",23,18,1,"Fake",1,1,NA,63,7621
"784",23,35,1,"Fake",1,1,1,64,10490
"785",23,43,1,"Fake",1,4,1,65,2709
"786",23,17,1,"Fake",1,6,NA,66,3264
"787",23,27,1,"Fake",1,5,1,67,5451
"788",23,22,1,"Real",1,3,0,68,10970
"789",23,13,1,"Real",1,4,1,69,4596
"790",23,49,1,"Real",1,4,1,70,5166
"791",23,54,1,"Real",1,3,0,71,5128
"792",23,52,1,"Real",1,4,NA,72,6301
"793",23,47,1,"Fake",1,3,NA,73,5065
"794",23,36,1,"Real",1,3,NA,74,5562
"795",23,10,1,"Real",1,2,1,75,5980
"796",23,11,1,"Fake",1,3,NA,76,8085
"797",23,32,1,"Fake",1,5,0,77,6432
"798",23,41,1,"Real",1,4,0,78,7253
"799",23,50,1,"Fake",1,3,0,79,7160
"800",23,39,1,"Fake",1,5,0,80,18760
"801",23,45,1,"Real",1,3,0,81,4511
"802",23,42,1,"Fake",1,5,0,82,2773
"803",23,34,1,"Fake",1,2,NA,83,4677
"804",23,51,1,"Fake",1,3,NA,84,5212
"805",23,21,1,"Real",1,4,0,85,5293
"806",23,40,1,"Fake",1,5,NA,86,7003
"807",23,16,1,"Real",1,4,0,87,4865
"808",23,38,1,"Fake",1,3,1,88,4088
"809",23,3,1,"Fake",1,3,1,89,8048
"810",23,37,1,"Real",1,5,1,90,6043
"811",25,43,1,"Fake",1,2,0,37,12437
"812",25,13,1,"Real",1,2,NA,38,8299
"813",25,51,1,"Real",1,2,1,39,14755
"814",25,20,1,"Real",1,1,0,40,6488
"815",25,34,1,"Real",1,5,1,41,4661
"816",25,29,1,"Fake",1,2,NA,42,13026
"817",25,1,1,"Fake",1,3,1,43,32094
"818",25,10,1,"Real",1,1,NA,44,15191
"819",25,26,1,"Real",1,1,NA,45,11355
"820",25,40,1,"Real",1,5,1,46,4613
"821",25,3,1,"Fake",1,3,0,47,9742
"822",25,16,1,"Fake",1,5,1,48,4515
"823",25,8,1,"Real",1,3,NA,49,10881
"824",25,25,1,"Fake",1,3,NA,50,8070
"825",25,14,1,"Real",1,1,NA,51,7456
"826",25,36,1,"Real",1,4,0,52,5194
"827",25,41,1,"Fake",1,5,1,53,7172
"828",25,18,1,"Real",1,5,1,54,5571
"829",25,22,1,"Fake",1,5,1,55,8844
"830",25,24,1,"Fake",1,4,NA,56,6958
"831",25,12,1,"Real",1,3,NA,57,12526
"832",25,53,1,"Fake",1,4,0,58,10415
"833",25,7,1,"Fake",1,3,1,59,8520
"834",25,27,1,"Fake",1,4,0,60,7415
"835",25,9,1,"Fake",1,4,0,61,9164
"836",25,35,1,"Fake",1,4,0,62,7569
"837",25,5,1,"Real",1,3,0,63,9640
"838",25,2,1,"Real",1,2,1,64,12233
"839",25,38,1,"Fake",1,5,0,65,16119
"840",25,39,1,"Fake",1,3,NA,66,14739
"841",25,33,1,"Real",1,5,0,67,7762
"842",25,30,1,"Real",1,3,0,68,7336
"843",25,52,1,"Real",1,4,0,69,8153
"844",25,50,1,"Fake",1,3,NA,70,9846
"845",25,31,1,"Fake",1,2,NA,71,7751
"846",25,45,1,"Fake",1,3,1,72,9430
"847",25,28,1,"Fake",1,4,0,73,5648
"848",25,4,1,"Real",1,3,NA,74,7760
"849",25,15,1,"Fake",1,4,1,75,9604
"850",25,21,1,"Fake",1,4,1,76,4646
"851",25,49,1,"Real",1,2,NA,77,9454
"852",25,6,1,"Real",1,3,0,78,17167
"853",25,47,1,"Real",1,4,1,79,3561
"854",25,37,1,"Real",1,4,NA,80,5805
"855",25,32,1,"Fake",1,3,NA,81,11101
"856",25,23,1,"Real",1,4,0,82,6498
"857",25,11,1,"Real",1,4,1,83,4236
"858",25,44,1,"Fake",1,3,NA,84,4893
"859",25,42,1,"Fake",1,3,NA,85,6219
"860",25,17,1,"Real",1,5,1,86,4571
"861",25,46,1,"Real",1,4,0,87,7126
"862",25,19,1,"Real",1,4,1,88,3614
"863",25,48,1,"Fake",1,1,0,89,6505
"864",25,54,1,"Fake",1,4,1,90,3875
"865",26,10,1,"Fake",1,3,0,37,13544
"866",26,28,1,"Fake",1,4,NA,38,7415
"867",26,9,1,"Fake",1,4,NA,39,9469
"868",26,18,1,"Real",1,5,0,40,7102
"869",26,16,1,"Real",1,2,1,41,6938
"870",26,36,1,"Fake",1,4,1,42,5437
"871",26,48,1,"Fake",1,4,NA,43,4438
"872",26,7,1,"Real",1,2,1,44,4119
"873",26,34,1,"Real",1,3,0,45,6942
"874",26,15,1,"Real",1,4,1,46,4367
"875",26,26,1,"Fake",1,2,0,47,13613
"876",26,24,1,"Real",1,5,NA,48,3842
"877",26,39,1,"Real",1,2,NA,49,12867
"878",26,21,1,"Real",1,5,1,50,7232
"879",26,42,1,"Real",1,5,NA,51,4045
"880",26,43,1,"Fake",1,4,NA,52,4847
"881",26,23,1,"Fake",1,3,1,53,5793
"882",26,22,1,"Real",1,1,1,54,10563
"883",26,20,1,"Fake",1,1,1,55,2647
"884",26,5,1,"Fake",1,1,1,56,4002
"885",26,14,1,"Fake",1,2,0,57,8638
"886",26,47,1,"Real",1,3,0,58,3650
"887",26,32,1,"Real",1,2,NA,59,6468
"888",26,4,1,"Fake",1,3,0,60,4828
"889",26,53,1,"Fake",1,4,NA,61,6421
"890",26,33,1,"Fake",1,5,1,62,802
"891",26,50,1,"Real",1,2,NA,63,6227
"892",26,17,1,"Real",1,3,0,64,4858
"893",26,19,1,"Real",1,3,0,65,5531
"894",26,44,1,"Real",1,4,NA,66,3368
"895",26,31,1,"Real",1,5,NA,67,3541
"896",26,40,1,"Real",1,3,0,68,12262
"897",26,2,1,"Real",1,3,0,69,8970
"898",26,49,1,"Fake",1,3,0,70,10623
"899",26,30,1,"Fake",1,4,1,71,4921
"900",26,52,1,"Fake",1,1,1,72,5655
"901",26,38,1,"Fake",1,4,NA,73,3046
"902",26,27,1,"Fake",1,3,NA,74,4746
"903",26,35,1,"Fake",1,4,NA,75,5280
"904",26,11,1,"Real",1,3,0,76,629
"905",26,12,1,"Fake",1,3,0,77,9478
"906",26,6,1,"Fake",1,2,1,78,4654
"907",26,46,1,"Fake",1,4,1,79,3695
"908",26,8,1,"Fake",1,4,0,80,5848
"909",26,51,1,"Real",1,4,0,81,633
"910",26,45,1,"Real",1,3,1,82,9264
"911",26,1,1,"Real",1,2,1,83,3891
"912",26,3,1,"Fake",1,2,NA,84,9115
"913",26,37,1,"Fake",1,4,0,85,5307
"914",26,29,1,"Real",1,4,NA,86,6871
"915",26,54,1,"Real",1,3,1,87,5028
"916",26,25,1,"Real",1,3,NA,88,7103
"917",26,41,1,"Real",1,4,1,89,4562
"918",26,13,1,"Fake",1,2,0,90,5215
"919",27,3,1,"Real",1,5,1,37,19762
"920",27,46,1,"Fake",1,4,0,38,14239
"921",27,24,1,"Real",1,5,0,39,8761
"922",27,37,1,"Fake",1,4,NA,40,10951
"923",27,6,1,"Fake",1,4,0,41,12097
"924",27,31,1,"Real",1,5,0,42,7188
"925",27,12,1,"Fake",1,3,NA,43,9363
"926",27,39,1,"Real",1,5,0,44,15695
"927",27,2,1,"Fake",1,4,1,45,12045
"928",27,50,1,"Real",1,5,0,46,9265
"929",27,22,1,"Real",1,6,NA,47,10674
"930",27,8,1,"Fake",1,4,NA,48,9553
"931",27,1,1,"Real",1,4,NA,49,10956
"932",27,4,1,"Fake",1,5,NA,50,8992
"933",27,30,1,"Fake",1,4,0,51,15596
"934",27,51,1,"Fake",1,5,1,52,9520
"935",27,27,1,"Real",1,5,1,53,7157
"936",27,38,1,"Real",1,4,1,54,7093
"937",27,23,1,"Fake",1,4,0,55,11824
"938",27,20,1,"Fake",1,3,0,56,13416
"939",27,11,1,"Fake",1,4,1,57,8411
"940",27,29,1,"Real",1,5,0,58,13784
"941",27,18,1,"Fake",1,3,1,59,10253
"942",27,48,1,"Real",1,5,1,60,6445
"943",27,41,1,"Real",1,4,NA,61,12556
"944",27,21,1,"Real",1,5,NA,62,7156
"945",27,5,1,"Fake",1,3,0,63,8517
"946",27,45,1,"Real",1,4,NA,64,13429
"947",27,36,1,"Fake",1,3,0,65,9001
"948",27,26,1,"Fake",1,3,NA,66,9701
"949",27,40,1,"Fake",1,4,1,67,8084
"950",27,15,1,"Real",1,5,NA,68,6326
"951",27,54,1,"Real",1,5,NA,69,14841
"952",27,17,1,"Fake",1,3,1,70,8411
"953",27,13,1,"Fake",1,3,NA,71,7359
"954",27,33,1,"Fake",1,3,0,72,11870
"955",27,44,1,"Real",1,4,0,73,8260
"956",27,34,1,"Fake",1,4,1,74,7110
"957",27,25,1,"Real",1,4,0,75,11128
"958",27,7,1,"Real",1,4,NA,76,8380
"959",27,35,1,"Real",1,5,1,77,10249
"960",27,19,1,"Fake",1,3,1,78,4873
"961",27,43,1,"Real",1,4,1,79,3601
"962",27,9,1,"Real",1,5,1,80,4758
"963",27,14,1,"Fake",1,3,NA,81,9234
"964",27,32,1,"Real",1,4,0,82,7781
"965",27,53,1,"Real",1,4,1,83,10123
"966",27,47,1,"Fake",1,4,1,84,7681
"967",27,49,1,"Fake",1,3,NA,85,11421
"968",27,28,1,"Real",1,5,1,86,19506
"969",27,16,1,"Real",1,4,NA,87,10059
"970",27,42,1,"Real",1,5,0,88,11810
"971",27,52,1,"Fake",1,4,0,89,13658
"972",27,10,1,"Fake",1,3,NA,90,8628
"973",28,6,1,"Real",1,2,NA,37,5529
"974",28,26,1,"Real",1,5,1,38,6005
"975",28,28,1,"Fake",1,4,1,39,5940
"976",28,7,1,"Real",1,4,0,40,6919
"977",28,35,1,"Fake",1,4,1,41,6609
"978",28,31,1,"Fake",1,3,0,42,5983
"979",28,25,1,"Fake",1,4,0,43,12166
"980",28,14,1,"Real",1,4,1,44,4824
"981",28,12,1,"Real",1,5,1,45,3481
"982",28,10,1,"Real",1,3,1,46,5257
"983",28,46,1,"Real",1,3,NA,47,4079
"984",28,2,1,"Fake",1,2,NA,48,5605
"985",28,42,1,"Fake",1,4,0,49,4830
"986",28,53,1,"Fake",1,5,1,50,4350
"987",28,9,1,"Fake",1,5,1,51,5209
"988",28,23,1,"Real",1,2,NA,52,4683
"989",28,11,1,"Fake",1,1,NA,53,4842
"990",28,3,1,"Fake",1,4,1,54,5230
"991",28,1,1,"Real",1,5,0,55,5870
"992",28,18,1,"Fake",1,3,NA,56,3780
"993",28,54,1,"Real",1,3,0,57,3536
"994",28,5,1,"Real",1,2,NA,58,3789
"995",28,43,1,"Fake",1,3,1,59,4553
"996",28,37,1,"Real",1,3,1,60,5660
"997",28,30,1,"Real",1,3,NA,61,1876
"998",28,32,1,"Fake",1,3,0,62,4453
"999",28,51,1,"Fake",1,2,NA,63,3942
"1000",28,24,1,"Fake",1,3,0,64,3747
"1001",28,27,1,"Fake",1,5,1,65,3593
"1002",28,8,1,"Real",1,5,1,66,2580
"1003",28,19,1,"Fake",1,2,NA,67,4184
"1004",28,47,1,"Fake",1,2,NA,68,1771
"1005",28,17,1,"Fake",1,2,NA,69,1947
"1006",28,40,1,"Fake",1,2,NA,70,4946
"1007",28,33,1,"Real",1,2,NA,71,5717
"1008",28,52,1,"Real",1,3,NA,72,3591
"1009",28,20,1,"Real",1,4,NA,73,2188
"1010",28,22,1,"Real",1,3,0,74,12624
"1011",28,44,1,"Fake",1,3,0,75,5022
"1012",28,34,1,"Fake",1,4,NA,76,3190
"1013",28,15,1,"Real",1,3,0,77,6914
"1014",28,36,1,"Real",1,4,NA,78,3644
"1015",28,13,1,"Real",1,5,1,79,3037
"1016",28,49,1,"Real",1,4,1,80,4063
"1017",28,48,1,"Fake",1,4,1,81,3040
"1018",28,41,1,"Real",1,4,0,82,7537
"1019",28,45,1,"Real",1,5,0,83,5129
"1020",28,4,1,"Real",1,4,1,84,5614
"1021",28,29,1,"Fake",1,3,0,85,5668
"1022",28,50,1,"Fake",1,3,0,86,8297
"1023",28,38,1,"Fake",1,4,1,87,7707
"1024",28,16,1,"Real",1,4,0,88,9309
"1025",28,39,1,"Fake",1,3,0,89,4683
"1026",28,21,1,"Real",1,3,0,90,4809
"1027",29,16,1,"Real",1,1,0,37,14750
"1028",29,25,1,"Fake",1,5,0,38,8036
"1029",29,51,1,"Fake",1,3,NA,39,9648
"1030",29,5,1,"Real",1,2,NA,40,10243
"1031",29,9,1,"Fake",1,4,1,41,2731
"1032",29,32,1,"Fake",1,2,0,42,4549
"1033",29,38,1,"Fake",1,5,1,43,4826
"1034",29,49,1,"Real",1,2,1,44,4116
"1035",29,46,1,"Real",1,3,NA,45,5108
"1036",29,21,1,"Real",1,4,0,46,7139
"1037",29,39,1,"Fake",1,3,0,47,12558
"1038",29,35,1,"Fake",1,4,1,48,3150
"1039",29,6,1,"Real",1,3,NA,49,7189
"1040",29,36,1,"Real",1,3,NA,50,6526
"1041",29,23,1,"Real",1,4,NA,51,4801
"1042",29,42,1,"Fake",1,5,0,52,5365
"1043",29,17,1,"Fake",1,3,NA,53,4233
"1044",29,45,1,"Real",1,4,0,54,5836
"1045",29,34,1,"Fake",1,2,NA,55,7100
"1046",29,48,1,"Fake",1,4,1,56,4273
"1047",29,52,1,"Real",1,3,NA,57,4162
"1048",29,24,1,"Fake",1,2,0,58,4112
"1049",29,43,1,"Fake",1,4,1,59,2497
"1050",29,50,1,"Fake",1,2,0,60,5555
"1051",29,10,1,"Real",1,3,1,61,4550
"1052",29,33,1,"Real",1,2,NA,62,3757
"1053",29,11,1,"Fake",1,3,NA,63,3652
"1054",29,27,1,"Fake",1,4,1,64,3366
"1055",29,8,1,"Real",1,4,1,65,2829
"1056",29,28,1,"Fake",1,4,1,66,2867
"1057",29,41,1,"Real",1,3,0,67,10261
"1058",29,29,1,"Fake",1,4,0,68,5942
"1059",29,53,1,"Fake",1,4,1,69,2971
"1060",29,31,1,"Fake",1,3,0,70,4562
"1061",29,22,1,"Real",1,3,0,71,10296
"1062",29,26,1,"Real",1,4,1,72,2934
"1063",29,20,1,"Real",1,2,NA,73,3887
"1064",29,37,1,"Real",1,4,1,74,4944
"1065",29,15,1,"Real",1,3,0,75,5991
"1066",29,44,1,"Fake",1,3,0,76,9760
"1067",29,14,1,"Real",1,4,1,77,5318
"1068",29,18,1,"Fake",1,3,NA,78,4290
"1069",29,13,1,"Real",1,4,1,79,2668
"1070",29,2,1,"Fake",1,2,NA,80,4744
"1071",29,3,1,"Fake",1,4,1,81,4022
"1072",29,54,1,"Real",1,3,0,82,5466
"1073",29,1,1,"Real",1,3,0,83,6656
"1074",29,47,1,"Fake",1,1,NA,84,3607
"1075",29,7,1,"Real",1,2,0,85,3821
"1076",29,19,1,"Fake",1,2,NA,86,4048
"1077",29,30,1,"Real",1,3,NA,87,3956
"1078",29,40,1,"Fake",1,4,NA,88,4586
"1079",29,12,1,"Real",1,2,1,89,4149
"1080",29,4,1,"Real",1,4,1,90,6412
"1081",3,35,1,"Real",1,5,1,37,10864
"1082",3,38,1,"Real",1,5,1,38,6977
"1083",3,36,1,"Fake",1,4,0,39,7448
"1084",3,47,1,"Fake",1,3,1,40,17325
"1085",3,51,1,"Fake",1,4,1,41,12544
"1086",3,29,1,"Real",1,5,0,42,11707
"1087",3,39,1,"Real",1,3,0,43,13159
"1088",3,21,1,"Real",1,6,NA,44,7231
"1089",3,53,1,"Real",1,6,1,45,4621
"1090",3,11,1,"Fake",1,1,1,46,6694
"1091",3,34,1,"Fake",1,5,1,47,4986
"1092",3,32,1,"Real",1,6,0,48,9045
"1093",3,20,1,"Fake",1,1,0,49,10102
"1094",3,48,1,"Real",1,3,1,50,8870
"1095",3,42,1,"Real",1,4,0,51,9752
"1096",3,33,1,"Fake",1,1,0,52,6878
"1097",3,17,1,"Fake",1,4,1,53,4353
"1098",3,24,1,"Real",1,3,0,54,16429
"1099",3,1,1,"Real",1,5,NA,55,10607
"1100",3,22,1,"Real",1,5,NA,56,13072
"1101",3,7,1,"Real",1,6,NA,57,5732
"1102",3,27,1,"Real",1,2,1,58,15792
"1103",3,43,1,"Real",1,3,1,59,4005
"1104",3,13,1,"Fake",1,5,NA,60,11288
"1105",3,4,1,"Fake",1,2,NA,61,7765
"1106",3,15,1,"Real",1,5,NA,62,7485
"1107",3,50,1,"Real",1,4,0,63,6656
"1108",3,44,1,"Real",1,2,0,64,6373
"1109",3,12,1,"Fake",1,1,NA,65,15166
"1110",3,5,1,"Fake",1,1,0,66,9843
"1111",3,28,1,"Real",1,5,1,67,7588
"1112",3,41,1,"Real",1,3,NA,68,8492
"1113",3,37,1,"Fake",1,2,NA,69,9573
"1114",3,25,1,"Real",1,4,0,70,6026
"1115",3,6,1,"Fake",1,5,0,71,5497
"1116",3,14,1,"Fake",1,5,NA,72,10286
"1117",3,54,1,"Real",1,4,NA,73,9773
"1118",3,19,1,"Fake",1,2,1,74,7210
"1119",3,9,1,"Real",1,6,1,75,4689
"1120",3,40,1,"Fake",1,4,1,76,4144
"1121",3,45,1,"Real",1,5,NA,77,7412
"1122",3,30,1,"Fake",1,4,0,78,7683
"1123",3,46,1,"Fake",1,1,0,79,8501
"1124",3,3,1,"Real",1,6,1,80,13559
"1125",3,49,1,"Fake",1,3,NA,81,7189
"1126",3,2,1,"Fake",1,3,1,82,9541
"1127",3,31,1,"Real",1,4,0,83,7355
"1128",3,18,1,"Fake",1,3,1,84,5163
"1129",3,52,1,"Fake",1,4,0,85,11669
"1130",3,8,1,"Fake",1,4,NA,86,6821
"1131",3,10,1,"Fake",1,3,NA,87,7707
"1132",3,26,1,"Fake",1,4,NA,88,4987
"1133",3,16,1,"Real",1,4,NA,89,4999
"1134",3,23,1,"Fake",1,2,0,90,6057
"1135",30,53,1,"Real",1,2,0,37,13439
"1136",30,49,1,"Fake",1,5,1,38,15579
"1137",30,9,1,"Real",1,2,0,39,9473
"1138",30,35,1,"Real",1,2,0,40,8857
"1139",30,20,1,"Fake",1,1,NA,41,8508
"1140",30,47,1,"Real",1,2,NA,42,10364
"1141",30,8,1,"Fake",1,2,1,43,12104
"1142",30,4,1,"Fake",1,6,1,44,2956
"1143",30,16,1,"Fake",1,1,0,45,2408
"1144",30,12,1,"Fake",1,5,1,46,4388
"1145",30,52,1,"Fake",1,4,NA,47,8792
"1146",30,50,1,"Real",1,4,1,48,5052
"1147",30,34,1,"Real",1,2,NA,49,5653
"1148",30,11,1,"Real",1,5,NA,50,11563
"1149",30,46,1,"Fake",1,2,NA,51,8590
"1150",30,22,1,"Fake",1,5,0,52,6267
"1151",30,29,1,"Real",1,2,1,53,4922
"1152",30,36,1,"Fake",1,3,NA,54,6263
"1153",30,3,1,"Real",1,3,0,55,5828
"1154",30,17,1,"Real",1,4,NA,56,4763
"1155",30,15,1,"Fake",1,5,0,57,8231
"1156",30,30,1,"Fake",1,4,NA,58,8075
"1157",30,25,1,"Real",1,5,1,59,12477
"1158",30,37,1,"Fake",1,3,1,60,5515
"1159",30,31,1,"Real",1,5,1,61,14039
"1160",30,54,1,"Fake",1,4,0,62,10339
"1161",30,33,1,"Fake",1,2,NA,63,6640
"1162",30,7,1,"Fake",1,2,0,64,5439
"1163",30,43,1,"Real",1,6,0,65,4248
"1164",30,13,1,"Fake",1,2,1,66,7040
"1165",30,14,1,"Fake",1,3,1,67,9317
"1166",30,51,1,"Real",1,3,NA,68,10021
"1167",30,23,1,"Fake",1,3,NA,69,4304
"1168",30,19,1,"Real",1,3,NA,70,7853
"1169",30,5,1,"Fake",1,2,NA,71,8225
"1170",30,26,1,"Fake",1,4,1,72,5701
"1171",30,24,1,"Real",1,3,1,73,9074
"1172",30,10,1,"Fake",1,3,1,74,4468
"1173",30,2,1,"Real",1,2,NA,75,5523
"1174",30,18,1,"Real",1,1,NA,76,7607
"1175",30,42,1,"Real",1,3,1,77,5398
"1176",30,40,1,"Real",1,3,NA,78,5230
"1177",30,39,1,"Real",1,4,1,79,5032
"1178",30,48,1,"Real",1,2,0,80,4489
"1179",30,1,1,"Fake",1,2,0,81,7047
"1180",30,38,1,"Real",1,6,0,82,3132
"1181",30,28,1,"Real",1,3,0,83,13035
"1182",30,44,1,"Real",1,3,1,84,4186
"1183",30,27,1,"Real",1,2,0,85,3670
"1184",30,21,1,"Fake",1,5,0,86,6254
"1185",30,41,1,"Fake",1,2,0,87,9651
"1186",30,32,1,"Real",1,3,1,88,5748
"1187",30,45,1,"Fake",1,2,0,89,9240
"1188",30,6,1,"Fake",1,1,NA,90,3763
"1189",31,26,1,"Fake",1,4,0,37,10334
"1190",31,7,1,"Real",1,3,1,38,10943
"1191",31,34,1,"Real",1,1,0,39,13866
"1192",31,5,1,"Fake",1,5,1,40,4209
"1193",31,43,1,"Fake",1,2,NA,41,5106
"1194",31,8,1,"Fake",1,2,0,42,6581
"1195",31,27,1,"Fake",1,5,NA,43,5090
"1196",31,41,1,"Real",1,4,1,44,3799
"1197",31,12,1,"Fake",1,4,0,45,8585
"1198",31,2,1,"Real",1,1,0,46,7022
"1199",31,16,1,"Real",1,2,1,47,6113
"1200",31,35,1,"Fake",1,3,NA,48,12650
"1201",31,44,1,"Real",1,2,NA,49,2725
"1202",31,21,1,"Real",1,5,1,50,3642
"1203",31,28,1,"Fake",1,4,NA,51,14137
"1204",31,48,1,"Fake",1,4,NA,52,3838
"1205",31,30,1,"Fake",1,4,1,53,5807
"1206",31,45,1,"Real",1,4,1,54,7735
"1207",31,17,1,"Real",1,3,0,55,5102
"1208",31,25,1,"Real",1,2,NA,56,4538
"1209",31,9,1,"Fake",1,2,NA,57,6247
"1210",31,50,1,"Real",1,1,NA,58,6520
"1211",31,15,1,"Real",1,4,1,59,4490
"1212",31,14,1,"Fake",1,5,0,60,7487
"1213",31,6,1,"Fake",1,5,1,61,5369
"1214",31,1,1,"Real",1,4,1,62,3713
"1215",31,40,1,"Real",1,3,0,63,5768
"1216",31,51,1,"Real",1,3,0,64,5815
"1217",31,3,1,"Fake",1,3,NA,65,3143
"1218",31,42,1,"Real",1,5,NA,66,7155
"1219",31,37,1,"Fake",1,4,0,67,8042
"1220",31,29,1,"Real",1,2,NA,68,6132
"1221",31,36,1,"Fake",1,4,1,69,5038
"1222",31,10,1,"Fake",1,3,0,70,4077
"1223",31,38,1,"Fake",1,3,NA,71,3267
"1224",31,11,1,"Real",1,1,0,72,3916
"1225",31,22,1,"Real",1,4,1,73,8432
"1226",31,13,1,"Fake",1,1,0,74,5194
"1227",31,49,1,"Fake",1,3,0,75,8241
"1228",31,32,1,"Real",1,3,NA,76,7779
"1229",31,19,1,"Real",1,4,0,77,3385
"1230",31,46,1,"Fake",1,5,1,78,4556
"1231",31,23,1,"Fake",1,4,1,79,3240
"1232",31,4,1,"Fake",1,4,0,80,5896
"1233",31,24,1,"Real",1,4,NA,81,4899
"1234",31,47,1,"Real",1,4,0,82,5916
"1235",31,54,1,"Real",1,4,1,83,4128
"1236",31,53,1,"Fake",1,4,NA,84,3630
"1237",31,31,1,"Real",1,3,NA,85,7381
"1238",31,18,1,"Real",1,6,0,86,3612
"1239",31,20,1,"Fake",1,5,1,87,7295
"1240",31,52,1,"Fake",1,5,1,88,2392
"1241",31,33,1,"Fake",1,3,1,89,4069
"1242",31,39,1,"Real",1,4,NA,90,4355
"1243",32,34,1,"Real",1,3,1,37,10133
"1244",32,13,1,"Real",1,2,NA,38,7033
"1245",32,24,1,"Fake",1,2,NA,39,9588
"1246",32,16,1,"Fake",1,4,1,40,2879
"1247",32,46,1,"Real",1,2,0,41,6164
"1248",32,30,1,"Real",1,2,0,42,4060
"1249",32,52,1,"Real",1,4,0,43,4931
"1250",32,42,1,"Fake",1,3,NA,44,2603
"1251",32,19,1,"Real",1,4,1,45,5782
"1252",32,43,1,"Fake",1,2,0,46,3703
"1253",32,40,1,"Real",1,4,1,47,4709
"1254",32,54,1,"Fake",1,4,1,48,8040
"1255",32,23,1,"Real",1,4,0,49,5906
"1256",32,5,1,"Real",1,3,0,50,3994
"1257",32,8,1,"Real",1,4,NA,51,2589
"1258",32,45,1,"Fake",1,4,1,52,3319
"1259",32,18,1,"Real",1,4,1,53,2300
"1260",32,1,1,"Fake",1,4,1,54,3938
"1261",32,26,1,"Real",1,3,NA,55,2868
"1262",32,33,1,"Real",1,3,0,56,3052
"1263",32,51,1,"Real",1,4,1,57,2726
"1264",32,47,1,"Real",1,4,1,58,2212
"1265",32,20,1,"Real",1,2,0,59,2560
"1266",32,48,1,"Fake",1,4,0,60,4939
"1267",32,17,1,"Real",1,4,1,61,4631
"1268",32,12,1,"Real",1,2,NA,62,3526
"1269",32,49,1,"Real",1,2,NA,63,2482
"1270",32,39,1,"Fake",1,2,NA,64,4547
"1271",32,25,1,"Fake",1,3,NA,65,4756
"1272",32,50,1,"Fake",1,4,NA,66,2557
"1273",32,37,1,"Real",1,3,NA,67,3442
"1274",32,2,1,"Real",1,3,1,68,2483
"1275",32,35,1,"Fake",1,4,0,69,4043
"1276",32,27,1,"Fake",1,3,0,70,3955
"1277",32,22,1,"Fake",1,4,1,71,2144
"1278",32,14,1,"Real",1,2,NA,72,2894
"1279",32,15,1,"Fake",1,4,1,73,2548
"1280",32,31,1,"Fake",1,2,NA,74,2752
"1281",32,11,1,"Real",1,2,1,75,1837
"1282",32,36,1,"Real",1,2,0,76,5113
"1283",32,28,1,"Fake",1,4,0,77,2933
"1284",32,32,1,"Fake",1,2,NA,78,3721
"1285",32,41,1,"Fake",1,3,1,79,2238
"1286",32,53,1,"Fake",1,4,0,80,7480
"1287",32,38,1,"Fake",1,2,0,81,6697
"1288",32,7,1,"Fake",1,3,1,82,2173
"1289",32,10,1,"Real",1,2,NA,83,3618
"1290",32,29,1,"Fake",1,4,NA,84,5665
"1291",32,6,1,"Real",1,4,0,85,5934
"1292",32,3,1,"Fake",1,3,0,86,4800
"1293",32,4,1,"Real",1,2,NA,87,4824
"1294",32,21,1,"Fake",1,3,1,88,4096
"1295",32,9,1,"Fake",1,3,0,89,2525
"1296",32,44,1,"Fake",1,3,NA,90,3043
"1297",33,50,1,"Real",1,3,0,37,16800
"1298",33,12,1,"Fake",1,5,NA,38,5800
"1299",33,22,1,"Real",1,6,NA,39,12262
"1300",33,37,1,"Fake",1,6,NA,40,7049
"1301",33,39,1,"Real",1,6,0,41,7132
"1302",33,10,1,"Fake",1,2,NA,42,11587
"1303",33,51,1,"Fake",1,5,1,43,7050
"1304",33,45,1,"Real",1,5,NA,44,3797
"1305",33,28,1,"Real",1,5,1,45,3614
"1306",33,42,1,"Real",1,5,0,46,4102
"1307",33,2,1,"Fake",1,3,1,47,2330
"1308",33,53,1,"Real",1,4,1,48,2663
"1309",33,11,1,"Fake",1,2,1,49,3941
"1310",33,21,1,"Real",1,1,NA,50,3057
"1311",33,31,1,"Real",1,2,0,51,6730
"1312",33,6,1,"Fake",1,3,0,52,5905
"1313",33,35,1,"Real",1,4,1,53,10700
"1314",33,36,1,"Fake",1,5,0,54,6353
"1315",33,20,1,"Fake",1,4,0,55,4626
"1316",33,7,1,"Real",1,5,NA,56,2441
"1317",33,15,1,"Real",1,5,NA,57,5001
"1318",33,29,1,"Real",1,5,0,58,7391
"1319",33,4,1,"Fake",1,3,NA,59,12643
"1320",33,27,1,"Real",1,4,1,60,5585
"1321",33,43,1,"Real",1,1,1,61,6808
"1322",33,44,1,"Real",1,4,0,62,6839
"1323",33,14,1,"Fake",1,4,NA,63,10788
"1324",33,52,1,"Fake",1,5,0,64,26100
"1325",33,34,1,"Fake",1,4,1,65,6100
"1326",33,47,1,"Fake",1,4,1,66,4463
"1327",33,48,1,"Real",1,4,1,67,4032
"1328",33,23,1,"Fake",1,4,0,68,6661
"1329",33,46,1,"Fake",1,4,0,69,7721
"1330",33,13,1,"Fake",1,5,NA,70,3543
"1331",33,19,1,"Fake",1,5,1,71,2755
"1332",33,5,1,"Fake",1,2,0,72,3824
"1333",33,25,1,"Real",1,4,0,73,3714
"1334",33,24,1,"Real",1,2,0,74,4471
"1335",33,8,1,"Fake",1,4,NA,75,4422
"1336",33,26,1,"Fake",1,3,NA,76,8755
"1337",33,38,1,"Real",1,3,1,77,2952
"1338",33,30,1,"Fake",1,5,0,78,3367
"1339",33,49,1,"Fake",1,2,NA,79,6665
"1340",33,32,1,"Real",1,2,0,80,9684
"1341",33,16,1,"Real",1,3,NA,81,2115
"1342",33,3,1,"Real",1,4,1,82,12282
"1343",33,40,1,"Fake",1,4,1,83,3501
"1344",33,9,1,"Real",1,4,1,84,6339
"1345",33,54,1,"Real",1,5,NA,85,4773
"1346",33,1,1,"Real",1,3,NA,86,3926
"1347",33,18,1,"Fake",1,3,1,87,4531
"1348",33,17,1,"Fake",1,4,1,88,2615
"1349",33,33,1,"Fake",1,4,0,89,3785
"1350",33,41,1,"Real",1,5,NA,90,11324
"1351",34,52,1,"Fake",1,3,0,37,7352
"1352",34,49,1,"Fake",1,5,NA,38,10055
"1353",34,21,1,"Real",1,6,NA,39,6031
"1354",34,30,1,"Fake",1,2,0,40,6325
"1355",34,4,1,"Fake",1,1,NA,41,4399
"1356",34,25,1,"Real",1,6,0,42,7912
"1357",34,8,1,"Fake",1,3,NA,43,3945
"1358",34,2,1,"Fake",1,1,1,44,14078
"1359",34,23,1,"Fake",1,1,0,45,11319
"1360",34,22,1,"Real",1,3,NA,46,10873
"1361",34,48,1,"Real",1,3,1,47,4054
"1362",34,10,1,"Fake",1,6,NA,48,7408
"1363",34,40,1,"Fake",1,1,1,49,20885
"1364",34,29,1,"Real",1,2,0,50,8875
"1365",34,27,1,"Real",1,3,1,51,3595
"1366",34,36,1,"Fake",1,6,0,52,8470
"1367",34,13,1,"Fake",1,1,NA,53,1328
"1368",34,34,1,"Fake",1,6,1,54,5410
"1369",34,12,1,"Fake",1,6,NA,55,6348
"1370",34,46,1,"Fake",1,2,0,56,7556
"1371",34,53,1,"Real",1,6,1,57,6435
"1372",34,26,1,"Fake",1,1,NA,58,8736
"1373",34,54,1,"Real",1,4,NA,59,6623
"1374",34,7,1,"Real",1,3,NA,60,2237
"1375",34,16,1,"Real",1,1,NA,61,12785
"1376",34,14,1,"Fake",1,1,NA,62,8984
"1377",34,19,1,"Fake",1,3,1,63,567
"1378",34,41,1,"Real",1,3,NA,64,4073
"1379",34,42,1,"Real",1,1,0,65,4096
"1380",34,43,1,"Real",1,1,1,66,5632
"1381",34,45,1,"Real",1,2,NA,67,9857
"1382",34,50,1,"Real",1,4,0,68,6352
"1383",34,5,1,"Fake",1,1,0,69,5057
"1384",34,47,1,"Fake",1,3,1,70,4224
"1385",34,38,1,"Real",1,1,1,71,4818
"1386",34,51,1,"Fake",1,2,1,72,8892
"1387",34,37,1,"Fake",1,3,NA,73,6596
"1388",34,3,1,"Real",1,3,1,74,5355
"1389",34,31,1,"Real",1,6,0,75,9503
"1390",34,17,1,"Fake",1,6,1,76,4518
"1391",34,28,1,"Real",1,6,1,77,3715
"1392",34,44,1,"Real",1,6,0,78,6379
"1393",34,18,1,"Fake",1,5,1,79,4732
"1394",34,32,1,"Real",1,3,0,80,5783
"1395",34,33,1,"Fake",1,3,0,81,5641
"1396",34,24,1,"Real",1,6,0,82,2256
"1397",34,6,1,"Fake",1,6,0,83,7443
"1398",34,11,1,"Fake",1,4,1,84,3280
"1399",34,39,1,"Real",1,3,0,85,4561
"1400",34,9,1,"Real",1,5,1,86,5164
"1401",34,1,1,"Real",1,3,NA,87,3543
"1402",34,15,1,"Real",1,6,NA,88,3885
"1403",34,20,1,"Fake",1,4,0,89,2534
"1404",34,35,1,"Real",1,4,1,90,3678
"1405",36,11,1,"Real",1,2,1,37,6114
"1406",36,47,1,"Real",1,3,1,38,6621
"1407",36,5,1,"Real",1,1,0,39,5892
"1408",36,2,1,"Real",1,4,1,40,4810
"1409",36,37,1,"Real",1,4,NA,41,10709
"1410",36,3,1,"Fake",1,3,0,42,17001
"1411",36,52,1,"Real",1,4,0,43,10240
"1412",36,38,1,"Fake",1,2,0,44,14281
"1413",36,48,1,"Fake",1,4,0,45,7810
"1414",36,45,1,"Fake",1,4,1,46,12934
"1415",36,46,1,"Real",1,4,0,47,11248
"1416",36,51,1,"Real",1,3,1,48,7287
"1417",36,14,1,"Real",1,2,NA,49,12106
"1418",36,8,1,"Real",1,3,NA,50,10125
"1419",36,25,1,"Fake",1,2,NA,51,10578
"1420",36,6,1,"Real",1,5,0,52,10422
"1421",36,16,1,"Fake",1,3,1,53,6909
"1422",36,49,1,"Real",1,3,NA,54,12881
"1423",36,39,1,"Fake",1,5,NA,55,9875
"1424",36,27,1,"Fake",1,4,0,56,14003
"1425",36,36,1,"Real",1,3,0,57,6416
"1426",36,13,1,"Real",1,5,NA,58,9335
"1427",36,43,1,"Fake",1,2,0,59,4573
"1428",36,30,1,"Real",1,4,0,60,5657
"1429",36,7,1,"Fake",1,3,1,61,8947
"1430",36,32,1,"Fake",1,2,NA,62,8511
"1431",36,29,1,"Fake",1,2,NA,63,11735
"1432",36,10,1,"Real",1,3,NA,64,11785
"1433",36,9,1,"Fake",1,3,0,65,19034
"1434",36,12,1,"Real",1,4,NA,66,5269
"1435",36,19,1,"Real",1,4,1,67,6717
"1436",36,40,1,"Real",1,4,1,68,7376
"1437",36,26,1,"Real",1,5,NA,69,6073
"1438",36,34,1,"Real",1,4,1,70,17038
"1439",36,4,1,"Real",1,4,NA,71,6325
"1440",36,22,1,"Fake",1,3,1,72,11703
"1441",36,53,1,"Fake",1,4,0,73,9668
"1442",36,21,1,"Fake",1,4,1,74,9395
"1443",36,17,1,"Real",1,3,1,75,9208
"1444",36,33,1,"Real",1,3,0,76,6985
"1445",36,44,1,"Fake",1,4,NA,77,6249
"1446",36,1,1,"Fake",1,5,1,78,7015
"1447",36,42,1,"Fake",1,4,NA,79,3134
"1448",36,50,1,"Fake",1,4,NA,80,6950
"1449",36,23,1,"Real",1,2,0,81,11159
"1450",36,15,1,"Fake",1,3,1,82,6497
"1451",36,24,1,"Fake",1,4,NA,83,4997
"1452",36,18,1,"Real",1,1,1,84,5095
"1453",36,20,1,"Real",1,2,0,85,6686
"1454",36,54,1,"Fake",1,3,1,86,10931
"1455",36,31,1,"Fake",1,1,NA,87,12326
"1456",36,28,1,"Fake",1,4,0,88,6968
"1457",36,41,1,"Fake",1,1,1,89,12098
"1458",36,35,1,"Fake",1,4,0,90,9020
"1459",37,49,1,"Real",1,3,0,37,26225
"1460",37,11,1,"Fake",1,5,0,38,10509
"1461",37,12,1,"Real",1,2,0,39,22234
"1462",37,43,1,"Real",1,1,NA,40,5788
"1463",37,47,1,"Fake",1,1,0,41,13708
"1464",37,16,1,"Fake",1,1,NA,42,10926
"1465",37,23,1,"Real",1,4,1,43,18170
"1466",37,35,1,"Real",1,1,NA,44,13794
"1467",37,31,1,"Fake",1,5,1,45,6728
"1468",37,21,1,"Fake",1,1,NA,46,5363
"1469",37,1,1,"Fake",1,2,NA,47,9004
"1470",37,13,1,"Real",1,5,0,48,6969
"1471",37,5,1,"Real",1,2,1,49,8544
"1472",37,19,1,"Fake",1,4,0,50,12694
"1473",37,45,1,"Fake",1,4,NA,51,19097
"1474",37,42,1,"Fake",1,2,1,52,8021
"1475",37,44,1,"Fake",1,5,1,53,7721
"1476",37,48,1,"Real",1,4,NA,54,35481
"1477",37,41,1,"Fake",1,1,NA,55,12568
"1478",37,33,1,"Real",1,2,1,56,12343
"1479",37,37,1,"Real",1,2,0,57,10931
"1480",37,50,1,"Fake",1,3,1,58,65627
"1481",37,30,1,"Real",1,3,1,59,6691
"1482",37,15,1,"Fake",1,2,NA,60,21150
"1483",37,40,1,"Fake",1,3,0,61,29532
"1484",37,53,1,"Real",1,2,NA,62,10872
"1485",37,29,1,"Fake",1,2,1,63,16934
"1486",37,25,1,"Fake",1,5,1,64,5036
"1487",37,8,1,"Real",1,5,0,65,16770
"1488",37,54,1,"Fake",1,5,NA,66,3790
"1489",37,10,1,"Real",1,3,0,67,12520
"1490",37,51,1,"Fake",1,6,0,68,12370
"1491",37,2,1,"Fake",1,2,0,69,14362
"1492",37,27,1,"Real",1,5,NA,70,8017
"1493",37,3,1,"Real",1,4,NA,71,8109
"1494",37,7,1,"Fake",1,3,NA,72,9909
"1495",37,39,1,"Fake",1,1,1,73,6653
"1496",37,32,1,"Fake",1,1,1,74,7617
"1497",37,38,1,"Real",1,3,NA,75,6582
"1498",37,22,1,"Fake",1,4,NA,76,15870
"1499",37,46,1,"Real",1,5,1,77,6798
"1500",37,28,1,"Real",1,4,NA,78,12517
"1501",37,6,1,"Real",1,5,1,79,8807
"1502",37,14,1,"Real",1,2,0,80,9388
"1503",37,20,1,"Real",1,5,1,81,8152
"1504",37,34,1,"Fake",1,2,0,82,14775
"1505",37,4,1,"Real",1,2,0,83,11635
"1506",37,9,1,"Real",1,6,NA,84,10147
"1507",37,26,1,"Real",1,4,0,85,10871
"1508",37,24,1,"Fake",1,5,1,86,5239
"1509",37,17,1,"Fake",1,2,0,87,3782
"1510",37,18,1,"Fake",1,5,0,88,7058
"1511",37,52,1,"Real",1,4,1,89,6951
"1512",37,36,1,"Real",1,3,1,90,11247
"1513",38,46,1,"Real",1,3,0,37,9828
"1514",38,1,1,"Fake",1,4,1,38,4055
"1515",38,41,1,"Fake",1,4,1,39,5993
"1516",38,4,1,"Real",1,4,NA,40,81260
"1517",38,38,1,"Fake",1,2,0,41,12709
"1518",38,24,1,"Fake",1,3,NA,42,12784
"1519",38,12,1,"Real",1,3,NA,43,6072
"1520",38,44,1,"Fake",1,4,NA,44,6798
"1521",38,6,1,"Real",1,2,0,45,6215
"1522",38,54,1,"Fake",1,2,1,46,4823
"1523",38,8,1,"Real",1,4,NA,47,7570
"1524",38,39,1,"Fake",1,3,NA,48,9226
"1525",38,22,1,"Fake",1,5,1,49,6677
"1526",38,10,1,"Real",1,4,NA,50,5868
"1527",38,20,1,"Real",1,4,0,51,10930
"1528",38,33,1,"Real",1,5,0,52,4232
"1529",38,19,1,"Real",1,4,1,53,7794
"1530",38,43,1,"Fake",1,2,0,54,3561
"1531",38,26,1,"Real",1,2,NA,55,5536
"1532",38,37,1,"Real",1,4,NA,56,4821
"1533",38,7,1,"Fake",1,3,1,57,4815
"1534",38,51,1,"Real",1,6,1,58,7819
"1535",38,45,1,"Fake",1,4,1,59,5943
"1536",38,42,1,"Fake",1,3,NA,60,17460
"1537",38,49,1,"Real",1,1,NA,61,6609
"1538",38,13,1,"Real",1,5,NA,62,4953
"1539",38,5,1,"Real",1,3,0,63,7734
"1540",38,27,1,"Fake",1,4,0,64,5752
"1541",38,2,1,"Real",1,2,1,65,5228
"1542",38,18,1,"Real",1,2,1,66,7461
"1543",38,29,1,"Fake",1,4,NA,67,6219
"1544",38,3,1,"Fake",1,3,0,68,14275
"1545",38,35,1,"Fake",1,4,0,69,9509
"1546",38,28,1,"Fake",1,5,0,70,4101
"1547",38,50,1,"Fake",1,4,NA,71,5541
"1548",38,23,1,"Real",1,4,0,72,9361
"1549",38,47,1,"Real",1,4,1,73,3095
"1550",38,14,1,"Real",1,5,NA,74,5865
"1551",38,52,1,"Real",1,2,0,75,12849
"1552",38,36,1,"Real",1,2,0,76,4790
"1553",38,53,1,"Fake",1,5,0,77,9259
"1554",38,31,1,"Fake",1,4,NA,78,3956
"1555",38,40,1,"Real",1,4,1,79,4018
"1556",38,34,1,"Real",1,3,1,80,4703
"1557",38,16,1,"Fake",1,3,1,81,4789
"1558",38,17,1,"Real",1,5,1,82,2818
"1559",38,48,1,"Fake",1,4,0,83,7119
"1560",38,11,1,"Real",1,3,1,84,8025
"1561",38,25,1,"Fake",1,2,NA,85,7023
"1562",38,32,1,"Fake",1,2,NA,86,4638
"1563",38,9,1,"Fake",1,3,0,87,8690
"1564",38,15,1,"Fake",1,4,1,88,3449
"1565",38,21,1,"Fake",1,4,1,89,17501
"1566",38,30,1,"Real",1,3,0,90,9401
"1567",39,45,1,"Real",1,2,0,37,7433
"1568",39,23,1,"Real",1,5,NA,38,4478
"1569",39,6,1,"Real",1,5,NA,39,7093
"1570",39,7,1,"Real",1,2,0,40,4537
"1571",39,43,1,"Fake",1,2,1,41,5583
"1572",39,10,1,"Real",1,5,1,42,4929
"1573",39,49,1,"Real",1,2,1,43,5223
"1574",39,34,1,"Fake",1,4,NA,44,4600
"1575",39,1,1,"Real",1,4,0,45,6035
"1576",39,47,1,"Fake",1,1,NA,46,5187
"1577",39,37,1,"Real",1,3,1,47,5844
"1578",39,9,1,"Fake",1,4,1,48,4117
"1579",39,48,1,"Fake",1,4,1,49,3939
"1580",39,30,1,"Real",1,1,NA,50,4322
"1581",39,18,1,"Fake",1,1,NA,51,7097
"1582",39,21,1,"Real",1,4,0,52,4437
"1583",39,19,1,"Fake",1,2,NA,53,4055
"1584",39,50,1,"Fake",1,3,0,54,8031
"1585",39,35,1,"Fake",1,5,1,55,5564
"1586",39,44,1,"Fake",1,5,0,56,7351
"1587",39,40,1,"Fake",1,4,NA,57,6881
"1588",39,42,1,"Fake",1,5,0,58,3173
"1589",39,25,1,"Fake",1,5,0,59,4820
"1590",39,33,1,"Real",1,2,NA,60,5663
"1591",39,52,1,"Real",1,4,NA,61,3046
"1592",39,54,1,"Real",1,5,0,62,4273
"1593",39,14,1,"Real",1,3,1,63,4066
"1594",39,24,1,"Fake",1,3,0,64,7051
"1595",39,13,1,"Real",1,4,1,65,2591
"1596",39,41,1,"Real",1,2,0,66,5278
"1597",39,31,1,"Fake",1,2,0,67,4356
"1598",39,8,1,"Real",1,4,1,68,3539
"1599",39,2,1,"Fake",1,2,NA,69,3722
"1600",39,15,1,"Real",1,3,0,70,3961
"1601",39,27,1,"Fake",1,3,1,71,4888
"1602",39,3,1,"Fake",1,3,1,72,4399
"1603",39,17,1,"Fake",1,5,NA,73,4202
"1604",39,53,1,"Fake",1,3,1,74,4636
"1605",39,36,1,"Real",1,2,NA,75,6223
"1606",39,12,1,"Real",1,4,1,76,4764
"1607",39,39,1,"Fake",1,2,0,77,8441
"1608",39,22,1,"Real",1,4,0,78,6076
"1609",39,26,1,"Real",1,3,1,79,5201
"1610",39,11,1,"Fake",1,1,NA,80,4628
"1611",39,32,1,"Fake",1,3,0,81,5389
"1612",39,4,1,"Real",1,4,1,82,4055
"1613",39,46,1,"Real",1,4,NA,83,5681
"1614",39,29,1,"Fake",1,3,0,84,5502
"1615",39,5,1,"Real",1,2,NA,85,4220
"1616",39,28,1,"Fake",1,4,1,86,3672
"1617",39,38,1,"Fake",1,3,1,87,3313
"1618",39,16,1,"Real",1,2,0,88,5105
"1619",39,20,1,"Real",1,2,NA,89,3359
"1620",39,51,1,"Fake",1,5,NA,90,3247
"1621",4,10,1,"Fake",1,3,1,37,7052
"1622",4,24,1,"Real",1,4,1,38,5360
"1623",4,2,1,"Real",1,4,NA,39,6674
"1624",4,15,1,"Fake",1,3,0,40,12109
"1625",4,20,1,"Fake",1,2,NA,41,2848
"1626",4,18,1,"Real",1,2,NA,42,7011
"1627",4,48,1,"Real",1,3,0,43,6040
"1628",4,43,1,"Real",1,3,0,44,4967
"1629",4,47,1,"Real",1,3,NA,45,10747
"1630",4,9,1,"Real",1,4,0,46,8190
"1631",4,22,1,"Fake",1,3,0,47,8411
"1632",4,52,1,"Fake",1,4,NA,48,7878
"1633",4,53,1,"Real",1,3,0,49,10401
"1634",4,23,1,"Fake",1,2,NA,50,8722
"1635",4,45,1,"Fake",1,3,0,51,5848
"1636",4,37,1,"Fake",1,4,1,52,7381
"1637",4,27,1,"Real",1,1,0,53,5235
"1638",4,26,1,"Fake",1,4,1,54,16995
"1639",4,51,1,"Real",1,3,NA,55,7298
"1640",4,49,1,"Fake",1,3,1,56,11117
"1641",4,41,1,"Fake",1,2,0,57,6657
"1642",4,11,1,"Real",1,3,NA,58,5949
"1643",4,46,1,"Fake",1,2,NA,59,7816
"1644",4,40,1,"Real",1,3,NA,60,7245
"1645",4,36,1,"Fake",1,3,NA,61,6425
"1646",4,19,1,"Real",1,3,NA,62,5961
"1647",4,7,1,"Fake",1,2,0,63,4763
"1648",4,38,1,"Real",1,3,0,64,7207
"1649",4,1,1,"Fake",1,2,0,65,5501
"1650",4,39,1,"Real",1,2,1,66,11185
"1651",4,13,1,"Fake",1,4,1,67,5769
"1652",4,33,1,"Fake",1,3,NA,68,6419
"1653",4,54,1,"Fake",1,4,0,69,7739
"1654",4,8,1,"Fake",1,3,1,70,17655
"1655",4,16,1,"Fake",1,2,0,71,10370
"1656",4,32,1,"Real",1,2,1,72,7396
"1657",4,21,1,"Fake",1,2,0,73,6490
"1658",4,31,1,"Real",1,1,1,74,6847
"1659",4,50,1,"Real",1,2,1,75,7165
"1660",4,29,1,"Real",1,3,1,76,3061
"1661",4,6,1,"Fake",1,3,NA,77,6327
"1662",4,34,1,"Real",1,3,NA,78,12626
"1663",4,44,1,"Real",1,2,1,79,4743
"1664",4,14,1,"Fake",1,4,1,80,5099
"1665",4,35,1,"Real",1,4,0,81,11720
"1666",4,42,1,"Real",1,4,1,82,3916
"1667",4,17,1,"Real",1,2,NA,83,3707
"1668",4,25,1,"Real",1,3,1,84,6531
"1669",4,3,1,"Real",1,3,0,85,7900
"1670",4,4,1,"Fake",1,3,1,86,5735
"1671",4,5,1,"Fake",1,2,NA,87,10969
"1672",4,30,1,"Fake",1,3,NA,88,5387
"1673",4,28,1,"Real",1,3,0,89,12165
"1674",4,12,1,"Fake",1,2,1,90,8358
"1675",41,51,1,"Real",1,5,1,37,6265
"1676",41,3,1,"Fake",1,3,0,38,8086
"1677",41,52,1,"Real",1,2,0,39,4409
"1678",41,6,1,"Real",1,5,0,40,9971
"1679",41,33,1,"Real",1,3,0,41,8799
"1680",41,8,1,"Real",1,3,NA,42,9676
"1681",41,22,1,"Fake",1,5,1,43,7957
"1682",41,5,1,"Real",1,4,0,44,6756
"1683",41,17,1,"Real",1,2,1,45,3662
"1684",41,48,1,"Fake",1,2,0,46,6032
"1685",41,27,1,"Fake",1,6,0,47,6350
"1686",41,40,1,"Real",1,3,1,48,5850
"1687",41,47,1,"Real",1,4,1,49,5840
"1688",41,37,1,"Real",1,5,NA,50,9551
"1689",41,19,1,"Real",1,4,1,51,4932
"1690",41,30,1,"Real",1,5,0,52,9761
"1691",41,34,1,"Real",1,6,1,53,4599
"1692",41,44,1,"Fake",1,2,NA,54,4081
"1693",41,39,1,"Fake",1,2,NA,55,6737
"1694",41,32,1,"Fake",1,2,NA,56,1486
"1695",41,29,1,"Fake",1,4,NA,57,12289
"1696",41,9,1,"Fake",1,1,0,58,6341
"1697",41,54,1,"Fake",1,2,1,59,4137
"1698",41,21,1,"Fake",1,3,1,60,7157
"1699",41,7,1,"Fake",1,1,1,61,5320
"1700",41,45,1,"Fake",1,2,1,62,5557
"1701",41,18,1,"Real",1,5,1,63,3646
"1702",41,20,1,"Real",1,4,0,64,8360
"1703",41,31,1,"Fake",1,2,NA,65,7127
"1704",41,35,1,"Fake",1,3,0,66,20385
"1705",41,49,1,"Real",1,3,NA,67,8751
"1706",41,53,1,"Fake",1,2,0,68,10349
"1707",41,16,1,"Fake",1,3,1,69,8058
"1708",41,41,1,"Fake",1,4,1,70,15021
"1709",41,15,1,"Fake",1,4,1,71,10424
"1710",41,26,1,"Real",1,4,NA,72,10138
"1711",41,38,1,"Fake",1,2,0,73,5471
"1712",41,23,1,"Real",1,2,0,74,8462
"1713",41,12,1,"Real",1,5,NA,75,11880
"1714",41,11,1,"Real",1,1,1,76,11438
"1715",41,10,1,"Real",1,3,NA,77,14436
"1716",41,43,1,"Fake",1,5,0,78,3834
"1717",41,1,1,"Fake",1,5,1,79,5908
"1718",41,36,1,"Real",1,5,0,80,6105
"1719",41,2,1,"Real",1,5,1,81,5132
"1720",41,14,1,"Real",1,5,NA,82,10960
"1721",41,24,1,"Fake",1,3,NA,83,11156
"1722",41,46,1,"Real",1,5,0,84,13039
"1723",41,25,1,"Fake",1,2,NA,85,5909
"1724",41,28,1,"Fake",1,3,0,86,11049
"1725",41,42,1,"Fake",1,3,NA,87,7385
"1726",41,13,1,"Real",1,4,NA,88,8104
"1727",41,50,1,"Fake",1,2,NA,89,7610
"1728",41,4,1,"Real",1,2,NA,90,6368
"1729",42,42,1,"Real",1,6,1,37,13334
"1730",42,6,1,"Fake",1,3,NA,38,12549
"1731",42,14,1,"Fake",1,3,1,39,4564
"1732",42,51,1,"Real",1,6,NA,40,5982
"1733",42,17,1,"Real",1,4,NA,41,4156
"1734",42,18,1,"Real",1,6,NA,42,4513
"1735",42,45,1,"Fake",1,4,0,43,11622
"1736",42,11,1,"Real",1,5,NA,44,9527
"1737",42,23,1,"Fake",1,3,NA,45,7546
"1738",42,4,1,"Fake",1,5,1,46,6601
"1739",42,5,1,"Fake",1,2,NA,47,6135
"1740",42,3,1,"Real",1,5,0,48,7736
"1741",42,43,1,"Real",1,5,0,49,4158
"1742",42,19,1,"Real",1,4,NA,50,6005
"1743",42,47,1,"Real",1,5,NA,51,4004
"1744",42,13,1,"Fake",1,3,1,52,4279
"1745",42,16,1,"Fake",1,2,0,53,5647
"1746",42,2,1,"Real",1,5,NA,54,4927
"1747",42,39,1,"Real",1,5,1,55,7852
"1748",42,37,1,"Fake",1,5,1,56,11000
"1749",42,7,1,"Fake",1,4,0,57,10652
"1750",42,33,1,"Fake",1,3,NA,58,8385
"1751",42,36,1,"Fake",1,2,NA,59,4526
"1752",42,31,1,"Real",1,6,1,60,6195
"1753",42,15,1,"Fake",1,3,0,61,9941
"1754",42,54,1,"Fake",1,3,0,62,9026
"1755",42,40,1,"Real",1,4,NA,63,7547
"1756",42,21,1,"Fake",1,2,0,64,4964
"1757",42,52,1,"Fake",1,3,NA,65,5798
"1758",42,35,1,"Real",1,5,0,66,5648
"1759",42,48,1,"Real",1,5,0,67,12439
"1760",42,30,1,"Fake",1,3,NA,68,4716
"1761",42,26,1,"Fake",1,2,1,69,10010
"1762",42,12,1,"Fake",1,2,1,70,5828
"1763",42,1,1,"Fake",1,2,0,71,3996
"1764",42,28,1,"Real",1,5,0,72,4241
"1765",42,29,1,"Real",1,5,1,73,6339
"1766",42,25,1,"Real",1,4,1,74,8446
"1767",42,27,1,"Real",1,5,0,75,5369
"1768",42,53,1,"Real",1,5,0,76,5618
"1769",42,22,1,"Fake",1,4,0,77,9019
"1770",42,44,1,"Real",1,5,1,78,3735
"1771",42,50,1,"Real",1,5,1,79,4101
"1772",42,41,1,"Fake",1,3,0,80,10990
"1773",42,10,1,"Fake",1,3,1,81,4934
"1774",42,49,1,"Fake",1,3,1,82,4266
"1775",42,46,1,"Fake",1,2,NA,83,8411
"1776",42,24,1,"Real",1,5,1,84,2992
"1777",42,8,1,"Fake",1,3,1,85,4780
"1778",42,9,1,"Real",1,5,0,86,5025
"1779",42,32,1,"Real",1,4,1,87,5354
"1780",42,34,1,"Real",1,6,NA,88,6838
"1781",42,20,1,"Fake",1,2,NA,89,13562
"1782",42,38,1,"Real",1,5,0,90,7275
"1783",43,34,1,"Fake",1,3,1,37,6565
"1784",43,42,1,"Real",1,3,0,38,5079
"1785",43,21,1,"Real",1,2,NA,39,3118
"1786",43,26,1,"Fake",1,4,NA,40,3352
"1787",43,4,1,"Fake",1,2,NA,41,13383
"1788",43,31,1,"Real",1,3,0,42,6102
"1789",43,52,1,"Fake",1,3,0,43,4315
"1790",43,7,1,"Real",1,3,NA,44,4850
"1791",43,1,1,"Real",1,3,NA,45,9532
"1792",43,23,1,"Fake",1,4,0,46,5291
"1793",43,22,1,"Real",1,2,NA,47,5642
"1794",43,9,1,"Real",1,4,1,48,4051
"1795",43,6,1,"Fake",1,3,0,49,8309
"1796",43,39,1,"Real",1,4,0,50,4495
"1797",43,15,1,"Real",1,2,NA,51,3599
"1798",43,20,1,"Fake",1,2,0,52,6349
"1799",43,36,1,"Fake",1,5,0,53,3152
"1800",43,27,1,"Real",1,4,1,54,3881
"1801",43,11,1,"Fake",1,1,1,55,2914
"1802",43,49,1,"Fake",1,2,NA,56,4836
"1803",43,47,1,"Fake",1,4,1,57,2741
"1804",43,40,1,"Fake",1,3,1,58,2471
"1805",43,37,1,"Fake",1,4,NA,59,4163
"1806",43,18,1,"Fake",1,6,1,60,2592
"1807",43,3,1,"Real",1,4,1,61,3952
"1808",43,5,1,"Fake",1,2,0,62,3806
"1809",43,32,1,"Real",1,2,0,63,5491
"1810",43,51,1,"Fake",1,5,1,64,4746
"1811",43,43,1,"Real",1,2,1,65,2456
"1812",43,44,1,"Real",1,2,0,66,4845
"1813",43,46,1,"Fake",1,4,0,67,4815
"1814",43,24,1,"Real",1,4,0,68,5201
"1815",43,16,1,"Real",1,5,NA,69,4564
"1816",43,35,1,"Real",1,4,1,70,4488
"1817",43,14,1,"Fake",1,2,NA,71,6689
"1818",43,28,1,"Real",1,5,1,72,2766
"1819",43,17,1,"Fake",1,4,1,73,7077
"1820",43,33,1,"Fake",1,4,0,74,3882
"1821",43,29,1,"Real",1,3,0,75,4852
"1822",43,50,1,"Real",1,4,0,76,4877
"1823",43,25,1,"Real",1,4,0,77,6461
"1824",43,45,1,"Real",1,2,NA,78,5628
"1825",43,54,1,"Real",1,2,NA,79,4709
"1826",43,41,1,"Real",1,1,NA,80,5020
"1827",43,10,1,"Fake",1,3,NA,81,6526
"1828",43,53,1,"Real",1,5,1,82,4410
"1829",43,13,1,"Fake",1,4,NA,83,3510
"1830",43,30,1,"Fake",1,4,0,84,3927
"1831",43,38,1,"Real",1,3,1,85,3879
"1832",43,2,1,"Fake",1,2,1,86,4768
"1833",43,8,1,"Fake",1,3,NA,87,4549
"1834",43,19,1,"Fake",1,3,1,88,2291
"1835",43,12,1,"Fake",1,3,NA,89,4006
"1836",43,48,1,"Real",1,4,1,90,2555
"1837",44,7,1,"Real",1,3,0,37,6299
"1838",44,23,1,"Real",1,2,NA,38,6710
"1839",44,48,1,"Fake",1,4,1,39,5896
"1840",44,5,1,"Real",1,1,NA,40,3709
"1841",44,29,1,"Fake",1,4,0,41,8834
"1842",44,17,1,"Fake",1,5,NA,42,3860
"1843",44,14,1,"Real",1,2,1,43,2958
"1844",44,16,1,"Real",1,3,0,44,10147
"1845",44,19,1,"Fake",1,2,NA,45,2239
"1846",44,49,1,"Real",1,3,1,46,4322
"1847",44,13,1,"Real",1,4,1,47,2933
"1848",44,47,1,"Fake",1,3,NA,48,3298
"1849",44,32,1,"Fake",1,2,0,49,4688
"1850",44,4,1,"Real",1,4,1,50,5429
"1851",44,28,1,"Fake",1,4,1,51,4812
"1852",44,53,1,"Fake",1,4,1,52,6366
"1853",44,34,1,"Fake",1,2,NA,53,3670
"1854",44,26,1,"Real",1,3,1,54,4492
"1855",44,8,1,"Real",1,4,1,55,2299
"1856",44,43,1,"Fake",1,5,1,56,2801
"1857",44,39,1,"Fake",1,2,0,57,2956
"1858",44,24,1,"Fake",1,5,0,58,7392
"1859",44,37,1,"Real",1,3,1,59,4439
"1860",44,46,1,"Real",1,4,NA,60,3974
"1861",44,52,1,"Real",1,2,NA,61,2929
"1862",44,35,1,"Fake",1,4,1,62,3246
"1863",44,27,1,"Fake",1,4,1,63,3487
"1864",44,18,1,"Fake",1,5,NA,64,3592
"1865",44,40,1,"Fake",1,4,NA,65,4282
"1866",44,10,1,"Real",1,2,1,66,3473
"1867",44,9,1,"Fake",1,4,1,67,2016
"1868",44,45,1,"Real",1,3,0,68,6139
"1869",44,1,1,"Real",1,4,0,69,3855
"1870",44,21,1,"Real",1,4,0,70,4205
"1871",44,31,1,"Fake",1,3,0,71,7408
"1872",44,20,1,"Real",1,2,NA,72,3102
"1873",44,38,1,"Fake",1,4,1,73,3086
"1874",44,22,1,"Real",1,2,0,74,11628
"1875",44,44,1,"Fake",1,3,0,75,4074
"1876",44,54,1,"Real",1,3,0,76,2922
"1877",44,33,1,"Real",1,2,NA,77,3097
"1878",44,2,1,"Fake",1,1,NA,78,4880
"1879",44,51,1,"Fake",1,1,NA,79,7349
"1880",44,41,1,"Real",1,4,0,80,6733
"1881",44,11,1,"Fake",1,4,NA,81,3423
"1882",44,50,1,"Fake",1,2,0,82,4934
"1883",44,36,1,"Real",1,3,NA,83,3379
"1884",44,30,1,"Real",1,3,NA,84,3736
"1885",44,12,1,"Real",1,2,1,85,4309
"1886",44,25,1,"Fake",1,3,0,86,5699
"1887",44,6,1,"Real",1,2,NA,87,3518
"1888",44,3,1,"Fake",1,1,1,88,3589
"1889",44,15,1,"Real",1,1,0,89,3520
"1890",44,42,1,"Fake",1,4,0,90,2535
"1891",45,28,1,"Fake",1,4,NA,37,9891
"1892",45,51,1,"Real",1,1,0,38,20546
"1893",45,39,1,"Real",1,4,NA,39,6895
"1894",45,19,1,"Real",1,5,0,40,3443
"1895",45,16,1,"Real",1,2,1,41,3768
"1896",45,31,1,"Real",1,2,NA,42,4982
"1897",45,35,1,"Fake",1,1,NA,43,9058
"1898",45,46,1,"Fake",1,4,1,44,5851
"1899",45,15,1,"Real",1,6,1,45,3427
"1900",45,48,1,"Fake",1,3,NA,46,7727
"1901",45,2,1,"Real",1,4,0,47,5050
"1902",45,6,1,"Fake",1,5,1,48,6681
"1903",45,21,1,"Real",1,6,1,49,3792
"1904",45,30,1,"Fake",1,2,1,50,3757
"1905",45,47,1,"Real",1,2,0,51,4804
"1906",45,44,1,"Real",1,4,NA,52,6670
"1907",45,33,1,"Fake",1,1,1,53,3700
"1908",45,18,1,"Real",1,3,0,54,5470
"1909",45,53,1,"Fake",1,1,NA,55,4973
"1910",45,54,1,"Real",1,6,1,56,3464
"1911",45,37,1,"Fake",1,4,0,57,6939
"1912",45,17,1,"Real",1,2,0,58,4165
"1913",45,5,1,"Fake",1,1,1,59,2714
"1914",45,11,1,"Real",1,2,0,60,5740
"1915",45,32,1,"Real",1,1,NA,61,8882
"1916",45,29,1,"Real",1,1,NA,62,4444
"1917",45,1,1,"Real",1,4,1,63,4621
"1918",45,50,1,"Real",1,4,NA,64,5784
"1919",45,38,1,"Fake",1,1,NA,65,6083
"1920",45,45,1,"Real",1,1,1,66,6648
"1921",45,42,1,"Real",1,1,NA,67,3776
"1922",45,27,1,"Fake",1,6,NA,68,6503
"1923",45,14,1,"Fake",1,2,0,69,5907
"1924",45,41,1,"Real",1,3,1,70,7920
"1925",45,40,1,"Real",1,4,0,71,5818
"1926",45,36,1,"Fake",1,3,1,72,5283
"1927",45,13,1,"Fake",1,4,0,73,5099
"1928",45,24,1,"Real",1,4,NA,74,2801
"1929",45,23,1,"Fake",1,5,1,75,5712
"1930",45,3,1,"Fake",1,4,NA,76,8636
"1931",45,52,1,"Fake",1,4,1,77,3400
"1932",45,4,1,"Fake",1,3,0,78,7878
"1933",45,7,1,"Real",1,5,1,79,6338
"1934",45,34,1,"Real",1,6,0,80,8741
"1935",45,22,1,"Real",1,6,1,81,35973
"1936",45,49,1,"Fake",1,4,0,82,7361
"1937",45,9,1,"Fake",1,2,NA,83,4682
"1938",45,10,1,"Fake",1,3,0,84,5938
"1939",45,25,1,"Real",1,1,NA,85,5782
"1940",45,43,1,"Fake",1,1,NA,86,5930
"1941",45,12,1,"Fake",1,1,0,87,7879
"1942",45,20,1,"Fake",1,4,1,88,3938
"1943",45,8,1,"Fake",1,3,0,89,9329
"1944",45,26,1,"Fake",1,5,0,90,6793
"1945",46,35,1,"Fake",1,5,1,37,7011
"1946",46,15,1,"Real",1,4,0,38,12945
"1947",46,33,1,"Real",1,3,NA,39,6274
"1948",46,28,1,"Fake",1,4,1,40,5815
"1949",46,16,1,"Real",1,4,0,41,10078
"1950",46,1,1,"Real",1,6,0,42,6844
"1951",46,26,1,"Real",1,4,1,43,6906
"1952",46,3,1,"Fake",1,5,1,44,6397
"1953",46,48,1,"Fake",1,3,1,45,3668
"1954",46,13,1,"Real",1,6,1,46,2813
"1955",46,17,1,"Fake",1,4,NA,47,2624
"1956",46,14,1,"Real",1,2,1,48,4285
"1957",46,24,1,"Fake",1,2,0,49,5802
"1958",46,9,1,"Fake",1,3,1,50,4964
"1959",46,30,1,"Real",1,5,NA,51,5079
"1960",46,23,1,"Real",1,2,NA,52,5165
"1961",46,54,1,"Real",1,4,0,53,5943
"1962",46,21,1,"Real",1,2,0,54,4737
"1963",46,45,1,"Real",1,6,0,55,5846
"1964",46,2,1,"Fake",1,1,NA,56,3260
"1965",46,8,1,"Real",1,4,1,57,4260
"1966",46,47,1,"Fake",1,3,NA,58,4797
"1967",46,53,1,"Fake",1,4,1,59,4526
"1968",46,37,1,"Real",1,5,1,60,3811
"1969",46,4,1,"Real",1,2,1,61,4509
"1970",46,50,1,"Fake",1,1,0,62,9019
"1971",46,44,1,"Fake",1,3,0,63,5534
"1972",46,27,1,"Fake",1,3,1,64,5608
"1973",46,6,1,"Real",1,4,NA,65,9601
"1974",46,34,1,"Fake",1,3,NA,66,7700
"1975",46,42,1,"Fake",1,2,0,67,4766
"1976",46,11,1,"Fake",1,2,NA,68,4386
"1977",46,12,1,"Real",1,5,1,69,4964
"1978",46,20,1,"Real",1,4,NA,70,2535
"1979",46,10,1,"Real",1,1,1,71,7598
"1980",46,31,1,"Fake",1,3,0,72,5141
"1981",46,29,1,"Fake",1,2,0,73,9793
"1982",46,5,1,"Real",1,1,NA,74,3805
"1983",46,25,1,"Fake",1,2,0,75,6557
"1984",46,49,1,"Real",1,1,1,76,3326
"1985",46,38,1,"Fake",1,2,1,77,5261
"1986",46,32,1,"Fake",1,1,0,78,6292
"1987",46,41,1,"Real",1,2,0,79,8000
"1988",46,36,1,"Real",1,4,NA,80,3596
"1989",46,19,1,"Fake",1,2,NA,81,6271
"1990",46,22,1,"Real",1,4,0,82,12093
"1991",46,51,1,"Fake",1,3,NA,83,6408
"1992",46,18,1,"Fake",1,3,NA,84,7192
"1993",46,46,1,"Real",1,4,NA,85,7110
"1994",46,43,1,"Fake",1,3,1,86,7111
"1995",46,40,1,"Fake",1,3,NA,87,7842
"1996",46,39,1,"Fake",1,2,0,88,5717
"1997",46,52,1,"Real",1,3,NA,89,5337
"1998",46,7,1,"Real",1,2,0,90,4597
"1999",47,47,1,"Real",1,2,1,37,8025
"2000",47,52,1,"Real",1,4,0,38,7919
"2001",47,12,1,"Real",1,3,NA,39,7640
"2002",47,13,1,"Real",1,3,NA,40,6557
"2003",47,19,1,"Real",1,3,1,41,5317
"2004",47,36,1,"Real",1,3,0,42,7715
"2005",47,48,1,"Fake",1,4,0,43,6612
"2006",47,33,1,"Real",1,3,0,44,5275
"2007",47,29,1,"Fake",1,3,NA,45,6114
"2008",47,3,1,"Fake",1,4,0,46,9285
"2009",47,22,1,"Fake",1,4,1,47,5750
"2010",47,31,1,"Fake",1,4,NA,48,6241
"2011",47,16,1,"Fake",1,5,1,49,4687
"2012",47,20,1,"Real",1,3,0,50,5807
"2013",47,14,1,"Real",1,3,NA,51,5959
"2014",47,45,1,"Fake",1,4,1,52,3017
"2015",47,49,1,"Real",1,4,NA,53,7396
"2016",47,18,1,"Real",1,4,1,54,3890
"2017",47,9,1,"Fake",1,3,0,55,5330
"2018",47,51,1,"Real",1,4,1,56,7255
"2019",47,37,1,"Real",1,4,NA,57,10002
"2020",47,32,1,"Fake",1,2,NA,58,4654
"2021",47,11,1,"Real",1,3,1,59,3422
"2022",47,7,1,"Fake",1,4,1,60,3200
"2023",47,10,1,"Real",1,3,NA,61,3973
"2024",47,27,1,"Fake",1,3,0,62,6144
"2025",47,21,1,"Fake",1,4,1,63,3595
"2026",47,43,1,"Fake",1,3,0,64,4623
"2027",47,26,1,"Real",1,3,NA,65,4903
"2028",47,28,1,"Fake",1,3,0,66,610
"2029",47,23,1,"Real",1,4,0,67,6584
"2030",47,8,1,"Real",1,3,NA,68,4575
"2031",47,5,1,"Real",1,2,0,69,6299
"2032",47,54,1,"Fake",1,3,1,70,5862
"2033",47,34,1,"Real",1,4,1,71,4620
"2034",47,4,1,"Real",1,4,NA,72,3478
"2035",47,1,1,"Fake",1,3,1,73,3912
"2036",47,15,1,"Fake",1,4,1,74,4094
"2037",47,17,1,"Real",1,5,1,75,2741
"2038",47,40,1,"Real",1,4,1,76,3108
"2039",47,30,1,"Real",1,4,0,77,4325
"2040",47,6,1,"Real",1,4,0,78,8427
"2041",47,41,1,"Fake",1,4,1,79,4726
"2042",47,44,1,"Fake",1,4,NA,80,4714
"2043",47,46,1,"Real",1,4,0,81,11416
"2044",47,35,1,"Fake",1,4,0,82,5424
"2045",47,50,1,"Fake",1,3,NA,83,3233
"2046",47,25,1,"Fake",1,4,NA,84,4564
"2047",47,42,1,"Fake",1,4,NA,85,1816
"2048",47,39,1,"Fake",1,4,NA,86,3382
"2049",47,24,1,"Fake",1,4,NA,87,3665
"2050",47,2,1,"Real",1,4,1,88,3451
"2051",47,53,1,"Fake",1,4,0,89,5468
"2052",47,38,1,"Fake",1,4,0,90,10682
"2053",48,16,1,"Real",1,4,NA,37,6578
"2054",48,26,1,"Fake",1,4,NA,38,5498
"2055",48,17,1,"Fake",1,3,1,39,4704
"2056",48,12,1,"Fake",1,3,NA,40,7790
"2057",48,37,1,"Fake",1,5,NA,41,6892
"2058",48,30,1,"Fake",1,3,0,42,8431
"2059",48,19,1,"Fake",1,4,1,43,7659
"2060",48,44,1,"Real",1,4,0,44,3734
"2061",48,50,1,"Real",1,3,0,45,5540
"2062",48,54,1,"Real",1,2,NA,46,3792
"2063",48,2,1,"Fake",1,4,1,47,3948
"2064",48,18,1,"Fake",1,3,1,48,2640
"2065",48,47,1,"Fake",1,3,1,49,3852
"2066",48,29,1,"Real",1,3,0,50,8205
"2067",48,5,1,"Fake",1,2,0,51,5235
"2068",48,10,1,"Fake",1,3,NA,52,6379
"2069",48,20,1,"Fake",1,1,0,53,3755
"2070",48,38,1,"Real",1,3,1,54,5783
"2071",48,14,1,"Fake",1,2,NA,55,3801
"2072",48,31,1,"Real",1,2,0,56,3021
"2073",48,40,1,"Fake",1,2,1,57,8257
"2074",48,22,1,"Real",1,3,NA,58,8795
"2075",48,52,1,"Fake",1,4,0,59,3192
"2076",48,34,1,"Fake",1,3,1,60,3028
"2077",48,27,1,"Real",1,4,1,61,6376
"2078",48,24,1,"Real",1,3,0,62,4240
"2079",48,13,1,"Fake",1,4,NA,63,2403
"2080",48,32,1,"Real",1,2,0,64,4016
"2081",48,9,1,"Real",1,3,1,65,3931
"2082",48,39,1,"Real",1,2,0,66,7706
"2083",48,21,1,"Real",1,3,NA,67,4291
"2084",48,45,1,"Real",1,3,NA,68,4003
"2085",48,33,1,"Fake",1,3,0,69,3885
"2086",48,53,1,"Real",1,3,1,70,3437
"2087",48,42,1,"Real",1,2,0,71,3760
"2088",48,28,1,"Real",1,3,1,72,3013
"2089",48,8,1,"Fake",1,4,NA,73,3401
"2090",48,15,1,"Real",1,4,NA,74,3797
"2091",48,11,1,"Fake",1,3,1,75,2073
"2092",48,46,1,"Fake",1,2,0,76,3930
"2093",48,36,1,"Fake",1,3,0,77,2887
"2094",48,23,1,"Fake",1,3,0,78,4745
"2095",48,41,1,"Real",1,2,NA,79,4453
"2096",48,3,1,"Real",1,3,1,80,4357
"2097",48,7,1,"Real",1,3,NA,81,4497
"2098",48,25,1,"Real",1,2,0,82,5840
"2099",48,6,1,"Fake",1,2,0,83,2959
"2100",48,51,1,"Fake",1,3,1,84,3733
"2101",48,1,1,"Real",1,3,NA,85,4229
"2102",48,4,1,"Fake",1,3,NA,86,3102
"2103",48,48,1,"Real",1,4,1,87,2319
"2104",48,43,1,"Real",1,3,1,88,2911
"2105",48,49,1,"Fake",1,2,NA,89,4143
"2106",48,35,1,"Real",1,3,1,90,3229
"2107",49,27,1,"Real",1,5,1,37,14164
"2108",49,42,1,"Real",1,5,0,38,11555
"2109",49,23,1,"Fake",1,2,0,39,19109
"2110",49,18,1,"Fake",1,3,1,40,16381
"2111",49,10,1,"Fake",1,4,NA,41,12271
"2112",49,35,1,"Real",1,6,1,42,8234
"2113",49,47,1,"Fake",1,2,1,43,15117
"2114",49,9,1,"Real",1,5,1,44,5396
"2115",49,29,1,"Real",1,4,0,45,11500
"2116",49,24,1,"Real",1,4,0,46,6881
"2117",49,1,1,"Real",1,3,NA,47,9708
"2118",49,43,1,"Real",1,6,1,48,4459
"2119",49,49,1,"Fake",1,2,NA,49,11003
"2120",49,2,1,"Fake",1,4,1,50,7012
"2121",49,8,1,"Fake",1,5,NA,51,7785
"2122",49,44,1,"Real",1,3,0,52,7897
"2123",49,28,1,"Real",1,6,1,53,10378
"2124",49,51,1,"Fake",1,5,1,54,8084
"2125",49,31,1,"Real",1,5,0,55,10248
"2126",49,37,1,"Fake",1,2,NA,56,9192
"2127",49,16,1,"Real",1,6,NA,57,5501
"2128",49,38,1,"Real",1,5,1,58,5417
"2129",49,6,1,"Fake",1,3,0,59,9338
"2130",49,13,1,"Fake",1,5,NA,60,6943
"2131",49,48,1,"Real",1,6,1,61,7193
"2132",49,34,1,"Fake",1,5,1,62,7519
"2133",49,53,1,"Real",1,6,1,63,8553
"2134",49,45,1,"Real",1,6,NA,64,9063
"2135",49,19,1,"Fake",1,5,1,65,6512
"2136",49,11,1,"Fake",1,5,1,66,6579
"2137",49,40,1,"Fake",1,5,1,67,8571
"2138",49,54,1,"Real",1,4,NA,68,10689
"2139",49,52,1,"Fake",1,4,0,69,9288
"2140",49,14,1,"Fake",1,4,NA,70,7952
"2141",49,36,1,"Fake",1,2,0,71,6087
"2142",49,21,1,"Real",1,3,NA,72,9244
"2143",49,50,1,"Real",1,4,0,73,8749
"2144",49,3,1,"Real",1,4,1,74,8755
"2145",49,17,1,"Fake",1,4,1,75,5314
"2146",49,26,1,"Fake",1,5,NA,76,11726
"2147",49,12,1,"Fake",1,2,NA,77,8657
"2148",49,7,1,"Real",1,4,NA,78,7539
"2149",49,30,1,"Fake",1,4,0,79,12659
"2150",49,41,1,"Real",1,5,NA,80,9225
"2151",49,33,1,"Fake",1,3,0,81,6034
"2152",49,32,1,"Real",1,3,0,82,10816
"2153",49,20,1,"Fake",1,4,0,83,9794
"2154",49,46,1,"Fake",1,5,0,84,9644
"2155",49,22,1,"Real",1,5,NA,85,12438
"2156",49,4,1,"Fake",1,5,NA,86,10083
"2157",49,25,1,"Real",1,5,0,87,12658
"2158",49,15,1,"Real",1,5,NA,88,8136
"2159",49,5,1,"Fake",1,1,0,89,8495
"2160",49,39,1,"Real",1,1,0,90,22319
"2161",5,36,1,"Fake",1,4,NA,37,12354
"2162",5,19,1,"Real",1,4,NA,38,8018
"2163",5,11,1,"Real",1,2,NA,39,6626
"2164",5,17,1,"Real",1,1,NA,40,5824
"2165",5,14,1,"Fake",1,2,1,41,4872
"2166",5,20,1,"Fake",1,5,NA,42,5709
"2167",5,54,1,"Fake",1,4,0,43,7624
"2168",5,1,1,"Fake",1,3,0,44,5836
"2169",5,40,1,"Real",1,2,NA,45,10672
"2170",5,31,1,"Real",1,4,1,46,6341
"2171",5,47,1,"Real",1,1,NA,47,3766
"2172",5,52,1,"Fake",1,2,NA,48,5184
"2173",5,44,1,"Real",1,3,1,49,9905
"2174",5,30,1,"Fake",1,2,NA,50,10999
"2175",5,3,1,"Real",1,2,0,51,18199
"2176",5,23,1,"Fake",1,2,NA,52,11533
"2177",5,49,1,"Fake",1,2,1,53,8901
"2178",5,24,1,"Real",1,4,1,54,3445
"2179",5,12,1,"Fake",1,5,1,55,5766
"2180",5,22,1,"Fake",1,4,0,56,10087
"2181",5,9,1,"Real",1,3,0,57,7194
"2182",5,32,1,"Real",1,4,1,58,4409
"2183",5,50,1,"Real",1,4,1,59,3300
"2184",5,8,1,"Fake",1,5,1,60,2978
"2185",5,42,1,"Real",1,3,1,61,3469
"2186",5,45,1,"Fake",1,2,0,62,8580
"2187",5,5,1,"Fake",1,3,NA,63,3112
"2188",5,33,1,"Fake",1,3,NA,64,6549
"2189",5,21,1,"Fake",1,5,0,65,6031
"2190",5,28,1,"Real",1,4,0,66,6023
"2191",5,27,1,"Real",1,5,0,67,6820
"2192",5,25,1,"Real",1,3,1,68,4347
"2193",5,46,1,"Fake",1,4,NA,69,3614
"2194",5,48,1,"Real",1,4,0,70,7600
"2195",5,18,1,"Real",1,3,NA,71,5397
"2196",5,4,1,"Fake",1,5,1,72,3951
"2197",5,2,1,"Real",1,3,NA,73,7738
"2198",5,43,1,"Real",1,1,0,74,4489
"2199",5,6,1,"Fake",1,1,NA,75,3056
"2200",5,10,1,"Fake",1,5,1,76,4193
"2201",5,15,1,"Fake",1,3,0,77,10122
"2202",5,7,1,"Fake",1,4,0,78,6337
"2203",5,37,1,"Fake",1,2,1,79,7096
"2204",5,41,1,"Fake",1,3,0,80,12392
"2205",5,16,1,"Fake",1,2,0,81,7015
"2206",5,29,1,"Real",1,3,1,82,3539
"2207",5,26,1,"Fake",1,3,1,83,3968
"2208",5,34,1,"Real",1,4,NA,84,3394
"2209",5,38,1,"Real",1,4,0,85,8020
"2210",5,39,1,"Real",1,3,1,86,5143
"2211",5,35,1,"Real",1,3,0,87,8594
"2212",5,13,1,"Fake",1,2,1,88,10182
"2213",5,51,1,"Real",1,2,NA,89,7544
"2214",5,53,1,"Real",1,4,0,90,16287
"2215",50,43,1,"Fake",1,3,0,37,5580
"2216",50,51,1,"Real",1,1,1,38,9018
"2217",50,39,1,"Fake",1,2,NA,39,6109
"2218",50,32,1,"Fake",1,3,NA,40,7232
"2219",50,41,1,"Fake",1,5,1,41,4138
"2220",50,46,1,"Real",1,1,0,42,13246
"2221",50,16,1,"Fake",1,3,1,43,3089
"2222",50,19,1,"Real",1,2,1,44,2953
"2223",50,17,1,"Real",1,4,1,45,2446
"2224",50,5,1,"Real",1,5,0,46,3743
"2225",50,38,1,"Fake",1,4,0,47,7051
"2226",50,22,1,"Fake",1,4,1,48,5165
"2227",50,34,1,"Real",1,4,1,49,3550
"2228",50,36,1,"Real",1,3,0,50,4712
"2229",50,6,1,"Real",1,4,0,51,5526
"2230",50,30,1,"Real",1,4,0,52,3535
"2231",50,49,1,"Real",1,4,NA,53,441
"2232",50,35,1,"Fake",1,4,0,54,5542
"2233",50,27,1,"Fake",1,3,0,55,10656
"2234",50,11,1,"Real",1,2,1,56,9583
"2235",50,2,1,"Real",1,4,1,57,4026
"2236",50,40,1,"Real",1,4,1,58,3288
"2237",50,33,1,"Real",1,2,0,59,4303
"2238",50,31,1,"Fake",1,4,NA,60,4052
"2239",50,47,1,"Real",1,4,1,61,4228
"2240",50,45,1,"Fake",1,3,1,62,3580
"2241",50,29,1,"Fake",1,4,NA,63,5616
"2242",50,50,1,"Fake",1,2,NA,64,5903
"2243",50,24,1,"Fake",1,4,NA,65,5262
"2244",50,28,1,"Fake",1,5,0,66,3524
"2245",50,54,1,"Fake",1,4,1,67,3225
"2246",50,12,1,"Real",1,5,NA,68,6579
"2247",50,8,1,"Real",1,5,NA,69,3275
"2248",50,53,1,"Fake",1,4,0,70,7362
"2249",50,1,1,"Fake",1,2,1,71,4809
"2250",50,44,1,"Fake",1,3,NA,72,2562
"2251",50,21,1,"Fake",1,5,1,73,4448
"2252",50,52,1,"Real",1,4,0,74,5055
"2253",50,42,1,"Fake",1,5,NA,75,2644
"2254",50,13,1,"Real",1,5,NA,76,3749
"2255",50,37,1,"Real",1,4,NA,77,5816
"2256",50,3,1,"Fake",1,5,0,78,3759
"2257",50,9,1,"Fake",1,5,0,79,3579
"2258",50,25,1,"Fake",1,3,NA,80,6662
"2259",50,48,1,"Fake",1,5,0,81,13352
"2260",50,10,1,"Real",1,4,NA,82,3832
"2261",50,23,1,"Real",1,5,0,83,5217
"2262",50,15,1,"Fake",1,5,1,84,3983
"2263",50,7,1,"Fake",1,4,1,85,2602
"2264",50,14,1,"Real",1,3,NA,86,7254
"2265",50,26,1,"Real",1,2,NA,87,4393
"2266",50,4,1,"Real",1,3,NA,88,3809
"2267",50,18,1,"Real",1,4,1,89,4363
"2268",50,20,1,"Real",1,3,0,90,3102
"2269",52,17,1,"Fake",1,2,NA,37,5033
"2270",52,14,1,"Real",1,5,1,38,5008
"2271",52,47,1,"Fake",1,2,NA,39,4433
"2272",52,30,1,"Real",1,2,NA,40,6403
"2273",52,26,1,"Real",1,6,1,41,4066
"2274",52,45,1,"Real",1,3,0,42,6895
"2275",52,46,1,"Real",1,2,NA,43,4026
"2276",52,34,1,"Fake",1,5,NA,44,3651
"2277",52,48,1,"Fake",1,6,1,45,2459
"2278",52,6,1,"Real",1,1,NA,46,1934
"2279",52,53,1,"Fake",1,6,1,47,4229
"2280",52,18,1,"Fake",1,1,NA,48,3142
"2281",52,9,1,"Fake",1,6,1,49,3420
"2282",52,7,1,"Real",1,3,0,50,4647
"2283",52,40,1,"Fake",1,3,NA,51,3766
"2284",52,21,1,"Real",1,5,0,52,7786
"2285",52,33,1,"Real",1,4,NA,53,3201
"2286",52,35,1,"Fake",1,4,1,54,4453
"2287",52,24,1,"Fake",1,4,0,55,4586
"2288",52,12,1,"Real",1,6,1,56,4092
"2289",52,5,1,"Real",1,6,NA,57,4050
"2290",52,28,1,"Fake",1,6,1,58,2786
"2291",52,37,1,"Real",1,5,1,59,2752
"2292",52,20,1,"Real",1,2,NA,60,5287
"2293",52,1,1,"Real",1,3,0,61,3458
"2294",52,2,1,"Fake",1,4,NA,62,5850
"2295",52,43,1,"Fake",1,5,1,63,2680
"2296",52,50,1,"Fake",1,4,0,64,5625
"2297",52,52,1,"Real",1,4,NA,65,6800
"2298",52,15,1,"Real",1,4,0,66,3263
"2299",52,3,1,"Fake",1,5,1,67,2897
"2300",52,16,1,"Real",1,3,0,68,4432
"2301",52,22,1,"Real",1,4,0,69,4256
"2302",52,10,1,"Real",1,6,1,70,2511
"2303",52,25,1,"Fake",1,4,0,71,4368
"2304",52,54,1,"Real",1,2,0,72,4339
"2305",52,41,1,"Real",1,3,0,73,6622
"2306",52,38,1,"Fake",1,6,1,74,2534
"2307",52,23,1,"Real",1,3,NA,75,5244
"2308",52,36,1,"Real",1,3,NA,76,2259
"2309",52,32,1,"Fake",1,4,0,77,8900
"2310",52,13,1,"Real",1,5,1,78,2349
"2311",52,39,1,"Fake",1,2,0,79,6715
"2312",52,8,1,"Real",1,5,1,80,2710
"2313",52,19,1,"Fake",1,2,NA,81,3957
"2314",52,11,1,"Fake",1,1,NA,82,2776
"2315",52,29,1,"Fake",1,2,0,83,6742
"2316",52,51,1,"Fake",1,1,NA,84,4287
"2317",52,44,1,"Fake",1,3,0,85,3974
"2318",52,31,1,"Fake",1,3,0,86,3826
"2319",52,42,1,"Fake",1,4,0,87,3124
"2320",52,4,1,"Real",1,6,1,88,2451
"2321",52,27,1,"Fake",1,5,1,89,2997
"2322",52,49,1,"Real",1,5,1,90,3130
"2323",53,17,1,"Real",1,4,NA,37,4325
"2324",53,42,1,"Real",1,5,1,38,4131
"2325",53,8,1,"Fake",1,5,1,39,4648
"2326",53,27,1,"Real",1,6,0,40,6249
"2327",53,44,1,"Real",1,5,1,41,8455
"2328",53,53,1,"Real",1,2,0,42,15034
"2329",53,25,1,"Real",1,4,1,43,5915
"2330",53,50,1,"Real",1,4,1,44,7399
"2331",53,49,1,"Fake",1,2,1,45,4036
"2332",53,12,1,"Fake",1,1,1,46,10605
"2333",53,35,1,"Real",1,5,0,47,10630
"2334",53,2,1,"Real",1,1,NA,48,7454
"2335",53,7,1,"Fake",1,1,0,49,4794
"2336",53,37,1,"Fake",1,6,1,50,9268
"2337",53,43,1,"Real",1,2,0,51,2958
"2338",53,40,1,"Real",1,1,NA,52,3661
"2339",53,30,1,"Fake",1,1,NA,53,4750
"2340",53,11,1,"Real",1,1,NA,54,4842
"2341",53,3,1,"Real",1,2,0,55,10154
"2342",53,6,1,"Fake",1,1,NA,56,9311
"2343",53,9,1,"Real",1,5,0,57,5893
"2344",53,48,1,"Real",1,4,0,58,6586
"2345",53,21,1,"Fake",1,5,0,59,6041
"2346",53,26,1,"Fake",1,4,1,60,9567
"2347",53,14,1,"Fake",1,6,1,61,3236
"2348",53,52,1,"Fake",1,1,NA,62,4942
"2349",53,23,1,"Fake",1,3,NA,63,6963
"2350",53,10,1,"Fake",1,4,1,64,4835
"2351",53,29,1,"Real",1,2,1,65,5141
"2352",53,18,1,"Real",1,2,NA,66,8168
"2353",53,45,1,"Fake",1,1,0,67,2729
"2354",53,4,1,"Fake",1,2,1,68,5385
"2355",53,28,1,"Real",1,2,0,69,6835
"2356",53,22,1,"Fake",1,1,0,70,10480
"2357",53,34,1,"Real",1,4,NA,71,5198
"2358",53,47,1,"Real",1,2,NA,72,2872
"2359",53,33,1,"Fake",1,3,NA,73,3763
"2360",53,31,1,"Real",1,5,1,74,5240
"2361",53,54,1,"Fake",1,4,0,75,8783
"2362",53,51,1,"Real",1,1,NA,76,6732
"2363",53,1,1,"Fake",1,1,0,77,7511
"2364",53,13,1,"Fake",1,4,1,78,7287
"2365",53,39,1,"Real",1,2,1,79,5442
"2366",53,15,1,"Fake",1,4,0,80,5097
"2367",53,19,1,"Real",1,2,NA,81,5718
"2368",53,32,1,"Real",1,1,1,82,5539
"2369",53,16,1,"Fake",1,5,0,83,4598
"2370",53,20,1,"Fake",1,6,NA,84,3929
"2371",53,36,1,"Fake",1,5,NA,85,6320
"2372",53,41,1,"Fake",1,1,0,86,9899
"2373",53,24,1,"Real",1,5,1,87,8568
"2374",53,46,1,"Fake",1,4,NA,88,6919
"2375",53,38,1,"Real",1,5,0,89,8409
"2376",53,5,1,"Fake",1,4,NA,90,6293
"2377",54,11,1,"Fake",1,5,0,37,5988
"2378",54,1,1,"Fake",1,2,NA,38,8981
"2379",54,39,1,"Fake",1,4,1,39,11178
"2380",54,33,1,"Real",1,3,1,40,4093
"2381",54,10,1,"Real",1,5,0,41,8020
"2382",54,40,1,"Fake",1,5,0,42,4793
"2383",54,2,1,"Fake",1,4,0,43,6683
"2384",54,15,1,"Fake",1,4,NA,44,5767
"2385",54,45,1,"Fake",1,2,NA,45,5249
"2386",54,26,1,"Real",1,5,0,46,6057
"2387",54,14,1,"Real",1,4,0,47,7343
"2388",54,47,1,"Fake",1,5,0,48,2624
"2389",54,19,1,"Fake",1,2,0,49,3748
"2390",54,20,1,"Real",1,2,1,50,5411
"2391",54,43,1,"Real",1,2,NA,51,3124
"2392",54,54,1,"Fake",1,4,NA,52,5028
"2393",54,3,1,"Real",1,2,NA,53,11460
"2394",54,30,1,"Real",1,4,1,54,2660
"2395",54,50,1,"Fake",1,4,1,55,3646
"2396",54,53,1,"Real",1,3,NA,56,6567
"2397",54,48,1,"Real",1,4,NA,57,3353
"2398",54,49,1,"Real",1,2,0,58,5967
"2399",54,16,1,"Fake",1,1,NA,59,4088
"2400",54,5,1,"Real",1,2,1,60,5424
"2401",54,37,1,"Real",1,4,0,61,3960
"2402",54,8,1,"Real",1,2,0,62,3940
"2403",54,21,1,"Fake",1,1,NA,63,5434
"2404",54,23,1,"Real",1,4,1,64,3259
"2405",54,22,1,"Fake",1,2,NA,65,8492
"2406",54,52,1,"Real",1,2,1,66,3007
"2407",54,18,1,"Fake",1,6,0,67,2706
"2408",54,27,1,"Real",1,6,NA,68,3828
"2409",54,29,1,"Fake",1,4,1,69,2510
"2410",54,42,1,"Fake",1,3,1,70,4255
"2411",54,36,1,"Real",1,2,1,71,3936
"2412",54,7,1,"Fake",1,5,NA,72,3253
"2413",54,41,1,"Fake",1,4,NA,73,4487
"2414",54,51,1,"Fake",1,5,0,74,10607
"2415",54,34,1,"Fake",1,2,0,75,3233
"2416",54,9,1,"Real",1,3,NA,76,3932
"2417",54,31,1,"Fake",1,2,1,77,2611
"2418",54,13,1,"Real",1,2,0,78,3015
"2419",54,4,1,"Real",1,5,0,79,3323
"2420",54,24,1,"Fake",1,5,1,80,4418
"2421",54,12,1,"Real",1,2,0,81,8476
"2422",54,46,1,"Real",1,4,1,82,5438
"2423",54,38,1,"Real",1,2,NA,83,5174
"2424",54,32,1,"Fake",1,2,1,84,3440
"2425",54,35,1,"Real",1,2,NA,85,5091
"2426",54,17,1,"Fake",1,4,0,86,5441
"2427",54,25,1,"Fake",1,5,1,87,4088
"2428",54,28,1,"Real",1,2,NA,88,2104
"2429",54,44,1,"Fake",1,2,1,89,5218
"2430",54,6,1,"Real",1,4,1,90,4746
"2431",55,33,1,"Fake",1,5,1,37,9979
"2432",55,18,1,"Real",1,4,0,38,9839
"2433",55,9,1,"Fake",1,3,NA,39,9465
"2434",55,17,1,"Real",1,1,0,40,6417
"2435",55,52,1,"Fake",1,4,1,41,5335
"2436",55,42,1,"Real",1,2,NA,42,4714
"2437",55,53,1,"Fake",1,2,NA,43,13101
"2438",55,23,1,"Fake",1,4,1,44,7272
"2439",55,2,1,"Real",1,1,0,45,10546
"2440",55,30,1,"Fake",1,5,1,46,4920
"2441",55,48,1,"Fake",1,4,NA,47,4899
"2442",55,46,1,"Fake",1,1,1,48,4393
"2443",55,25,1,"Real",1,4,NA,49,12098
"2444",55,37,1,"Fake",1,6,0,50,10118
"2445",55,41,1,"Real",1,3,1,51,4821
"2446",55,20,1,"Fake",1,1,1,52,3974
"2447",55,26,1,"Fake",1,4,0,53,11656
"2448",55,14,1,"Fake",1,6,0,54,13902
"2449",55,4,1,"Fake",1,4,0,55,7440
"2450",55,5,1,"Fake",1,2,1,56,7995
"2451",55,19,1,"Real",1,2,0,57,7627
"2452",55,16,1,"Real",1,5,1,58,4021
"2453",55,12,1,"Fake",1,2,0,59,13568
"2454",55,49,1,"Fake",1,1,0,60,6974
"2455",55,11,1,"Real",1,3,0,61,4927
"2456",55,34,1,"Real",1,4,0,62,8944
"2457",55,32,1,"Real",1,1,NA,63,9031
"2458",55,45,1,"Real",1,3,1,64,14353
"2459",55,24,1,"Real",1,2,NA,65,14751
"2460",55,3,1,"Fake",1,1,NA,66,11622
"2461",55,54,1,"Real",1,4,1,67,7381
"2462",55,15,1,"Real",1,4,1,68,6787
"2463",55,22,1,"Real",1,6,1,69,12410
"2464",55,31,1,"Real",1,1,NA,70,6737
"2465",55,8,1,"Fake",1,4,0,71,6394
"2466",55,29,1,"Real",1,1,NA,72,6779
"2467",55,6,1,"Fake",1,5,1,73,8426
"2468",55,10,1,"Fake",1,1,0,74,6494
"2469",55,7,1,"Real",1,4,1,75,4626
"2470",55,43,1,"Fake",1,4,NA,76,5282
"2471",55,28,1,"Fake",1,1,NA,77,4959
"2472",55,36,1,"Fake",1,5,1,78,5907
"2473",55,40,1,"Real",1,5,0,79,6494
"2474",55,21,1,"Real",1,6,1,80,5002
"2475",55,47,1,"Real",1,4,0,81,6490
"2476",55,35,1,"Fake",1,1,NA,82,6247
"2477",55,13,1,"Fake",1,2,0,83,5019
"2478",55,38,1,"Fake",1,1,NA,84,6020
"2479",55,27,1,"Fake",1,2,NA,85,5452
"2480",55,50,1,"Real",1,2,NA,86,7594
"2481",55,1,1,"Real",1,4,1,87,7255
"2482",55,51,1,"Real",1,4,0,88,8923
"2483",55,39,1,"Real",1,5,NA,89,11243
"2484",55,44,1,"Real",1,1,NA,90,15113
"2485",56,15,1,"Fake",1,4,NA,37,11568
"2486",56,31,1,"Fake",1,5,1,38,3425
"2487",56,23,1,"Real",1,5,1,39,2701
"2488",56,8,1,"Real",1,4,0,40,5462
"2489",56,52,1,"Real",1,6,1,41,2508
"2490",56,14,1,"Real",1,5,0,42,6477
"2491",56,28,1,"Real",1,4,NA,43,4272
"2492",56,41,1,"Fake",1,1,NA,44,6912
"2493",56,53,1,"Real",1,2,NA,45,5651
"2494",56,25,1,"Fake",1,2,1,46,3474
"2495",56,6,1,"Real",1,2,1,47,4835
"2496",56,42,1,"Fake",1,6,1,48,3212
"2497",56,22,1,"Fake",1,6,NA,49,5127
"2498",56,3,1,"Real",1,5,NA,50,6876
"2499",56,32,1,"Fake",1,2,1,51,3504
"2500",56,1,1,"Fake",1,6,NA,52,2543
"2501",56,43,1,"Real",1,5,NA,53,3718
"2502",56,34,1,"Fake",1,4,0,54,5135
"2503",56,38,1,"Real",1,2,NA,55,3004
"2504",56,49,1,"Real",1,2,0,56,4063
"2505",56,44,1,"Fake",1,5,1,57,3248
"2506",56,36,1,"Real",1,6,1,58,3441
"2507",56,48,1,"Real",1,4,NA,59,3300
"2508",56,21,1,"Fake",1,4,NA,60,4604
"2509",56,54,1,"Fake",1,1,NA,61,3519
"2510",56,11,1,"Fake",1,1,0,62,8663
"2511",56,2,1,"Fake",1,2,0,63,5865
"2512",56,30,1,"Real",1,2,1,64,3894
"2513",56,45,1,"Fake",1,3,NA,65,5455
"2514",56,10,1,"Real",1,3,0,66,5470
"2515",56,12,1,"Real",1,4,0,67,4587
"2516",56,18,1,"Fake",1,4,0,68,3406
"2517",56,9,1,"Real",1,4,NA,69,1538
"2518",56,46,1,"Real",1,4,1,70,5444
"2519",56,26,1,"Real",1,3,0,71,5675
"2520",56,24,1,"Fake",1,4,1,72,3369
"2521",56,33,1,"Real",1,5,1,73,4063
"2522",56,5,1,"Real",1,6,1,74,2855
"2523",56,35,1,"Real",1,3,NA,75,4810
"2524",56,7,1,"Fake",1,2,NA,76,4387
"2525",56,29,1,"Fake",1,5,1,77,2934
"2526",56,37,1,"Real",1,4,0,78,3582
"2527",56,16,1,"Fake",1,4,NA,79,2395
"2528",56,4,1,"Real",1,3,0,80,4825
"2529",56,19,1,"Fake",1,1,0,81,3746
"2530",56,17,1,"Fake",1,2,0,82,3551
"2531",56,13,1,"Real",1,3,0,83,4661
"2532",56,47,1,"Fake",1,4,0,84,5308
"2533",56,39,1,"Fake",1,4,1,85,3442
"2534",56,40,1,"Fake",1,4,0,86,1644
"2535",56,50,1,"Fake",1,5,1,87,3433
"2536",56,51,1,"Fake",1,5,0,88,3259
"2537",56,27,1,"Real",1,3,NA,89,4869
"2538",56,20,1,"Real",1,4,1,90,3878
"2539",57,15,1,"Fake",1,5,1,37,9916
"2540",57,21,1,"Fake",1,4,1,38,6914
"2541",57,14,1,"Real",1,6,NA,39,7141
"2542",57,41,1,"Fake",1,2,1,40,8278
"2543",57,24,1,"Fake",1,4,NA,41,8112
"2544",57,31,1,"Fake",1,4,NA,42,9601
"2545",57,26,1,"Real",1,6,NA,43,8069
"2546",57,3,1,"Fake",1,4,0,44,6592
"2547",57,51,1,"Real",1,6,1,45,5040
"2548",57,2,1,"Real",1,6,1,46,4288
"2549",57,11,1,"Real",1,6,1,47,4199
"2550",57,38,1,"Fake",1,2,0,48,5899
"2551",57,53,1,"Fake",1,5,0,49,9950
"2552",57,10,1,"Real",1,4,NA,50,5717
"2553",57,25,1,"Fake",1,3,NA,51,7784
"2554",57,13,1,"Real",1,5,NA,52,10606
"2555",57,5,1,"Real",1,4,0,53,5176
"2556",57,49,1,"Real",1,5,NA,54,4835
"2557",57,42,1,"Fake",1,2,NA,55,4996
"2558",57,39,1,"Fake",1,1,NA,56,5398
"2559",57,1,1,"Fake",1,2,1,57,6455
"2560",57,32,1,"Fake",1,3,NA,58,5118
"2561",57,23,1,"Real",1,4,0,59,6874
"2562",57,34,1,"Real",1,5,1,60,5367
"2563",57,4,1,"Real",1,5,NA,61,4545
"2564",57,19,1,"Real",1,3,1,62,4735
"2565",57,6,1,"Real",1,5,0,63,6921
"2566",57,47,1,"Real",1,5,1,64,11461
"2567",57,46,1,"Real",1,6,0,65,11723
"2568",57,48,1,"Fake",1,2,0,66,7847
"2569",57,16,1,"Fake",1,2,1,67,4643
"2570",57,28,1,"Fake",1,2,0,68,5396
"2571",57,22,1,"Fake",1,3,1,69,6317
"2572",57,27,1,"Fake",1,3,0,70,5498
"2573",57,33,1,"Real",1,4,0,71,6286
"2574",57,44,1,"Fake",1,2,NA,72,4387
"2575",57,7,1,"Fake",1,2,1,73,5614
"2576",57,43,1,"Fake",1,4,0,74,4671
"2577",57,12,1,"Real",1,5,NA,75,7126
"2578",57,35,1,"Fake",1,2,0,76,10184
"2579",57,52,1,"Real",1,4,0,77,6308
"2580",57,18,1,"Real",1,6,1,78,4528
"2581",57,37,1,"Real",1,5,NA,79,7357
"2582",57,45,1,"Fake",1,4,1,80,4782
"2583",57,8,1,"Real",1,6,NA,81,3920
"2584",57,36,1,"Real",1,6,0,82,6464
"2585",57,29,1,"Fake",1,3,NA,83,6597
"2586",57,30,1,"Real",1,5,0,84,4412
"2587",57,17,1,"Real",1,4,1,85,3071
"2588",57,54,1,"Fake",1,1,1,86,4072
"2589",57,9,1,"Fake",1,4,0,87,7152
"2590",57,40,1,"Real",1,6,1,88,4539
"2591",57,50,1,"Fake",1,2,NA,89,5391
"2592",57,20,1,"Real",1,6,0,90,5689
"2593",58,50,1,"Real",1,5,1,37,6143
"2594",58,16,1,"Fake",1,3,0,38,4634
"2595",58,24,1,"Real",1,6,1,39,3083
"2596",58,28,1,"Real",1,6,0,40,2829
"2597",58,40,1,"Real",1,5,NA,41,4224
"2598",58,36,1,"Fake",1,2,NA,42,2723
"2599",58,22,1,"Fake",1,4,0,43,5812
"2600",58,4,1,"Fake",1,4,1,44,4050
"2601",58,47,1,"Real",1,6,NA,45,2484
"2602",58,31,1,"Real",1,6,1,46,1854
"2603",58,48,1,"Real",1,5,0,47,4386
"2604",58,46,1,"Fake",1,6,NA,48,5079
"2605",58,21,1,"Fake",1,4,0,49,5405
"2606",58,41,1,"Fake",1,4,0,50,4334
"2607",58,6,1,"Fake",1,2,NA,51,4019
"2608",58,17,1,"Real",1,5,NA,52,850
"2609",58,23,1,"Fake",1,4,NA,53,4815
"2610",58,19,1,"Real",1,5,NA,54,4360
"2611",58,43,1,"Real",1,5,0,55,2797
"2612",58,52,1,"Fake",1,5,NA,56,2770
"2613",58,32,1,"Real",1,5,1,57,2777
"2614",58,20,1,"Fake",1,5,NA,58,5006
"2615",58,9,1,"Real",1,5,0,59,5552
"2616",58,12,1,"Fake",1,3,1,60,3068
"2617",58,37,1,"Fake",1,6,1,61,2574
"2618",58,30,1,"Fake",1,2,NA,62,3315
"2619",58,25,1,"Real",1,3,1,63,3475
"2620",58,34,1,"Real",1,6,NA,64,3388
"2621",58,51,1,"Real",1,6,NA,65,2944
"2622",58,45,1,"Fake",1,5,0,66,5615
"2623",58,3,1,"Real",1,5,0,67,6920
"2624",58,26,1,"Fake",1,4,1,68,3802
"2625",58,42,1,"Real",1,4,1,69,3670
"2626",58,53,1,"Real",1,6,0,70,1655
"2627",58,29,1,"Real",1,6,1,71,3532
"2628",58,1,1,"Fake",1,2,0,72,4170
"2629",58,5,1,"Fake",1,3,NA,73,3582
"2630",58,27,1,"Real",1,5,0,74,3939
"2631",58,10,1,"Fake",1,3,1,75,3641
"2632",58,49,1,"Fake",1,2,1,76,3411
"2633",58,7,1,"Fake",1,4,0,77,4319
"2634",58,39,1,"Real",1,6,1,78,1805
"2635",58,14,1,"Fake",1,4,1,79,4770
"2636",58,38,1,"Real",1,5,0,80,4566
"2637",58,13,1,"Fake",1,5,1,81,3227
"2638",58,2,1,"Real",1,6,NA,82,2766
"2639",58,35,1,"Real",1,6,0,83,3868
"2640",58,54,1,"Fake",1,3,0,84,4637
"2641",58,18,1,"Real",1,5,NA,85,4462
"2642",58,15,1,"Fake",1,2,0,86,3862
"2643",58,44,1,"Real",1,5,1,87,3087
"2644",58,11,1,"Real",1,5,NA,88,3255
"2645",58,33,1,"Fake",1,2,NA,89,5571
"2646",58,8,1,"Fake",1,5,1,90,4261
"2647",59,24,1,"Real",1,3,1,37,8684
"2648",59,35,1,"Real",1,1,0,38,8475
"2649",59,4,1,"Fake",1,4,1,39,4940
"2650",59,45,1,"Fake",1,3,0,40,10695
"2651",59,1,1,"Fake",1,2,0,41,5305
"2652",59,33,1,"Fake",1,6,NA,42,2781
"2653",59,18,1,"Real",1,4,NA,43,9087
"2654",59,22,1,"Fake",1,3,0,44,5150
"2655",59,43,1,"Real",1,2,0,45,5847
"2656",59,40,1,"Real",1,5,NA,46,5252
"2657",59,39,1,"Real",1,3,1,47,6538
"2658",59,53,1,"Real",1,4,0,48,6393
"2659",59,34,1,"Real",1,4,NA,49,4942
"2660",59,38,1,"Real",1,5,0,50,4586
"2661",59,16,1,"Fake",1,2,0,51,5672
"2662",59,14,1,"Fake",1,5,1,52,7301
"2663",59,28,1,"Real",1,3,0,53,5739
"2664",59,2,1,"Real",1,4,NA,54,5252
"2665",59,31,1,"Real",1,1,1,55,4835
"2666",59,10,1,"Fake",1,3,1,56,9009
"2667",59,8,1,"Fake",1,4,1,57,2851
"2668",59,36,1,"Fake",1,5,NA,58,3501
"2669",59,21,1,"Fake",1,1,0,59,5083
"2670",59,27,1,"Real",1,6,0,60,4504
"2671",59,3,1,"Real",1,4,0,61,9637
"2672",59,49,1,"Fake",1,2,1,62,8443
"2673",59,6,1,"Fake",1,1,NA,63,5700
"2674",59,15,1,"Fake",1,3,0,64,7471
"2675",59,52,1,"Fake",1,2,NA,65,5384
"2676",59,9,1,"Real",1,4,0,66,6074
"2677",59,29,1,"Real",1,5,1,67,3133
"2678",59,54,1,"Fake",1,4,0,68,3608
"2679",59,26,1,"Fake",1,3,1,69,4497
"2680",59,11,1,"Real",1,2,NA,70,4718
"2681",59,51,1,"Real",1,4,NA,71,7882
"2682",59,37,1,"Fake",1,5,1,72,3883
"2683",59,20,1,"Fake",1,6,NA,73,2556
"2684",59,23,1,"Fake",1,4,NA,74,5360
"2685",59,25,1,"Real",1,5,1,75,3153
"2686",59,32,1,"Real",1,3,1,76,8941
"2687",59,50,1,"Real",1,2,1,77,6674
"2688",59,41,1,"Fake",1,4,0,78,5246
"2689",59,17,1,"Real",1,2,NA,79,2236
"2690",59,7,1,"Fake",1,4,0,80,4270
"2691",59,5,1,"Fake",1,5,NA,81,3766
"2692",59,19,1,"Real",1,2,NA,82,5000
"2693",59,12,1,"Fake",1,3,1,83,5800
"2694",59,44,1,"Real",1,6,1,84,5368
"2695",59,47,1,"Real",1,4,NA,85,1912
"2696",59,46,1,"Fake",1,6,NA,86,5495
"2697",59,30,1,"Fake",1,4,NA,87,2973
"2698",59,42,1,"Real",1,5,1,88,1944
"2699",59,13,1,"Fake",1,1,1,89,11030
"2700",59,48,1,"Real",1,3,0,90,4117
"2701",6,11,1,"Real",1,6,NA,37,7150
"2702",6,54,1,"Fake",1,4,0,38,10374
"2703",6,50,1,"Real",1,4,1,39,8441
"2704",6,1,1,"Fake",1,2,0,40,8931
"2705",6,52,1,"Fake",1,3,NA,41,7730
"2706",6,22,1,"Fake",1,4,0,42,8056
"2707",6,39,1,"Real",1,1,1,43,5524
"2708",6,34,1,"Real",1,3,NA,44,9424
"2709",6,6,1,"Fake",1,1,NA,45,4666
"2710",6,23,1,"Fake",1,3,NA,46,10730
"2711",6,12,1,"Fake",1,3,1,47,5789
"2712",6,45,1,"Fake",1,2,0,48,7222
"2713",6,37,1,"Fake",1,4,1,49,7819
"2714",6,29,1,"Real",1,4,1,50,5199
"2715",6,43,1,"Real",1,5,0,51,3777
"2716",6,41,1,"Fake",1,4,0,52,12405
"2717",6,19,1,"Real",1,3,NA,53,3932
"2718",6,3,1,"Real",1,4,0,54,6473
"2719",6,10,1,"Fake",1,3,1,55,682
"2720",6,2,1,"Real",1,4,NA,56,6279
"2721",6,28,1,"Real",1,4,0,57,10466
"2722",6,18,1,"Real",1,2,NA,58,7409
"2723",6,26,1,"Fake",1,4,1,59,8864
"2724",6,4,1,"Fake",1,4,1,60,3792
"2725",6,15,1,"Fake",1,4,0,61,5115
"2726",6,14,1,"Fake",1,5,1,62,5736
"2727",6,5,1,"Fake",1,2,NA,63,7115
"2728",6,8,1,"Fake",1,5,1,64,5460
"2729",6,42,1,"Real",1,4,1,65,3435
"2730",6,40,1,"Real",1,3,NA,66,6589
"2731",6,32,1,"Real",1,3,1,67,3797
"2732",6,13,1,"Fake",1,5,1,68,2728
"2733",6,48,1,"Real",1,4,0,69,5064
"2734",6,31,1,"Real",1,3,1,70,3303
"2735",6,47,1,"Real",1,4,NA,71,6253
"2736",6,20,1,"Fake",1,2,NA,72,4418
"2737",6,24,1,"Real",1,3,1,73,3738
"2738",6,30,1,"Fake",1,3,NA,74,4647
"2739",6,35,1,"Real",1,3,0,75,8006
"2740",6,49,1,"Fake",1,4,1,76,3292
"2741",6,17,1,"Real",1,5,NA,77,3563
"2742",6,51,1,"Real",1,4,NA,78,3511
"2743",6,36,1,"Fake",1,3,NA,79,5238
"2744",6,44,1,"Real",1,4,1,80,2734
"2745",6,53,1,"Real",1,3,0,81,6309
"2746",6,7,1,"Fake",1,4,0,82,8601
"2747",6,38,1,"Real",1,3,0,83,5516
"2748",6,46,1,"Fake",1,2,NA,84,6120
"2749",6,33,1,"Fake",1,3,NA,85,4674
"2750",6,16,1,"Fake",1,5,0,86,5872
"2751",6,21,1,"Fake",1,3,0,87,4309
"2752",6,25,1,"Real",1,4,1,88,3049
"2753",6,9,1,"Real",1,3,0,89,3116
"2754",6,27,1,"Real",1,4,0,90,5564
"2755",60,51,1,"Fake",1,2,0,37,14974
"2756",60,53,1,"Real",1,4,NA,38,9874
"2757",60,38,1,"Real",1,2,NA,39,9658
"2758",60,31,1,"Fake",1,5,1,40,6596
"2759",60,4,1,"Real",1,5,0,41,6301
"2760",60,39,1,"Fake",1,2,1,42,5505
"2761",60,49,1,"Real",1,5,0,43,10543
"2762",60,34,1,"Fake",1,3,0,44,6917
"2763",60,45,1,"Fake",1,1,NA,45,3448
"2764",60,2,1,"Fake",1,6,0,46,1047
"2765",60,48,1,"Real",1,1,NA,47,9485
"2766",60,20,1,"Real",1,5,1,48,3102
"2767",60,11,1,"Fake",1,2,0,49,6856
"2768",60,14,1,"Real",1,5,0,50,4863
"2769",60,7,1,"Fake",1,2,NA,51,4608
"2770",60,52,1,"Real",1,4,1,52,2787
"2771",60,18,1,"Fake",1,1,0,53,4754
"2772",60,8,1,"Real",1,1,0,54,3807
"2773",60,5,1,"Real",1,5,1,55,3509
"2774",60,22,1,"Fake",1,1,NA,56,11693
"2775",60,35,1,"Real",1,2,NA,57,4706
"2776",60,37,1,"Real",1,5,0,58,5146
"2777",60,3,1,"Real",1,1,NA,59,6599
"2778",60,21,1,"Fake",1,2,NA,60,1161
"2779",60,28,1,"Real",1,3,NA,61,3364
"2780",60,40,1,"Fake",1,3,0,62,7211
"2781",60,36,1,"Real",1,5,1,63,2969
"2782",60,1,1,"Fake",1,2,NA,64,8881
"2783",60,15,1,"Fake",1,3,NA,65,3251
"2784",60,26,1,"Real",1,2,0,66,4440
"2785",60,33,1,"Real",1,5,1,67,3674
"2786",60,24,1,"Fake",1,5,1,68,3667
"2787",60,32,1,"Fake",1,4,1,69,4983
"2788",60,50,1,"Fake",1,5,1,70,817
"2789",60,17,1,"Fake",1,2,0,71,6274
"2790",60,46,1,"Real",1,5,1,72,3433
