"","subject","statement_identifier","presentation_identifier","within_identifier","between_identifier","response","repeated","rt","trial"
"1",5,1,1,1,"intuitive",3,1,NA,NA
"2",5,2,1,1,"intuitive",4,1,NA,NA
"3",5,3,1,1,"intuitive",4,1,NA,NA
"4",5,4,1,1,"intuitive",3,1,NA,NA
"5",5,5,1,1,"intuitive",2,1,NA,NA
"6",5,6,1,1,"intuitive",4,1,NA,NA
"7",5,7,1,1,"intuitive",4,1,NA,NA
"8",5,8,1,1,"intuitive",4,1,NA,NA
"9",5,9,1,1,"intuitive",4,1,NA,NA
"10",5,10,1,1,"intuitive",3,1,NA,NA
"11",5,11,1,1,"intuitive",3,0,NA,NA
"12",5,12,1,1,"intuitive",3,0,NA,NA
"13",5,13,1,1,"intuitive",4,0,NA,NA
"14",5,14,1,1,"intuitive",2,0,NA,NA
"15",5,15,1,1,"intuitive",4,0,NA,NA
"16",5,16,1,1,"intuitive",3,0,NA,NA
"17",5,17,1,1,"intuitive",3,0,NA,NA
"18",5,18,1,1,"intuitive",1,0,NA,NA
"19",5,19,1,1,"intuitive",3,0,NA,NA
"20",5,20,1,1,"intuitive",4,0,NA,NA
"21",7,1,1,1,"deliberative",5,0,NA,NA
"22",7,2,1,1,"deliberative",3,0,NA,NA
"23",7,3,1,1,"deliberative",4,0,NA,NA
"24",7,4,1,1,"deliberative",3,0,NA,NA
"25",7,5,1,1,"deliberative",3,0,NA,NA
"26",7,6,1,1,"deliberative",5,0,NA,NA
"27",7,7,1,1,"deliberative",3,0,NA,NA
"28",7,8,1,1,"deliberative",3,0,NA,NA
"29",7,9,1,1,"deliberative",3,0,NA,NA
"30",7,10,1,1,"deliberative",4,0,NA,NA
"31",7,21,1,1,"deliberative",3,1,NA,NA
"32",7,22,1,1,"deliberative",3,1,NA,NA
"33",7,23,1,1,"deliberative",3,1,NA,NA
"34",7,24,1,1,"deliberative",5,1,NA,NA
"35",7,25,1,1,"deliberative",2,1,NA,NA
"36",7,26,1,1,"deliberative",3,1,NA,NA
"37",7,27,1,1,"deliberative",4,1,NA,NA
"38",7,28,1,1,"deliberative",3,1,NA,NA
"39",7,29,1,1,"deliberative",5,1,NA,NA
"40",7,30,1,1,"deliberative",1,1,NA,NA
"41",8,1,1,1,"intuitive",4,0,NA,NA
"42",8,2,1,1,"intuitive",4,0,NA,NA
"43",8,3,1,1,"intuitive",2,0,NA,NA
"44",8,4,1,1,"intuitive",3,0,NA,NA
"45",8,5,1,1,"intuitive",4,0,NA,NA
"46",8,6,1,1,"intuitive",3,0,NA,NA
"47",8,7,1,1,"intuitive",2,0,NA,NA
"48",8,8,1,1,"intuitive",4,0,NA,NA
"49",8,9,1,1,"intuitive",3,0,NA,NA
"50",8,10,1,1,"intuitive",2,0,NA,NA
"51",8,21,1,1,"intuitive",4,1,NA,NA
"52",8,22,1,1,"intuitive",3,1,NA,NA
"53",8,23,1,1,"intuitive",2,1,NA,NA
"54",8,24,1,1,"intuitive",3,1,NA,NA
"55",8,25,1,1,"intuitive",2,1,NA,NA
"56",8,26,1,1,"intuitive",2,1,NA,NA
"57",8,27,1,1,"intuitive",2,1,NA,NA
"58",8,28,1,1,"intuitive",3,1,NA,NA
"59",8,29,1,1,"intuitive",4,1,NA,NA
"60",8,30,1,1,"intuitive",1,1,NA,NA
"61",9,21,1,1,"deliberative",4,0,NA,NA
"62",9,22,1,1,"deliberative",4,0,NA,NA
"63",9,23,1,1,"deliberative",5,0,NA,NA
"64",9,24,1,1,"deliberative",3,0,NA,NA
"65",9,25,1,1,"deliberative",1,0,NA,NA
"66",9,26,1,1,"deliberative",5,0,NA,NA
"67",9,27,1,1,"deliberative",1,0,NA,NA
"68",9,28,1,1,"deliberative",3,0,NA,NA
"69",9,29,1,1,"deliberative",4,0,NA,NA
"70",9,30,1,1,"deliberative",5,0,NA,NA
"71",9,11,1,1,"deliberative",1,1,NA,NA
"72",9,12,1,1,"deliberative",4,1,NA,NA
"73",9,13,1,1,"deliberative",5,1,NA,NA
"74",9,14,1,1,"deliberative",1,1,NA,NA
"75",9,15,1,1,"deliberative",3,1,NA,NA
"76",9,16,1,1,"deliberative",5,1,NA,NA
"77",9,17,1,1,"deliberative",1,1,NA,NA
"78",9,18,1,1,"deliberative",3,1,NA,NA
"79",9,19,1,1,"deliberative",5,1,NA,NA
"80",9,20,1,1,"deliberative",5,1,NA,NA
"81",10,1,1,1,"deliberative",5,0,NA,NA
"82",10,2,1,1,"deliberative",5,0,NA,NA
"83",10,3,1,1,"deliberative",1,0,NA,NA
"84",10,4,1,1,"deliberative",5,0,NA,NA
"85",10,5,1,1,"deliberative",5,0,NA,NA
"86",10,6,1,1,"deliberative",5,0,NA,NA
"87",10,7,1,1,"deliberative",1,0,NA,NA
"88",10,8,1,1,"deliberative",1,0,NA,NA
"89",10,9,1,1,"deliberative",5,0,NA,NA
"90",10,10,1,1,"deliberative",1,0,NA,NA
"91",10,11,1,1,"deliberative",5,1,NA,NA
"92",10,12,1,1,"deliberative",5,1,NA,NA
"93",10,13,1,1,"deliberative",5,1,NA,NA
"94",10,14,1,1,"deliberative",2,1,NA,NA
"95",10,15,1,1,"deliberative",5,1,NA,NA
"96",10,16,1,1,"deliberative",5,1,NA,NA
"97",10,17,1,1,"deliberative",5,1,NA,NA
"98",10,18,1,1,"deliberative",1,1,NA,NA
"99",10,19,1,1,"deliberative",1,1,NA,NA
"100",10,20,1,1,"deliberative",1,1,NA,NA
"101",11,1,1,1,"intuitive",4,0,NA,NA
"102",11,2,1,1,"intuitive",2,0,NA,NA
"103",11,3,1,1,"intuitive",3,0,NA,NA
"104",11,4,1,1,"intuitive",2,0,NA,NA
"105",11,5,1,1,"intuitive",2,0,NA,NA
"106",11,6,1,1,"intuitive",3,0,NA,NA
"107",11,7,1,1,"intuitive",3,0,NA,NA
"108",11,8,1,1,"intuitive",3,0,NA,NA
"109",11,9,1,1,"intuitive",3,0,NA,NA
"110",11,10,1,1,"intuitive",2,0,NA,NA
"111",11,11,1,1,"intuitive",3,1,NA,NA
"112",11,12,1,1,"intuitive",3,1,NA,NA
"113",11,13,1,1,"intuitive",3,1,NA,NA
"114",11,14,1,1,"intuitive",3,1,NA,NA
"115",11,15,1,1,"intuitive",3,1,NA,NA
"116",11,16,1,1,"intuitive",3,1,NA,NA
"117",11,17,1,1,"intuitive",2,1,NA,NA
"118",11,18,1,1,"intuitive",3,1,NA,NA
"119",11,19,1,1,"intuitive",3,1,NA,NA
"120",11,20,1,1,"intuitive",5,1,NA,NA
"121",12,1,1,1,"deliberative",4,1,NA,NA
"122",12,2,1,1,"deliberative",2,1,NA,NA
"123",12,3,1,1,"deliberative",3,1,NA,NA
"124",12,4,1,1,"deliberative",3,1,NA,NA
"125",12,5,1,1,"deliberative",3,1,NA,NA
"126",12,6,1,1,"deliberative",3,1,NA,NA
"127",12,7,1,1,"deliberative",3,1,NA,NA
"128",12,8,1,1,"deliberative",3,1,NA,NA
"129",12,9,1,1,"deliberative",3,1,NA,NA
"130",12,10,1,1,"deliberative",3,1,NA,NA
"131",12,11,1,1,"deliberative",3,0,NA,NA
"132",12,12,1,1,"deliberative",3,0,NA,NA
"133",12,13,1,1,"deliberative",2,0,NA,NA
"134",12,14,1,1,"deliberative",3,0,NA,NA
"135",12,15,1,1,"deliberative",3,0,NA,NA
"136",12,16,1,1,"deliberative",3,0,NA,NA
"137",12,17,1,1,"deliberative",3,0,NA,NA
"138",12,18,1,1,"deliberative",3,0,NA,NA
"139",12,19,1,1,"deliberative",3,0,NA,NA
"140",12,20,1,1,"deliberative",5,0,NA,NA
"141",13,21,1,1,"intuitive",5,1,NA,NA
"142",13,22,1,1,"intuitive",5,1,NA,NA
"143",13,23,1,1,"intuitive",5,1,NA,NA
"144",13,24,1,1,"intuitive",4,1,NA,NA
"145",13,25,1,1,"intuitive",5,1,NA,NA
"146",13,26,1,1,"intuitive",1,1,NA,NA
"147",13,27,1,1,"intuitive",1,1,NA,NA
"148",13,28,1,1,"intuitive",5,1,NA,NA
"149",13,29,1,1,"intuitive",3,1,NA,NA
"150",13,30,1,1,"intuitive",5,1,NA,NA
"151",13,11,1,1,"intuitive",5,0,NA,NA
"152",13,12,1,1,"intuitive",5,0,NA,NA
"153",13,13,1,1,"intuitive",5,0,NA,NA
"154",13,14,1,1,"intuitive",5,0,NA,NA
"155",13,15,1,1,"intuitive",4,0,NA,NA
"156",13,16,1,1,"intuitive",1,0,NA,NA
"157",13,17,1,1,"intuitive",3,0,NA,NA
"158",13,18,1,1,"intuitive",1,0,NA,NA
"159",13,19,1,1,"intuitive",1,0,NA,NA
"160",13,20,1,1,"intuitive",4,0,NA,NA
"161",16,21,1,1,"intuitive",4,1,NA,NA
"162",16,22,1,1,"intuitive",4,1,NA,NA
"163",16,23,1,1,"intuitive",4,1,NA,NA
"164",16,24,1,1,"intuitive",4,1,NA,NA
"165",16,25,1,1,"intuitive",3,1,NA,NA
"166",16,26,1,1,"intuitive",4,1,NA,NA
"167",16,27,1,1,"intuitive",3,1,NA,NA
"168",16,28,1,1,"intuitive",4,1,NA,NA
"169",16,29,1,1,"intuitive",3,1,NA,NA
"170",16,30,1,1,"intuitive",4,1,NA,NA
"171",16,11,1,1,"intuitive",3,0,NA,NA
"172",16,12,1,1,"intuitive",3,0,NA,NA
"173",16,13,1,1,"intuitive",3,0,NA,NA
"174",16,14,1,1,"intuitive",2,0,NA,NA
"175",16,15,1,1,"intuitive",2,0,NA,NA
"176",16,16,1,1,"intuitive",4,0,NA,NA
"177",16,17,1,1,"intuitive",4,0,NA,NA
"178",16,18,1,1,"intuitive",2,0,NA,NA
"179",16,19,1,1,"intuitive",2,0,NA,NA
"180",16,20,1,1,"intuitive",5,0,NA,NA
"181",20,1,1,1,"intuitive",4,1,NA,NA
"182",20,2,1,1,"intuitive",3,1,NA,NA
"183",20,3,1,1,"intuitive",2,1,NA,NA
"184",20,4,1,1,"intuitive",4,1,NA,NA
"185",20,5,1,1,"intuitive",2,1,NA,NA
"186",20,6,1,1,"intuitive",3,1,NA,NA
"187",20,7,1,1,"intuitive",3,1,NA,NA
"188",20,8,1,1,"intuitive",3,1,NA,NA
"189",20,9,1,1,"intuitive",3,1,NA,NA
"190",20,10,1,1,"intuitive",3,1,NA,NA
"191",20,11,1,1,"intuitive",3,0,NA,NA
"192",20,12,1,1,"intuitive",3,0,NA,NA
"193",20,13,1,1,"intuitive",2,0,NA,NA
"194",20,14,1,1,"intuitive",3,0,NA,NA
"195",20,15,1,1,"intuitive",2,0,NA,NA
"196",20,16,1,1,"intuitive",3,0,NA,NA
"197",20,17,1,1,"intuitive",3,0,NA,NA
"198",20,18,1,1,"intuitive",3,0,NA,NA
"199",20,19,1,1,"intuitive",2,0,NA,NA
"200",20,20,1,1,"intuitive",3,0,NA,NA
"201",21,1,1,1,"intuitive",4,1,NA,NA
"202",21,2,1,1,"intuitive",3,1,NA,NA
"203",21,3,1,1,"intuitive",3,1,NA,NA
"204",21,4,1,1,"intuitive",4,1,NA,NA
"205",21,5,1,1,"intuitive",1,1,NA,NA
"206",21,6,1,1,"intuitive",4,1,NA,NA
"207",21,7,1,1,"intuitive",2,1,NA,NA
"208",21,8,1,1,"intuitive",3,1,NA,NA
"209",21,9,1,1,"intuitive",4,1,NA,NA
"210",21,10,1,1,"intuitive",3,1,NA,NA
"211",21,21,1,1,"intuitive",4,0,NA,NA
"212",21,22,1,1,"intuitive",1,0,NA,NA
"213",21,23,1,1,"intuitive",4,0,NA,NA
"214",21,24,1,1,"intuitive",4,0,NA,NA
"215",21,25,1,1,"intuitive",2,0,NA,NA
"216",21,26,1,1,"intuitive",3,0,NA,NA
"217",21,27,1,1,"intuitive",3,0,NA,NA
"218",21,28,1,1,"intuitive",3,0,NA,NA
"219",21,29,1,1,"intuitive",2,0,NA,NA
"220",21,30,1,1,"intuitive",4,0,NA,NA
"221",22,1,1,1,"deliberative",4,0,NA,NA
"222",22,2,1,1,"deliberative",3,0,NA,NA
"223",22,3,1,1,"deliberative",3,0,NA,NA
"224",22,4,1,1,"deliberative",3,0,NA,NA
"225",22,5,1,1,"deliberative",3,0,NA,NA
"226",22,6,1,1,"deliberative",3,0,NA,NA
"227",22,7,1,1,"deliberative",3,0,NA,NA
"228",22,8,1,1,"deliberative",4,0,NA,NA
"229",22,9,1,1,"deliberative",2,0,NA,NA
"230",22,10,1,1,"deliberative",1,0,NA,NA
"231",22,21,1,1,"deliberative",3,1,NA,NA
"232",22,22,1,1,"deliberative",2,1,NA,NA
"233",22,23,1,1,"deliberative",3,1,NA,NA
"234",22,24,1,1,"deliberative",3,1,NA,NA
"235",22,25,1,1,"deliberative",2,1,NA,NA
"236",22,26,1,1,"deliberative",4,1,NA,NA
"237",22,27,1,1,"deliberative",3,1,NA,NA
"238",22,28,1,1,"deliberative",3,1,NA,NA
"239",22,29,1,1,"deliberative",3,1,NA,NA
"240",22,30,1,1,"deliberative",3,1,NA,NA
"241",24,1,1,1,"intuitive",3,0,NA,NA
"242",24,2,1,1,"intuitive",4,0,NA,NA
"243",24,3,1,1,"intuitive",2,0,NA,NA
"244",24,4,1,1,"intuitive",1,0,NA,NA
"245",24,5,1,1,"intuitive",1,0,NA,NA
"246",24,6,1,1,"intuitive",4,0,NA,NA
"247",24,7,1,1,"intuitive",3,0,NA,NA
"248",24,8,1,1,"intuitive",2,0,NA,NA
"249",24,9,1,1,"intuitive",4,0,NA,NA
"250",24,10,1,1,"intuitive",3,0,NA,NA
"251",24,11,1,1,"intuitive",3,1,NA,NA
"252",24,12,1,1,"intuitive",3,1,NA,NA
"253",24,13,1,1,"intuitive",2,1,NA,NA
"254",24,14,1,1,"intuitive",3,1,NA,NA
"255",24,15,1,1,"intuitive",3,1,NA,NA
"256",24,16,1,1,"intuitive",4,1,NA,NA
"257",24,17,1,1,"intuitive",3,1,NA,NA
"258",24,18,1,1,"intuitive",4,1,NA,NA
"259",24,19,1,1,"intuitive",4,1,NA,NA
"260",24,20,1,1,"intuitive",5,1,NA,NA
"261",25,1,1,1,"intuitive",4,0,NA,NA
"262",25,2,1,1,"intuitive",4,0,NA,NA
"263",25,3,1,1,"intuitive",4,0,NA,NA
"264",25,4,1,1,"intuitive",4,0,NA,NA
"265",25,5,1,1,"intuitive",2,0,NA,NA
"266",25,6,1,1,"intuitive",4,0,NA,NA
"267",25,7,1,1,"intuitive",4,0,NA,NA
"268",25,8,1,1,"intuitive",3,0,NA,NA
"269",25,9,1,1,"intuitive",3,0,NA,NA
"270",25,10,1,1,"intuitive",3,0,NA,NA
"271",25,21,1,1,"intuitive",4,1,NA,NA
"272",25,22,1,1,"intuitive",3,1,NA,NA
"273",25,23,1,1,"intuitive",3,1,NA,NA
"274",25,24,1,1,"intuitive",3,1,NA,NA
"275",25,25,1,1,"intuitive",3,1,NA,NA
"276",25,26,1,1,"intuitive",3,1,NA,NA
"277",25,27,1,1,"intuitive",4,1,NA,NA
"278",25,28,1,1,"intuitive",3,1,NA,NA
"279",25,29,1,1,"intuitive",3,1,NA,NA
"280",25,30,1,1,"intuitive",4,1,NA,NA
"281",27,21,1,1,"intuitive",4,0,NA,NA
"282",27,22,1,1,"intuitive",3,0,NA,NA
"283",27,23,1,1,"intuitive",3,0,NA,NA
"284",27,24,1,1,"intuitive",3,0,NA,NA
"285",27,25,1,1,"intuitive",3,0,NA,NA
"286",27,26,1,1,"intuitive",3,0,NA,NA
"287",27,27,1,1,"intuitive",3,0,NA,NA
"288",27,28,1,1,"intuitive",1,0,NA,NA
"289",27,29,1,1,"intuitive",1,0,NA,NA
"290",27,30,1,1,"intuitive",1,0,NA,NA
"291",27,11,1,1,"intuitive",3,1,NA,NA
"292",27,12,1,1,"intuitive",4,1,NA,NA
"293",27,13,1,1,"intuitive",3,1,NA,NA
"294",27,14,1,1,"intuitive",2,1,NA,NA
"295",27,15,1,1,"intuitive",1,1,NA,NA
"296",27,16,1,1,"intuitive",1,1,NA,NA
"297",27,17,1,1,"intuitive",2,1,NA,NA
"298",27,18,1,1,"intuitive",1,1,NA,NA
"299",27,19,1,1,"intuitive",3,1,NA,NA
"300",27,20,1,1,"intuitive",5,1,NA,NA
"301",28,21,1,1,"deliberative",1,1,NA,NA
"302",28,22,1,1,"deliberative",3,1,NA,NA
"303",28,23,1,1,"deliberative",4,1,NA,NA
"304",28,24,1,1,"deliberative",2,1,NA,NA
"305",28,25,1,1,"deliberative",1,1,NA,NA
"306",28,26,1,1,"deliberative",3,1,NA,NA
"307",28,27,1,1,"deliberative",1,1,NA,NA
"308",28,28,1,1,"deliberative",1,1,NA,NA
"309",28,29,1,1,"deliberative",2,1,NA,NA
"310",28,30,1,1,"deliberative",1,1,NA,NA
"311",28,11,1,1,"deliberative",3,0,NA,NA
"312",28,12,1,1,"deliberative",4,0,NA,NA
"313",28,13,1,1,"deliberative",1,0,NA,NA
"314",28,14,1,1,"deliberative",2,0,NA,NA
"315",28,15,1,1,"deliberative",2,0,NA,NA
"316",28,16,1,1,"deliberative",3,0,NA,NA
"317",28,17,1,1,"deliberative",2,0,NA,NA
"318",28,18,1,1,"deliberative",2,0,NA,NA
"319",28,19,1,1,"deliberative",3,0,NA,NA
"320",28,20,1,1,"deliberative",3,0,NA,NA
"321",29,1,1,1,"deliberative",3,1,NA,NA
"322",29,2,1,1,"deliberative",5,1,NA,NA
"323",29,3,1,1,"deliberative",2,1,NA,NA
"324",29,4,1,1,"deliberative",4,1,NA,NA
"325",29,5,1,1,"deliberative",4,1,NA,NA
"326",29,6,1,1,"deliberative",5,1,NA,NA
"327",29,7,1,1,"deliberative",3,1,NA,NA
"328",29,8,1,1,"deliberative",2,1,NA,NA
"329",29,9,1,1,"deliberative",4,1,NA,NA
"330",29,10,1,1,"deliberative",2,1,NA,NA
"331",29,21,1,1,"deliberative",3,0,NA,NA
"332",29,22,1,1,"deliberative",3,0,NA,NA
"333",29,23,1,1,"deliberative",2,0,NA,NA
"334",29,24,1,1,"deliberative",2,0,NA,NA
"335",29,25,1,1,"deliberative",3,0,NA,NA
"336",29,26,1,1,"deliberative",5,0,NA,NA
"337",29,27,1,1,"deliberative",3,0,NA,NA
"338",29,28,1,1,"deliberative",3,0,NA,NA
"339",29,29,1,1,"deliberative",5,0,NA,NA
"340",29,30,1,1,"deliberative",3,0,NA,NA
"341",30,21,1,1,"intuitive",4,0,NA,NA
"342",30,22,1,1,"intuitive",3,0,NA,NA
"343",30,23,1,1,"intuitive",4,0,NA,NA
"344",30,24,1,1,"intuitive",5,0,NA,NA
"345",30,25,1,1,"intuitive",4,0,NA,NA
"346",30,26,1,1,"intuitive",4,0,NA,NA
"347",30,27,1,1,"intuitive",3,0,NA,NA
"348",30,28,1,1,"intuitive",3,0,NA,NA
"349",30,29,1,1,"intuitive",2,0,NA,NA
"350",30,30,1,1,"intuitive",3,0,NA,NA
"351",30,11,1,1,"intuitive",4,1,NA,NA
"352",30,12,1,1,"intuitive",5,1,NA,NA
"353",30,13,1,1,"intuitive",5,1,NA,NA
"354",30,14,1,1,"intuitive",5,1,NA,NA
"355",30,15,1,1,"intuitive",5,1,NA,NA
"356",30,16,1,1,"intuitive",4,1,NA,NA
"357",30,17,1,1,"intuitive",5,1,NA,NA
"358",30,18,1,1,"intuitive",5,1,NA,NA
"359",30,19,1,1,"intuitive",4,1,NA,NA
"360",30,20,1,1,"intuitive",5,1,NA,NA
"361",32,1,1,1,"intuitive",5,0,NA,NA
"362",32,2,1,1,"intuitive",4,0,NA,NA
"363",32,3,1,1,"intuitive",4,0,NA,NA
"364",32,4,1,1,"intuitive",3,0,NA,NA
"365",32,5,1,1,"intuitive",4,0,NA,NA
"366",32,6,1,1,"intuitive",5,0,NA,NA
"367",32,7,1,1,"intuitive",4,0,NA,NA
"368",32,8,1,1,"intuitive",5,0,NA,NA
"369",32,9,1,1,"intuitive",3,0,NA,NA
"370",32,10,1,1,"intuitive",3,0,NA,NA
"371",32,11,1,1,"intuitive",5,1,NA,NA
"372",32,12,1,1,"intuitive",5,1,NA,NA
"373",32,13,1,1,"intuitive",5,1,NA,NA
"374",32,14,1,1,"intuitive",5,1,NA,NA
"375",32,15,1,1,"intuitive",5,1,NA,NA
"376",32,16,1,1,"intuitive",4,1,NA,NA
"377",32,17,1,1,"intuitive",5,1,NA,NA
"378",32,18,1,1,"intuitive",4,1,NA,NA
"379",32,19,1,1,"intuitive",5,1,NA,NA
"380",32,20,1,1,"intuitive",5,1,NA,NA
"381",33,1,1,1,"deliberative",4,0,NA,NA
"382",33,2,1,1,"deliberative",5,0,NA,NA
"383",33,3,1,1,"deliberative",2,0,NA,NA
"384",33,4,1,1,"deliberative",2,0,NA,NA
"385",33,5,1,1,"deliberative",2,0,NA,NA
"386",33,6,1,1,"deliberative",4,0,NA,NA
"387",33,7,1,1,"deliberative",4,0,NA,NA
"388",33,8,1,1,"deliberative",3,0,NA,NA
"389",33,9,1,1,"deliberative",5,0,NA,NA
"390",33,10,1,1,"deliberative",2,0,NA,NA
"391",33,11,1,1,"deliberative",3,1,NA,NA
"392",33,12,1,1,"deliberative",3,1,NA,NA
"393",33,13,1,1,"deliberative",5,1,NA,NA
"394",33,14,1,1,"deliberative",3,1,NA,NA
"395",33,15,1,1,"deliberative",3,1,NA,NA
"396",33,16,1,1,"deliberative",4,1,NA,NA
"397",33,17,1,1,"deliberative",3,1,NA,NA
"398",33,18,1,1,"deliberative",5,1,NA,NA
"399",33,19,1,1,"deliberative",5,1,NA,NA
"400",33,20,1,1,"deliberative",4,1,NA,NA
"401",34,1,1,1,"intuitive",4,1,NA,NA
"402",34,2,1,1,"intuitive",2,1,NA,NA
"403",34,3,1,1,"intuitive",3,1,NA,NA
"404",34,4,1,1,"intuitive",4,1,NA,NA
"405",34,5,1,1,"intuitive",2,1,NA,NA
"406",34,6,1,1,"intuitive",4,1,NA,NA
"407",34,7,1,1,"intuitive",4,1,NA,NA
"408",34,8,1,1,"intuitive",2,1,NA,NA
"409",34,9,1,1,"intuitive",4,1,NA,NA
"410",34,10,1,1,"intuitive",4,1,NA,NA
"411",34,21,1,1,"intuitive",1,0,NA,NA
"412",34,22,1,1,"intuitive",2,0,NA,NA
"413",34,23,1,1,"intuitive",4,0,NA,NA
"414",34,24,1,1,"intuitive",1,0,NA,NA
"415",34,25,1,1,"intuitive",2,0,NA,NA
"416",34,26,1,1,"intuitive",5,0,NA,NA
"417",34,27,1,1,"intuitive",4,0,NA,NA
"418",34,28,1,1,"intuitive",4,0,NA,NA
"419",34,29,1,1,"intuitive",3,0,NA,NA
"420",34,30,1,1,"intuitive",4,0,NA,NA
"421",35,21,1,1,"deliberative",4,0,NA,NA
"422",35,22,1,1,"deliberative",3,0,NA,NA
"423",35,23,1,1,"deliberative",4,0,NA,NA
"424",35,24,1,1,"deliberative",4,0,NA,NA
"425",35,25,1,1,"deliberative",2,0,NA,NA
"426",35,26,1,1,"deliberative",3,0,NA,NA
"427",35,27,1,1,"deliberative",2,0,NA,NA
"428",35,28,1,1,"deliberative",3,0,NA,NA
"429",35,29,1,1,"deliberative",3,0,NA,NA
"430",35,30,1,1,"deliberative",3,0,NA,NA
"431",35,11,1,1,"deliberative",3,1,NA,NA
"432",35,12,1,1,"deliberative",4,1,NA,NA
"433",35,13,1,1,"deliberative",3,1,NA,NA
"434",35,14,1,1,"deliberative",3,1,NA,NA
"435",35,15,1,1,"deliberative",3,1,NA,NA
"436",35,16,1,1,"deliberative",4,1,NA,NA
"437",35,17,1,1,"deliberative",3,1,NA,NA
"438",35,18,1,1,"deliberative",3,1,NA,NA
"439",35,19,1,1,"deliberative",1,1,NA,NA
"440",35,20,1,1,"deliberative",5,1,NA,NA
"441",37,1,1,1,"deliberative",5,1,NA,NA
"442",37,2,1,1,"deliberative",2,1,NA,NA
"443",37,3,1,1,"deliberative",4,1,NA,NA
"444",37,4,1,1,"deliberative",4,1,NA,NA
"445",37,5,1,1,"deliberative",5,1,NA,NA
"446",37,6,1,1,"deliberative",3,1,NA,NA
"447",37,7,1,1,"deliberative",1,1,NA,NA
"448",37,8,1,1,"deliberative",3,1,NA,NA
"449",37,9,1,1,"deliberative",3,1,NA,NA
"450",37,10,1,1,"deliberative",3,1,NA,NA
"451",37,21,1,1,"deliberative",3,0,NA,NA
"452",37,22,1,1,"deliberative",3,0,NA,NA
"453",37,23,1,1,"deliberative",4,0,NA,NA
"454",37,24,1,1,"deliberative",3,0,NA,NA
"455",37,25,1,1,"deliberative",3,0,NA,NA
"456",37,26,1,1,"deliberative",3,0,NA,NA
"457",37,27,1,1,"deliberative",2,0,NA,NA
"458",37,28,1,1,"deliberative",3,0,NA,NA
"459",37,29,1,1,"deliberative",3,0,NA,NA
"460",37,30,1,1,"deliberative",1,0,NA,NA
"461",38,1,1,1,"deliberative",5,0,NA,NA
"462",38,2,1,1,"deliberative",1,0,NA,NA
"463",38,3,1,1,"deliberative",2,0,NA,NA
"464",38,4,1,1,"deliberative",2,0,NA,NA
"465",38,5,1,1,"deliberative",1,0,NA,NA
"466",38,6,1,1,"deliberative",3,0,NA,NA
"467",38,7,1,1,"deliberative",1,0,NA,NA
"468",38,8,1,1,"deliberative",2,0,NA,NA
"469",38,9,1,1,"deliberative",1,0,NA,NA
"470",38,10,1,1,"deliberative",4,0,NA,NA
"471",38,11,1,1,"deliberative",1,1,NA,NA
"472",38,12,1,1,"deliberative",5,1,NA,NA
"473",38,13,1,1,"deliberative",3,1,NA,NA
"474",38,14,1,1,"deliberative",3,1,NA,NA
"475",38,15,1,1,"deliberative",1,1,NA,NA
"476",38,16,1,1,"deliberative",1,1,NA,NA
"477",38,17,1,1,"deliberative",3,1,NA,NA
"478",38,18,1,1,"deliberative",3,1,NA,NA
"479",38,19,1,1,"deliberative",1,1,NA,NA
"480",38,20,1,1,"deliberative",5,1,NA,NA
"481",39,1,1,1,"intuitive",3,0,NA,NA
"482",39,2,1,1,"intuitive",3,0,NA,NA
"483",39,3,1,1,"intuitive",3,0,NA,NA
"484",39,4,1,1,"intuitive",2,0,NA,NA
"485",39,5,1,1,"intuitive",2,0,NA,NA
"486",39,6,1,1,"intuitive",3,0,NA,NA
"487",39,7,1,1,"intuitive",4,0,NA,NA
"488",39,8,1,1,"intuitive",4,0,NA,NA
"489",39,9,1,1,"intuitive",2,0,NA,NA
"490",39,10,1,1,"intuitive",3,0,NA,NA
"491",39,21,1,1,"intuitive",2,1,NA,NA
"492",39,22,1,1,"intuitive",3,1,NA,NA
"493",39,23,1,1,"intuitive",3,1,NA,NA
"494",39,24,1,1,"intuitive",3,1,NA,NA
"495",39,25,1,1,"intuitive",5,1,NA,NA
"496",39,26,1,1,"intuitive",3,1,NA,NA
"497",39,27,1,1,"intuitive",4,1,NA,NA
"498",39,28,1,1,"intuitive",3,1,NA,NA
"499",39,29,1,1,"intuitive",3,1,NA,NA
"500",39,30,1,1,"intuitive",5,1,NA,NA
"501",41,21,1,1,"intuitive",5,1,NA,NA
"502",41,22,1,1,"intuitive",5,1,NA,NA
"503",41,23,1,1,"intuitive",4,1,NA,NA
"504",41,24,1,1,"intuitive",4,1,NA,NA
"505",41,25,1,1,"intuitive",3,1,NA,NA
"506",41,26,1,1,"intuitive",4,1,NA,NA
"507",41,27,1,1,"intuitive",3,1,NA,NA
"508",41,28,1,1,"intuitive",5,1,NA,NA
"509",41,29,1,1,"intuitive",4,1,NA,NA
"510",41,30,1,1,"intuitive",4,1,NA,NA
"511",41,11,1,1,"intuitive",3,0,NA,NA
"512",41,12,1,1,"intuitive",2,0,NA,NA
"513",41,13,1,1,"intuitive",3,0,NA,NA
"514",41,14,1,1,"intuitive",4,0,NA,NA
"515",41,15,1,1,"intuitive",3,0,NA,NA
"516",41,16,1,1,"intuitive",1,0,NA,NA
"517",41,17,1,1,"intuitive",3,0,NA,NA
"518",41,18,1,1,"intuitive",3,0,NA,NA
"519",41,19,1,1,"intuitive",3,0,NA,NA
"520",41,20,1,1,"intuitive",3,0,NA,NA
"521",48,1,1,1,"deliberative",4,1,NA,NA
"522",48,2,1,1,"deliberative",5,1,NA,NA
"523",48,3,1,1,"deliberative",4,1,NA,NA
"524",48,4,1,1,"deliberative",4,1,NA,NA
"525",48,5,1,1,"deliberative",5,1,NA,NA
"526",48,6,1,1,"deliberative",3,1,NA,NA
"527",48,7,1,1,"deliberative",5,1,NA,NA
"528",48,8,1,1,"deliberative",3,1,NA,NA
"529",48,9,1,1,"deliberative",5,1,NA,NA
"530",48,10,1,1,"deliberative",4,1,NA,NA
"531",48,11,1,1,"deliberative",3,0,NA,NA
"532",48,12,1,1,"deliberative",4,0,NA,NA
"533",48,13,1,1,"deliberative",3,0,NA,NA
"534",48,14,1,1,"deliberative",3,0,NA,NA
"535",48,15,1,1,"deliberative",3,0,NA,NA
"536",48,16,1,1,"deliberative",4,0,NA,NA
"537",48,17,1,1,"deliberative",3,0,NA,NA
"538",48,18,1,1,"deliberative",3,0,NA,NA
"539",48,19,1,1,"deliberative",4,0,NA,NA
"540",48,20,1,1,"deliberative",3,0,NA,NA
"541",49,21,1,1,"deliberative",4,0,NA,NA
"542",49,22,1,1,"deliberative",3,0,NA,NA
"543",49,23,1,1,"deliberative",3,0,NA,NA
"544",49,24,1,1,"deliberative",3,0,NA,NA
"545",49,25,1,1,"deliberative",1,0,NA,NA
"546",49,26,1,1,"deliberative",3,0,NA,NA
"547",49,27,1,1,"deliberative",2,0,NA,NA
"548",49,28,1,1,"deliberative",3,0,NA,NA
"549",49,29,1,1,"deliberative",3,0,NA,NA
"550",49,30,1,1,"deliberative",1,0,NA,NA
"551",49,11,1,1,"deliberative",4,1,NA,NA
"552",49,12,1,1,"deliberative",4,1,NA,NA
"553",49,13,1,1,"deliberative",4,1,NA,NA
"554",49,14,1,1,"deliberative",4,1,NA,NA
"555",49,15,1,1,"deliberative",4,1,NA,NA
"556",49,16,1,1,"deliberative",3,1,NA,NA
"557",49,17,1,1,"deliberative",4,1,NA,NA
"558",49,18,1,1,"deliberative",4,1,NA,NA
"559",49,19,1,1,"deliberative",3,1,NA,NA
"560",49,20,1,1,"deliberative",5,1,NA,NA
"561",52,1,1,1,"intuitive",3,1,NA,NA
"562",52,2,1,1,"intuitive",3,1,NA,NA
"563",52,3,1,1,"intuitive",3,1,NA,NA
"564",52,4,1,1,"intuitive",3,1,NA,NA
"565",52,5,1,1,"intuitive",1,1,NA,NA
"566",52,6,1,1,"intuitive",3,1,NA,NA
"567",52,7,1,1,"intuitive",1,1,NA,NA
"568",52,8,1,1,"intuitive",3,1,NA,NA
"569",52,9,1,1,"intuitive",1,1,NA,NA
"570",52,10,1,1,"intuitive",3,1,NA,NA
"571",52,21,1,1,"intuitive",3,0,NA,NA
"572",52,22,1,1,"intuitive",3,0,NA,NA
"573",52,23,1,1,"intuitive",3,0,NA,NA
"574",52,24,1,1,"intuitive",1,0,NA,NA
"575",52,25,1,1,"intuitive",3,0,NA,NA
"576",52,26,1,1,"intuitive",3,0,NA,NA
"577",52,27,1,1,"intuitive",3,0,NA,NA
"578",52,28,1,1,"intuitive",3,0,NA,NA
"579",52,29,1,1,"intuitive",3,0,NA,NA
"580",52,30,1,1,"intuitive",1,0,NA,NA
"581",53,1,1,1,"deliberative",3,0,NA,NA
"582",53,2,1,1,"deliberative",2,0,NA,NA
"583",53,3,1,1,"deliberative",4,0,NA,NA
"584",53,4,1,1,"deliberative",3,0,NA,NA
"585",53,5,1,1,"deliberative",3,0,NA,NA
"586",53,6,1,1,"deliberative",3,0,NA,NA
"587",53,7,1,1,"deliberative",3,0,NA,NA
"588",53,8,1,1,"deliberative",3,0,NA,NA
"589",53,9,1,1,"deliberative",3,0,NA,NA
"590",53,10,1,1,"deliberative",5,0,NA,NA
"591",53,21,1,1,"deliberative",5,1,NA,NA
"592",53,22,1,1,"deliberative",5,1,NA,NA
"593",53,23,1,1,"deliberative",5,1,NA,NA
"594",53,24,1,1,"deliberative",5,1,NA,NA
"595",53,25,1,1,"deliberative",5,1,NA,NA
"596",53,26,1,1,"deliberative",5,1,NA,NA
"597",53,27,1,1,"deliberative",5,1,NA,NA
"598",53,28,1,1,"deliberative",5,1,NA,NA
"599",53,29,1,1,"deliberative",5,1,NA,NA
"600",53,30,1,1,"deliberative",5,1,NA,NA
"601",55,21,1,1,"intuitive",3,1,NA,NA
"602",55,22,1,1,"intuitive",3,1,NA,NA
"603",55,23,1,1,"intuitive",3,1,NA,NA
"604",55,24,1,1,"intuitive",3,1,NA,NA
"605",55,25,1,1,"intuitive",5,1,NA,NA
"606",55,26,1,1,"intuitive",3,1,NA,NA
"607",55,27,1,1,"intuitive",3,1,NA,NA
"608",55,28,1,1,"intuitive",1,1,NA,NA
"609",55,29,1,1,"intuitive",3,1,NA,NA
"610",55,30,1,1,"intuitive",3,1,NA,NA
"611",55,11,1,1,"intuitive",3,0,NA,NA
"612",55,12,1,1,"intuitive",3,0,NA,NA
"613",55,13,1,1,"intuitive",5,0,NA,NA
"614",55,14,1,1,"intuitive",3,0,NA,NA
"615",55,15,1,1,"intuitive",3,0,NA,NA
"616",55,16,1,1,"intuitive",3,0,NA,NA
"617",55,17,1,1,"intuitive",3,0,NA,NA
"618",55,18,1,1,"intuitive",3,0,NA,NA
"619",55,19,1,1,"intuitive",1,0,NA,NA
"620",55,20,1,1,"intuitive",3,0,NA,NA
"621",56,1,1,1,"deliberative",4,0,NA,NA
"622",56,2,1,1,"deliberative",5,0,NA,NA
"623",56,3,1,1,"deliberative",4,0,NA,NA
"624",56,4,1,1,"deliberative",4,0,NA,NA
"625",56,5,1,1,"deliberative",3,0,NA,NA
"626",56,6,1,1,"deliberative",3,0,NA,NA
"627",56,7,1,1,"deliberative",2,0,NA,NA
"628",56,8,1,1,"deliberative",4,0,NA,NA
"629",56,9,1,1,"deliberative",3,0,NA,NA
"630",56,10,1,1,"deliberative",3,0,NA,NA
"631",56,11,1,1,"deliberative",5,1,NA,NA
"632",56,12,1,1,"deliberative",5,1,NA,NA
"633",56,13,1,1,"deliberative",5,1,NA,NA
"634",56,14,1,1,"deliberative",5,1,NA,NA
"635",56,15,1,1,"deliberative",5,1,NA,NA
"636",56,16,1,1,"deliberative",5,1,NA,NA
"637",56,17,1,1,"deliberative",5,1,NA,NA
"638",56,18,1,1,"deliberative",5,1,NA,NA
"639",56,19,1,1,"deliberative",5,1,NA,NA
"640",56,20,1,1,"deliberative",5,1,NA,NA
"641",59,1,1,1,"intuitive",5,0,NA,NA
"642",59,2,1,1,"intuitive",1,0,NA,NA
"643",59,3,1,1,"intuitive",5,0,NA,NA
"644",59,4,1,1,"intuitive",1,0,NA,NA
"645",59,5,1,1,"intuitive",1,0,NA,NA
"646",59,6,1,1,"intuitive",5,0,NA,NA
"647",59,7,1,1,"intuitive",1,0,NA,NA
"648",59,8,1,1,"intuitive",1,0,NA,NA
"649",59,9,1,1,"intuitive",5,0,NA,NA
"650",59,10,1,1,"intuitive",1,0,NA,NA
"651",59,21,1,1,"intuitive",5,1,NA,NA
"652",59,22,1,1,"intuitive",1,1,NA,NA
"653",59,23,1,1,"intuitive",5,1,NA,NA
"654",59,24,1,1,"intuitive",5,1,NA,NA
"655",59,25,1,1,"intuitive",1,1,NA,NA
"656",59,26,1,1,"intuitive",5,1,NA,NA
"657",59,27,1,1,"intuitive",1,1,NA,NA
"658",59,28,1,1,"intuitive",5,1,NA,NA
"659",59,29,1,1,"intuitive",5,1,NA,NA
"660",59,30,1,1,"intuitive",1,1,NA,NA
"661",60,21,1,1,"deliberative",4,1,NA,NA
"662",60,22,1,1,"deliberative",4,1,NA,NA
"663",60,23,1,1,"deliberative",4,1,NA,NA
"664",60,24,1,1,"deliberative",5,1,NA,NA
"665",60,25,1,1,"deliberative",4,1,NA,NA
"666",60,26,1,1,"deliberative",5,1,NA,NA
"667",60,27,1,1,"deliberative",5,1,NA,NA
"668",60,28,1,1,"deliberative",5,1,NA,NA
"669",60,29,1,1,"deliberative",4,1,NA,NA
"670",60,30,1,1,"deliberative",5,1,NA,NA
"671",60,11,1,1,"deliberative",3,0,NA,NA
"672",60,12,1,1,"deliberative",3,0,NA,NA
"673",60,13,1,1,"deliberative",2,0,NA,NA
"674",60,14,1,1,"deliberative",3,0,NA,NA
"675",60,15,1,1,"deliberative",4,0,NA,NA
"676",60,16,1,1,"deliberative",3,0,NA,NA
"677",60,17,1,1,"deliberative",3,0,NA,NA
"678",60,18,1,1,"deliberative",2,0,NA,NA
"679",60,19,1,1,"deliberative",3,0,NA,NA
"680",60,20,1,1,"deliberative",2,0,NA,NA
"681",61,1,1,1,"intuitive",4,0,NA,NA
"682",61,2,1,1,"intuitive",3,0,NA,NA
"683",61,3,1,1,"intuitive",2,0,NA,NA
"684",61,4,1,1,"intuitive",3,0,NA,NA
"685",61,5,1,1,"intuitive",2,0,NA,NA
"686",61,6,1,1,"intuitive",3,0,NA,NA
"687",61,7,1,1,"intuitive",3,0,NA,NA
"688",61,8,1,1,"intuitive",3,0,NA,NA
"689",61,9,1,1,"intuitive",3,0,NA,NA
"690",61,10,1,1,"intuitive",3,0,NA,NA
"691",61,11,1,1,"intuitive",3,1,NA,NA
"692",61,12,1,1,"intuitive",3,1,NA,NA
"693",61,13,1,1,"intuitive",3,1,NA,NA
"694",61,14,1,1,"intuitive",3,1,NA,NA
"695",61,15,1,1,"intuitive",3,1,NA,NA
"696",61,16,1,1,"intuitive",3,1,NA,NA
"697",61,17,1,1,"intuitive",3,1,NA,NA
"698",61,18,1,1,"intuitive",3,1,NA,NA
"699",61,19,1,1,"intuitive",3,1,NA,NA
"700",61,20,1,1,"intuitive",3,1,NA,NA
"701",63,1,1,1,"intuitive",5,1,NA,NA
"702",63,2,1,1,"intuitive",5,1,NA,NA
"703",63,3,1,1,"intuitive",5,1,NA,NA
"704",63,4,1,1,"intuitive",5,1,NA,NA
"705",63,5,1,1,"intuitive",5,1,NA,NA
"706",63,6,1,1,"intuitive",5,1,NA,NA
"707",63,7,1,1,"intuitive",5,1,NA,NA
"708",63,8,1,1,"intuitive",5,1,NA,NA
"709",63,9,1,1,"intuitive",5,1,NA,NA
"710",63,10,1,1,"intuitive",5,1,NA,NA
"711",63,21,1,1,"intuitive",1,0,NA,NA
"712",63,22,1,1,"intuitive",1,0,NA,NA
"713",63,23,1,1,"intuitive",5,0,NA,NA
"714",63,24,1,1,"intuitive",3,0,NA,NA
"715",63,25,1,1,"intuitive",1,0,NA,NA
"716",63,26,1,1,"intuitive",4,0,NA,NA
"717",63,27,1,1,"intuitive",4,0,NA,NA
"718",63,28,1,1,"intuitive",2,0,NA,NA
"719",63,29,1,1,"intuitive",2,0,NA,NA
"720",63,30,1,1,"intuitive",3,0,NA,NA
"721",1010,1,1,1,"deliberative",3,1,NA,NA
"722",1010,2,1,1,"deliberative",3,1,NA,NA
"723",1010,3,1,1,"deliberative",4,1,NA,NA
"724",1010,4,1,1,"deliberative",2,1,NA,NA
"725",1010,5,1,1,"deliberative",3,1,NA,NA
"726",1010,6,1,1,"deliberative",3,1,NA,NA
"727",1010,7,1,1,"deliberative",4,1,NA,NA
"728",1010,8,1,1,"deliberative",3,1,NA,NA
"729",1010,9,1,1,"deliberative",3,1,NA,NA
"730",1010,10,1,1,"deliberative",3,1,NA,NA
"731",1010,21,1,1,"deliberative",4,0,NA,NA
"732",1010,22,1,1,"deliberative",3,0,NA,NA
"733",1010,23,1,1,"deliberative",4,0,NA,NA
"734",1010,24,1,1,"deliberative",2,0,NA,NA
"735",1010,25,1,1,"deliberative",3,0,NA,NA
"736",1010,26,1,1,"deliberative",3,0,NA,NA
"737",1010,27,1,1,"deliberative",2,0,NA,NA
"738",1010,28,1,1,"deliberative",3,0,NA,NA
"739",1010,29,1,1,"deliberative",2,0,NA,NA
"740",1010,30,1,1,"deliberative",2,0,NA,NA
"741",1011,21,1,1,"intuitive",3,0,NA,NA
"742",1011,22,1,1,"intuitive",2,0,NA,NA
"743",1011,23,1,1,"intuitive",2,0,NA,NA
"744",1011,24,1,1,"intuitive",1,0,NA,NA
"745",1011,25,1,1,"intuitive",3,0,NA,NA
"746",1011,26,1,1,"intuitive",4,0,NA,NA
"747",1011,27,1,1,"intuitive",2,0,NA,NA
"748",1011,28,1,1,"intuitive",4,0,NA,NA
"749",1011,29,1,1,"intuitive",4,0,NA,NA
"750",1011,30,1,1,"intuitive",2,0,NA,NA
"751",1011,11,1,1,"intuitive",5,1,NA,NA
"752",1011,12,1,1,"intuitive",2,1,NA,NA
"753",1011,13,1,1,"intuitive",5,1,NA,NA
"754",1011,14,1,1,"intuitive",4,1,NA,NA
"755",1011,15,1,1,"intuitive",2,1,NA,NA
"756",1011,16,1,1,"intuitive",1,1,NA,NA
"757",1011,17,1,1,"intuitive",4,1,NA,NA
"758",1011,18,1,1,"intuitive",2,1,NA,NA
"759",1011,19,1,1,"intuitive",2,1,NA,NA
"760",1011,20,1,1,"intuitive",4,1,NA,NA
"761",1012,21,1,1,"intuitive",4,1,NA,NA
"762",1012,22,1,1,"intuitive",4,1,NA,NA
"763",1012,23,1,1,"intuitive",4,1,NA,NA
"764",1012,24,1,1,"intuitive",3,1,NA,NA
"765",1012,25,1,1,"intuitive",4,1,NA,NA
"766",1012,26,1,1,"intuitive",4,1,NA,NA
"767",1012,27,1,1,"intuitive",4,1,NA,NA
"768",1012,28,1,1,"intuitive",4,1,NA,NA
"769",1012,29,1,1,"intuitive",4,1,NA,NA
"770",1012,30,1,1,"intuitive",4,1,NA,NA
"771",1012,11,1,1,"intuitive",1,0,NA,NA
"772",1012,12,1,1,"intuitive",3,0,NA,NA
"773",1012,13,1,1,"intuitive",3,0,NA,NA
"774",1012,14,1,1,"intuitive",3,0,NA,NA
"775",1012,15,1,1,"intuitive",3,0,NA,NA
"776",1012,16,1,1,"intuitive",3,0,NA,NA
"777",1012,17,1,1,"intuitive",3,0,NA,NA
"778",1012,18,1,1,"intuitive",3,0,NA,NA
"779",1012,19,1,1,"intuitive",2,0,NA,NA
"780",1012,20,1,1,"intuitive",3,0,NA,NA
"781",1015,1,1,1,"deliberative",4,1,NA,NA
"782",1015,2,1,1,"deliberative",3,1,NA,NA
"783",1015,3,1,1,"deliberative",2,1,NA,NA
"784",1015,4,1,1,"deliberative",3,1,NA,NA
"785",1015,5,1,1,"deliberative",3,1,NA,NA
"786",1015,6,1,1,"deliberative",4,1,NA,NA
"787",1015,7,1,1,"deliberative",4,1,NA,NA
"788",1015,8,1,1,"deliberative",4,1,NA,NA
"789",1015,9,1,1,"deliberative",3,1,NA,NA
"790",1015,10,1,1,"deliberative",3,1,NA,NA
"791",1015,11,1,1,"deliberative",1,0,NA,NA
"792",1015,12,1,1,"deliberative",2,0,NA,NA
"793",1015,13,1,1,"deliberative",3,0,NA,NA
"794",1015,14,1,1,"deliberative",3,0,NA,NA
"795",1015,15,1,1,"deliberative",3,0,NA,NA
"796",1015,16,1,1,"deliberative",3,0,NA,NA
"797",1015,17,1,1,"deliberative",3,0,NA,NA
"798",1015,18,1,1,"deliberative",2,0,NA,NA
"799",1015,19,1,1,"deliberative",1,0,NA,NA
"800",1015,20,1,1,"deliberative",2,0,NA,NA
"801",1016,1,1,1,"intuitive",3,0,NA,NA
"802",1016,2,1,1,"intuitive",5,0,NA,NA
"803",1016,3,1,1,"intuitive",3,0,NA,NA
"804",1016,4,1,1,"intuitive",4,0,NA,NA
"805",1016,5,1,1,"intuitive",1,0,NA,NA
"806",1016,6,1,1,"intuitive",4,0,NA,NA
"807",1016,7,1,1,"intuitive",5,0,NA,NA
"808",1016,8,1,1,"intuitive",4,0,NA,NA
"809",1016,9,1,1,"intuitive",1,0,NA,NA
"810",1016,10,1,1,"intuitive",3,0,NA,NA
"811",1016,11,1,1,"intuitive",5,1,NA,NA
"812",1016,12,1,1,"intuitive",3,1,NA,NA
"813",1016,13,1,1,"intuitive",5,1,NA,NA
"814",1016,14,1,1,"intuitive",4,1,NA,NA
"815",1016,15,1,1,"intuitive",4,1,NA,NA
"816",1016,16,1,1,"intuitive",4,1,NA,NA
"817",1016,17,1,1,"intuitive",4,1,NA,NA
"818",1016,18,1,1,"intuitive",4,1,NA,NA
"819",1016,19,1,1,"intuitive",4,1,NA,NA
"820",1016,20,1,1,"intuitive",5,1,NA,NA
"821",1017,1,1,1,"intuitive",5,1,NA,NA
"822",1017,2,1,1,"intuitive",4,1,NA,NA
"823",1017,3,1,1,"intuitive",4,1,NA,NA
"824",1017,4,1,1,"intuitive",5,1,NA,NA
"825",1017,5,1,1,"intuitive",1,1,NA,NA
"826",1017,6,1,1,"intuitive",3,1,NA,NA
"827",1017,7,1,1,"intuitive",2,1,NA,NA
"828",1017,8,1,1,"intuitive",4,1,NA,NA
"829",1017,9,1,1,"intuitive",1,1,NA,NA
"830",1017,10,1,1,"intuitive",3,1,NA,NA
"831",1017,11,1,1,"intuitive",4,0,NA,NA
"832",1017,12,1,1,"intuitive",2,0,NA,NA
"833",1017,13,1,1,"intuitive",5,0,NA,NA
"834",1017,14,1,1,"intuitive",1,0,NA,NA
"835",1017,15,1,1,"intuitive",4,0,NA,NA
"836",1017,16,1,1,"intuitive",3,0,NA,NA
"837",1017,17,1,1,"intuitive",2,0,NA,NA
"838",1017,18,1,1,"intuitive",2,0,NA,NA
"839",1017,19,1,1,"intuitive",1,0,NA,NA
"840",1017,20,1,1,"intuitive",5,0,NA,NA
"841",1018,1,1,1,"deliberative",4,0,NA,NA
"842",1018,2,1,1,"deliberative",4,0,NA,NA
"843",1018,3,1,1,"deliberative",4,0,NA,NA
"844",1018,4,1,1,"deliberative",4,0,NA,NA
"845",1018,5,1,1,"deliberative",1,0,NA,NA
"846",1018,6,1,1,"deliberative",4,0,NA,NA
"847",1018,7,1,1,"deliberative",2,0,NA,NA
"848",1018,8,1,1,"deliberative",3,0,NA,NA
"849",1018,9,1,1,"deliberative",3,0,NA,NA
"850",1018,10,1,1,"deliberative",4,0,NA,NA
"851",1018,11,1,1,"deliberative",5,1,NA,NA
"852",1018,12,1,1,"deliberative",5,1,NA,NA
"853",1018,13,1,1,"deliberative",5,1,NA,NA
"854",1018,14,1,1,"deliberative",5,1,NA,NA
"855",1018,15,1,1,"deliberative",5,1,NA,NA
"856",1018,16,1,1,"deliberative",3,1,NA,NA
"857",1018,17,1,1,"deliberative",5,1,NA,NA
"858",1018,18,1,1,"deliberative",5,1,NA,NA
"859",1018,19,1,1,"deliberative",5,1,NA,NA
"860",1018,20,1,1,"deliberative",5,1,NA,NA
"861",1019,21,1,1,"deliberative",4,1,NA,NA
"862",1019,22,1,1,"deliberative",4,1,NA,NA
"863",1019,23,1,1,"deliberative",5,1,NA,NA
"864",1019,24,1,1,"deliberative",5,1,NA,NA
"865",1019,25,1,1,"deliberative",5,1,NA,NA
"866",1019,26,1,1,"deliberative",5,1,NA,NA
"867",1019,27,1,1,"deliberative",5,1,NA,NA
"868",1019,28,1,1,"deliberative",5,1,NA,NA
"869",1019,29,1,1,"deliberative",5,1,NA,NA
"870",1019,30,1,1,"deliberative",5,1,NA,NA
"871",1019,11,1,1,"deliberative",3,0,NA,NA
"872",1019,12,1,1,"deliberative",2,0,NA,NA
"873",1019,13,1,1,"deliberative",3,0,NA,NA
"874",1019,14,1,1,"deliberative",3,0,NA,NA
"875",1019,15,1,1,"deliberative",3,0,NA,NA
"876",1019,16,1,1,"deliberative",2,0,NA,NA
"877",1019,17,1,1,"deliberative",3,0,NA,NA
"878",1019,18,1,1,"deliberative",3,0,NA,NA
"879",1019,19,1,1,"deliberative",4,0,NA,NA
"880",1019,20,1,1,"deliberative",3,0,NA,NA
"881",1021,1,1,1,"intuitive",3,0,NA,NA
"882",1021,2,1,1,"intuitive",4,0,NA,NA
"883",1021,3,1,1,"intuitive",4,0,NA,NA
"884",1021,4,1,1,"intuitive",4,0,NA,NA
"885",1021,5,1,1,"intuitive",2,0,NA,NA
"886",1021,6,1,1,"intuitive",2,0,NA,NA
"887",1021,7,1,1,"intuitive",4,0,NA,NA
"888",1021,8,1,1,"intuitive",2,0,NA,NA
"889",1021,9,1,1,"intuitive",4,0,NA,NA
"890",1021,10,1,1,"intuitive",4,0,NA,NA
"891",1021,21,1,1,"intuitive",4,1,NA,NA
"892",1021,22,1,1,"intuitive",3,1,NA,NA
"893",1021,23,1,1,"intuitive",4,1,NA,NA
"894",1021,24,1,1,"intuitive",3,1,NA,NA
"895",1021,25,1,1,"intuitive",4,1,NA,NA
"896",1021,26,1,1,"intuitive",1,1,NA,NA
"897",1021,27,1,1,"intuitive",5,1,NA,NA
"898",1021,28,1,1,"intuitive",4,1,NA,NA
"899",1021,29,1,1,"intuitive",3,1,NA,NA
"900",1021,30,1,1,"intuitive",1,1,NA,NA
"901",1024,1,1,1,"deliberative",4,0,NA,NA
"902",1024,2,1,1,"deliberative",3,0,NA,NA
"903",1024,3,1,1,"deliberative",3,0,NA,NA
"904",1024,4,1,1,"deliberative",4,0,NA,NA
"905",1024,5,1,1,"deliberative",3,0,NA,NA
"906",1024,6,1,1,"deliberative",3,0,NA,NA
"907",1024,7,1,1,"deliberative",4,0,NA,NA
"908",1024,8,1,1,"deliberative",3,0,NA,NA
"909",1024,9,1,1,"deliberative",1,0,NA,NA
"910",1024,10,1,1,"deliberative",2,0,NA,NA
"911",1024,21,1,1,"deliberative",5,1,NA,NA
"912",1024,22,1,1,"deliberative",5,1,NA,NA
"913",1024,23,1,1,"deliberative",5,1,NA,NA
"914",1024,24,1,1,"deliberative",5,1,NA,NA
"915",1024,25,1,1,"deliberative",3,1,NA,NA
"916",1024,26,1,1,"deliberative",4,1,NA,NA
"917",1024,27,1,1,"deliberative",4,1,NA,NA
"918",1024,28,1,1,"deliberative",1,1,NA,NA
"919",1024,29,1,1,"deliberative",5,1,NA,NA
"920",1024,30,1,1,"deliberative",5,1,NA,NA
"921",1026,21,1,1,"deliberative",3,0,NA,NA
"922",1026,22,1,1,"deliberative",3,0,NA,NA
"923",1026,23,1,1,"deliberative",2,0,NA,NA
"924",1026,24,1,1,"deliberative",1,0,NA,NA
"925",1026,25,1,1,"deliberative",1,0,NA,NA
"926",1026,26,1,1,"deliberative",3,0,NA,NA
"927",1026,27,1,1,"deliberative",2,0,NA,NA
"928",1026,28,1,1,"deliberative",3,0,NA,NA
"929",1026,29,1,1,"deliberative",3,0,NA,NA
"930",1026,30,1,1,"deliberative",2,0,NA,NA
"931",1026,11,1,1,"deliberative",3,1,NA,NA
"932",1026,12,1,1,"deliberative",2,1,NA,NA
"933",1026,13,1,1,"deliberative",3,1,NA,NA
"934",1026,14,1,1,"deliberative",3,1,NA,NA
"935",1026,15,1,1,"deliberative",3,1,NA,NA
"936",1026,16,1,1,"deliberative",3,1,NA,NA
"937",1026,17,1,1,"deliberative",3,1,NA,NA
"938",1026,18,1,1,"deliberative",3,1,NA,NA
"939",1026,19,1,1,"deliberative",3,1,NA,NA
"940",1026,20,1,1,"deliberative",5,1,NA,NA
"941",1027,21,1,1,"intuitive",1,0,NA,NA
"942",1027,22,1,1,"intuitive",3,0,NA,NA
"943",1027,23,1,1,"intuitive",3,0,NA,NA
"944",1027,24,1,1,"intuitive",2,0,NA,NA
"945",1027,25,1,1,"intuitive",2,0,NA,NA
"946",1027,26,1,1,"intuitive",3,0,NA,NA
"947",1027,27,1,1,"intuitive",2,0,NA,NA
"948",1027,28,1,1,"intuitive",4,0,NA,NA
"949",1027,29,1,1,"intuitive",3,0,NA,NA
"950",1027,30,1,1,"intuitive",5,0,NA,NA
"951",1027,11,1,1,"intuitive",3,1,NA,NA
"952",1027,12,1,1,"intuitive",4,1,NA,NA
"953",1027,13,1,1,"intuitive",5,1,NA,NA
"954",1027,14,1,1,"intuitive",5,1,NA,NA
"955",1027,15,1,1,"intuitive",5,1,NA,NA
"956",1027,16,1,1,"intuitive",5,1,NA,NA
"957",1027,17,1,1,"intuitive",5,1,NA,NA
"958",1027,18,1,1,"intuitive",5,1,NA,NA
"959",1027,19,1,1,"intuitive",4,1,NA,NA
"960",1027,20,1,1,"intuitive",5,1,NA,NA
"961",1028,21,1,1,"deliberative",3,1,NA,NA
"962",1028,22,1,1,"deliberative",3,1,NA,NA
"963",1028,23,1,1,"deliberative",3,1,NA,NA
"964",1028,24,1,1,"deliberative",3,1,NA,NA
"965",1028,25,1,1,"deliberative",3,1,NA,NA
"966",1028,26,1,1,"deliberative",3,1,NA,NA
"967",1028,27,1,1,"deliberative",4,1,NA,NA
"968",1028,28,1,1,"deliberative",3,1,NA,NA
"969",1028,29,1,1,"deliberative",3,1,NA,NA
"970",1028,30,1,1,"deliberative",3,1,NA,NA
"971",1028,11,1,1,"deliberative",4,0,NA,NA
"972",1028,12,1,1,"deliberative",5,0,NA,NA
"973",1028,13,1,1,"deliberative",3,0,NA,NA
"974",1028,14,1,1,"deliberative",2,0,NA,NA
"975",1028,15,1,1,"deliberative",4,0,NA,NA
"976",1028,16,1,1,"deliberative",3,0,NA,NA
"977",1028,17,1,1,"deliberative",3,0,NA,NA
"978",1028,18,1,1,"deliberative",3,0,NA,NA
"979",1028,19,1,1,"deliberative",2,0,NA,NA
"980",1028,20,1,1,"deliberative",5,0,NA,NA
"981",1030,21,1,1,"intuitive",4,1,NA,NA
"982",1030,22,1,1,"intuitive",4,1,NA,NA
"983",1030,23,1,1,"intuitive",5,1,NA,NA
"984",1030,24,1,1,"intuitive",2,1,NA,NA
"985",1030,25,1,1,"intuitive",5,1,NA,NA
"986",1030,26,1,1,"intuitive",4,1,NA,NA
"987",1030,27,1,1,"intuitive",3,1,NA,NA
"988",1030,28,1,1,"intuitive",3,1,NA,NA
"989",1030,29,1,1,"intuitive",3,1,NA,NA
"990",1030,30,1,1,"intuitive",2,1,NA,NA
"991",1030,11,1,1,"intuitive",1,0,NA,NA
"992",1030,12,1,1,"intuitive",5,0,NA,NA
"993",1030,13,1,1,"intuitive",3,0,NA,NA
"994",1030,14,1,1,"intuitive",2,0,NA,NA
"995",1030,15,1,1,"intuitive",3,0,NA,NA
"996",1030,16,1,1,"intuitive",4,0,NA,NA
"997",1030,17,1,1,"intuitive",2,0,NA,NA
"998",1030,18,1,1,"intuitive",4,0,NA,NA
"999",1030,19,1,1,"intuitive",4,0,NA,NA
"1000",1030,20,1,1,"intuitive",1,0,NA,NA
"1001",1033,1,1,1,"intuitive",5,0,NA,NA
"1002",1033,2,1,1,"intuitive",4,0,NA,NA
"1003",1033,3,1,1,"intuitive",2,0,NA,NA
"1004",1033,4,1,1,"intuitive",4,0,NA,NA
"1005",1033,5,1,1,"intuitive",4,0,NA,NA
"1006",1033,6,1,1,"intuitive",1,0,NA,NA
"1007",1033,7,1,1,"intuitive",2,0,NA,NA
"1008",1033,8,1,1,"intuitive",4,0,NA,NA
"1009",1033,9,1,1,"intuitive",1,0,NA,NA
"1010",1033,10,1,1,"intuitive",4,0,NA,NA
"1011",1033,11,1,1,"intuitive",4,1,NA,NA
"1012",1033,12,1,1,"intuitive",4,1,NA,NA
"1013",1033,13,1,1,"intuitive",5,1,NA,NA
"1014",1033,14,1,1,"intuitive",5,1,NA,NA
"1015",1033,15,1,1,"intuitive",1,1,NA,NA
"1016",1033,16,1,1,"intuitive",3,1,NA,NA
"1017",1033,17,1,1,"intuitive",5,1,NA,NA
"1018",1033,18,1,1,"intuitive",4,1,NA,NA
"1019",1033,19,1,1,"intuitive",4,1,NA,NA
"1020",1033,20,1,1,"intuitive",3,1,NA,NA
"1021",1034,1,1,1,"deliberative",4,0,NA,NA
"1022",1034,2,1,1,"deliberative",4,0,NA,NA
"1023",1034,3,1,1,"deliberative",4,0,NA,NA
"1024",1034,4,1,1,"deliberative",4,0,NA,NA
"1025",1034,5,1,1,"deliberative",4,0,NA,NA
"1026",1034,6,1,1,"deliberative",4,0,NA,NA
"1027",1034,7,1,1,"deliberative",4,0,NA,NA
"1028",1034,8,1,1,"deliberative",4,0,NA,NA
"1029",1034,9,1,1,"deliberative",4,0,NA,NA
"1030",1034,10,1,1,"deliberative",4,0,NA,NA
"1031",1034,21,1,1,"deliberative",4,1,NA,NA
"1032",1034,22,1,1,"deliberative",4,1,NA,NA
"1033",1034,23,1,1,"deliberative",4,1,NA,NA
"1034",1034,24,1,1,"deliberative",4,1,NA,NA
"1035",1034,25,1,1,"deliberative",4,1,NA,NA
"1036",1034,26,1,1,"deliberative",4,1,NA,NA
"1037",1034,27,1,1,"deliberative",4,1,NA,NA
"1038",1034,28,1,1,"deliberative",4,1,NA,NA
"1039",1034,29,1,1,"deliberative",4,1,NA,NA
"1040",1034,30,1,1,"deliberative",4,1,NA,NA
"1041",1035,1,1,1,"intuitive",5,1,NA,NA
"1042",1035,2,1,1,"intuitive",5,1,NA,NA
"1043",1035,3,1,1,"intuitive",5,1,NA,NA
"1044",1035,4,1,1,"intuitive",5,1,NA,NA
"1045",1035,5,1,1,"intuitive",5,1,NA,NA
"1046",1035,6,1,1,"intuitive",5,1,NA,NA
"1047",1035,7,1,1,"intuitive",5,1,NA,NA
"1048",1035,8,1,1,"intuitive",5,1,NA,NA
"1049",1035,9,1,1,"intuitive",5,1,NA,NA
"1050",1035,10,1,1,"intuitive",5,1,NA,NA
"1051",1035,21,1,1,"intuitive",3,0,NA,NA
"1052",1035,22,1,1,"intuitive",3,0,NA,NA
"1053",1035,23,1,1,"intuitive",3,0,NA,NA
"1054",1035,24,1,1,"intuitive",3,0,NA,NA
"1055",1035,25,1,1,"intuitive",3,0,NA,NA
"1056",1035,26,1,1,"intuitive",3,0,NA,NA
"1057",1035,27,1,1,"intuitive",3,0,NA,NA
"1058",1035,28,1,1,"intuitive",3,0,NA,NA
"1059",1035,29,1,1,"intuitive",3,0,NA,NA
"1060",1035,30,1,1,"intuitive",3,0,NA,NA
"1061",1037,1,1,1,"deliberative",3,0,NA,NA
"1062",1037,2,1,1,"deliberative",4,0,NA,NA
"1063",1037,3,1,1,"deliberative",3,0,NA,NA
"1064",1037,4,1,1,"deliberative",3,0,NA,NA
"1065",1037,5,1,1,"deliberative",3,0,NA,NA
"1066",1037,6,1,1,"deliberative",3,0,NA,NA
"1067",1037,7,1,1,"deliberative",3,0,NA,NA
"1068",1037,8,1,1,"deliberative",3,0,NA,NA
"1069",1037,9,1,1,"deliberative",2,0,NA,NA
"1070",1037,10,1,1,"deliberative",1,0,NA,NA
"1071",1037,11,1,1,"deliberative",3,1,NA,NA
"1072",1037,12,1,1,"deliberative",5,1,NA,NA
"1073",1037,13,1,1,"deliberative",3,1,NA,NA
"1074",1037,14,1,1,"deliberative",3,1,NA,NA
"1075",1037,15,1,1,"deliberative",3,1,NA,NA
"1076",1037,16,1,1,"deliberative",3,1,NA,NA
"1077",1037,17,1,1,"deliberative",3,1,NA,NA
"1078",1037,18,1,1,"deliberative",5,1,NA,NA
"1079",1037,19,1,1,"deliberative",3,1,NA,NA
"1080",1037,20,1,1,"deliberative",5,1,NA,NA
"1081",1040,1,1,1,"intuitive",4,0,NA,NA
"1082",1040,2,1,1,"intuitive",4,0,NA,NA
"1083",1040,3,1,1,"intuitive",2,0,NA,NA
"1084",1040,4,1,1,"intuitive",1,0,NA,NA
"1085",1040,5,1,1,"intuitive",1,0,NA,NA
"1086",1040,6,1,1,"intuitive",4,0,NA,NA
"1087",1040,7,1,1,"intuitive",4,0,NA,NA
"1088",1040,8,1,1,"intuitive",4,0,NA,NA
"1089",1040,9,1,1,"intuitive",2,0,NA,NA
"1090",1040,10,1,1,"intuitive",4,0,NA,NA
"1091",1040,21,1,1,"intuitive",4,1,NA,NA
"1092",1040,22,1,1,"intuitive",4,1,NA,NA
"1093",1040,23,1,1,"intuitive",5,1,NA,NA
"1094",1040,24,1,1,"intuitive",1,1,NA,NA
"1095",1040,25,1,1,"intuitive",2,1,NA,NA
"1096",1040,26,1,1,"intuitive",2,1,NA,NA
"1097",1040,27,1,1,"intuitive",4,1,NA,NA
"1098",1040,28,1,1,"intuitive",2,1,NA,NA
"1099",1040,29,1,1,"intuitive",3,1,NA,NA
"1100",1040,30,1,1,"intuitive",5,1,NA,NA
"1101",1041,1,1,1,"deliberative",4,1,NA,NA
"1102",1041,2,1,1,"deliberative",3,1,NA,NA
"1103",1041,3,1,1,"deliberative",2,1,NA,NA
"1104",1041,4,1,1,"deliberative",3,1,NA,NA
"1105",1041,5,1,1,"deliberative",4,1,NA,NA
"1106",1041,6,1,1,"deliberative",3,1,NA,NA
"1107",1041,7,1,1,"deliberative",3,1,NA,NA
"1108",1041,8,1,1,"deliberative",3,1,NA,NA
"1109",1041,9,1,1,"deliberative",3,1,NA,NA
"1110",1041,10,1,1,"deliberative",3,1,NA,NA
"1111",1041,11,1,1,"deliberative",3,0,NA,NA
"1112",1041,12,1,1,"deliberative",3,0,NA,NA
"1113",1041,13,1,1,"deliberative",4,0,NA,NA
"1114",1041,14,1,1,"deliberative",4,0,NA,NA
"1115",1041,15,1,1,"deliberative",3,0,NA,NA
"1116",1041,16,1,1,"deliberative",1,0,NA,NA
"1117",1041,17,1,1,"deliberative",3,0,NA,NA
"1118",1041,18,1,1,"deliberative",3,0,NA,NA
"1119",1041,19,1,1,"deliberative",3,0,NA,NA
"1120",1041,20,1,1,"deliberative",4,0,NA,NA
"1121",1042,1,1,1,"intuitive",3,0,NA,NA
"1122",1042,2,1,1,"intuitive",3,0,NA,NA
"1123",1042,3,1,1,"intuitive",2,0,NA,NA
"1124",1042,4,1,1,"intuitive",3,0,NA,NA
"1125",1042,5,1,1,"intuitive",3,0,NA,NA
"1126",1042,6,1,1,"intuitive",3,0,NA,NA
"1127",1042,7,1,1,"intuitive",3,0,NA,NA
"1128",1042,8,1,1,"intuitive",3,0,NA,NA
"1129",1042,9,1,1,"intuitive",3,0,NA,NA
"1130",1042,10,1,1,"intuitive",3,0,NA,NA
"1131",1042,11,1,1,"intuitive",3,1,NA,NA
"1132",1042,12,1,1,"intuitive",2,1,NA,NA
"1133",1042,13,1,1,"intuitive",5,1,NA,NA
"1134",1042,14,1,1,"intuitive",3,1,NA,NA
"1135",1042,15,1,1,"intuitive",3,1,NA,NA
"1136",1042,16,1,1,"intuitive",1,1,NA,NA
"1137",1042,17,1,1,"intuitive",3,1,NA,NA
"1138",1042,18,1,1,"intuitive",3,1,NA,NA
"1139",1042,19,1,1,"intuitive",4,1,NA,NA
"1140",1042,20,1,1,"intuitive",4,1,NA,NA
"1141",1043,21,1,1,"intuitive",5,1,NA,NA
"1142",1043,22,1,1,"intuitive",5,1,NA,NA
"1143",1043,23,1,1,"intuitive",5,1,NA,NA
"1144",1043,24,1,1,"intuitive",5,1,NA,NA
"1145",1043,25,1,1,"intuitive",5,1,NA,NA
"1146",1043,26,1,1,"intuitive",5,1,NA,NA
"1147",1043,27,1,1,"intuitive",5,1,NA,NA
"1148",1043,28,1,1,"intuitive",5,1,NA,NA
"1149",1043,29,1,1,"intuitive",5,1,NA,NA
"1150",1043,30,1,1,"intuitive",5,1,NA,NA
"1151",1043,11,1,1,"intuitive",4,0,NA,NA
"1152",1043,12,1,1,"intuitive",3,0,NA,NA
"1153",1043,13,1,1,"intuitive",3,0,NA,NA
"1154",1043,14,1,1,"intuitive",3,0,NA,NA
"1155",1043,15,1,1,"intuitive",5,0,NA,NA
"1156",1043,16,1,1,"intuitive",1,0,NA,NA
"1157",1043,17,1,1,"intuitive",3,0,NA,NA
"1158",1043,18,1,1,"intuitive",3,0,NA,NA
"1159",1043,19,1,1,"intuitive",3,0,NA,NA
"1160",1043,20,1,1,"intuitive",2,0,NA,NA
"1161",1044,1,1,1,"deliberative",4,1,NA,NA
"1162",1044,2,1,1,"deliberative",3,1,NA,NA
"1163",1044,3,1,1,"deliberative",3,1,NA,NA
"1164",1044,4,1,1,"deliberative",2,1,NA,NA
"1165",1044,5,1,1,"deliberative",2,1,NA,NA
"1166",1044,6,1,1,"deliberative",3,1,NA,NA
"1167",1044,7,1,1,"deliberative",3,1,NA,NA
"1168",1044,8,1,1,"deliberative",3,1,NA,NA
"1169",1044,9,1,1,"deliberative",3,1,NA,NA
"1170",1044,10,1,1,"deliberative",3,1,NA,NA
"1171",1044,21,1,1,"deliberative",4,0,NA,NA
"1172",1044,22,1,1,"deliberative",3,0,NA,NA
"1173",1044,23,1,1,"deliberative",3,0,NA,NA
"1174",1044,24,1,1,"deliberative",4,0,NA,NA
"1175",1044,25,1,1,"deliberative",3,0,NA,NA
"1176",1044,26,1,1,"deliberative",2,0,NA,NA
"1177",1044,27,1,1,"deliberative",4,0,NA,NA
"1178",1044,28,1,1,"deliberative",4,0,NA,NA
"1179",1044,29,1,1,"deliberative",3,0,NA,NA
"1180",1044,30,1,1,"deliberative",3,0,NA,NA
"1181",1046,1,1,1,"intuitive",4,1,NA,NA
"1182",1046,2,1,1,"intuitive",4,1,NA,NA
"1183",1046,3,1,1,"intuitive",4,1,NA,NA
"1184",1046,4,1,1,"intuitive",4,1,NA,NA
"1185",1046,5,1,1,"intuitive",4,1,NA,NA
"1186",1046,6,1,1,"intuitive",4,1,NA,NA
"1187",1046,7,1,1,"intuitive",4,1,NA,NA
"1188",1046,8,1,1,"intuitive",4,1,NA,NA
"1189",1046,9,1,1,"intuitive",4,1,NA,NA
"1190",1046,10,1,1,"intuitive",4,1,NA,NA
"1191",1046,11,1,1,"intuitive",2,0,NA,NA
"1192",1046,12,1,1,"intuitive",2,0,NA,NA
"1193",1046,13,1,1,"intuitive",2,0,NA,NA
"1194",1046,14,1,1,"intuitive",2,0,NA,NA
"1195",1046,15,1,1,"intuitive",4,0,NA,NA
"1196",1046,16,1,1,"intuitive",2,0,NA,NA
"1197",1046,17,1,1,"intuitive",2,0,NA,NA
"1198",1046,18,1,1,"intuitive",4,0,NA,NA
"1199",1046,19,1,1,"intuitive",4,0,NA,NA
"1200",1046,20,1,1,"intuitive",2,0,NA,NA
"1201",1051,1,1,1,"deliberative",4,0,NA,NA
"1202",1051,2,1,1,"deliberative",4,0,NA,NA
"1203",1051,3,1,1,"deliberative",3,0,NA,NA
"1204",1051,4,1,1,"deliberative",3,0,NA,NA
"1205",1051,5,1,1,"deliberative",2,0,NA,NA
"1206",1051,6,1,1,"deliberative",3,0,NA,NA
"1207",1051,7,1,1,"deliberative",3,0,NA,NA
"1208",1051,8,1,1,"deliberative",3,0,NA,NA
"1209",1051,9,1,1,"deliberative",3,0,NA,NA
"1210",1051,10,1,1,"deliberative",1,0,NA,NA
"1211",1051,11,1,1,"deliberative",3,1,NA,NA
"1212",1051,12,1,1,"deliberative",4,1,NA,NA
"1213",1051,13,1,1,"deliberative",3,1,NA,NA
"1214",1051,14,1,1,"deliberative",3,1,NA,NA
"1215",1051,15,1,1,"deliberative",2,1,NA,NA
"1216",1051,16,1,1,"deliberative",3,1,NA,NA
"1217",1051,17,1,1,"deliberative",3,1,NA,NA
"1218",1051,18,1,1,"deliberative",3,1,NA,NA
"1219",1051,19,1,1,"deliberative",4,1,NA,NA
"1220",1051,20,1,1,"deliberative",3,1,NA,NA
"1221",1053,1,1,1,"intuitive",4,1,NA,NA
"1222",1053,2,1,1,"intuitive",5,1,NA,NA
"1223",1053,3,1,1,"intuitive",2,1,NA,NA
"1224",1053,4,1,1,"intuitive",4,1,NA,NA
"1225",1053,5,1,1,"intuitive",2,1,NA,NA
"1226",1053,6,1,1,"intuitive",2,1,NA,NA
"1227",1053,7,1,1,"intuitive",4,1,NA,NA
"1228",1053,8,1,1,"intuitive",3,1,NA,NA
"1229",1053,9,1,1,"intuitive",3,1,NA,NA
"1230",1053,10,1,1,"intuitive",3,1,NA,NA
"1231",1053,21,1,1,"intuitive",3,0,NA,NA
"1232",1053,22,1,1,"intuitive",3,0,NA,NA
"1233",1053,23,1,1,"intuitive",4,0,NA,NA
"1234",1053,24,1,1,"intuitive",4,0,NA,NA
"1235",1053,25,1,1,"intuitive",2,0,NA,NA
"1236",1053,26,1,1,"intuitive",4,0,NA,NA
"1237",1053,27,1,1,"intuitive",3,0,NA,NA
"1238",1053,28,1,1,"intuitive",2,0,NA,NA
"1239",1053,29,1,1,"intuitive",4,0,NA,NA
"1240",1053,30,1,1,"intuitive",2,0,NA,NA
"1241",1055,21,1,1,"intuitive",4,0,NA,NA
"1242",1055,22,1,1,"intuitive",3,0,NA,NA
"1243",1055,23,1,1,"intuitive",4,0,NA,NA
"1244",1055,24,1,1,"intuitive",3,0,NA,NA
"1245",1055,25,1,1,"intuitive",3,0,NA,NA
"1246",1055,26,1,1,"intuitive",3,0,NA,NA
"1247",1055,27,1,1,"intuitive",3,0,NA,NA
"1248",1055,28,1,1,"intuitive",3,0,NA,NA
"1249",1055,29,1,1,"intuitive",4,0,NA,NA
"1250",1055,30,1,1,"intuitive",2,0,NA,NA
"1251",1055,11,1,1,"intuitive",3,1,NA,NA
"1252",1055,12,1,1,"intuitive",3,1,NA,NA
"1253",1055,13,1,1,"intuitive",3,1,NA,NA
"1254",1055,14,1,1,"intuitive",3,1,NA,NA
"1255",1055,15,1,1,"intuitive",3,1,NA,NA
"1256",1055,16,1,1,"intuitive",3,1,NA,NA
"1257",1055,17,1,1,"intuitive",4,1,NA,NA
"1258",1055,18,1,1,"intuitive",3,1,NA,NA
"1259",1055,19,1,1,"intuitive",3,1,NA,NA
"1260",1055,20,1,1,"intuitive",4,1,NA,NA
"1261",1056,1,1,1,"intuitive",2,0,NA,NA
"1262",1056,2,1,1,"intuitive",3,0,NA,NA
"1263",1056,3,1,1,"intuitive",1,0,NA,NA
"1264",1056,4,1,1,"intuitive",2,0,NA,NA
"1265",1056,5,1,1,"intuitive",4,0,NA,NA
"1266",1056,6,1,1,"intuitive",3,0,NA,NA
"1267",1056,7,1,1,"intuitive",3,0,NA,NA
"1268",1056,8,1,1,"intuitive",3,0,NA,NA
"1269",1056,9,1,1,"intuitive",1,0,NA,NA
"1270",1056,10,1,1,"intuitive",3,0,NA,NA
"1271",1056,21,1,1,"intuitive",1,1,NA,NA
"1272",1056,22,1,1,"intuitive",3,1,NA,NA
"1273",1056,23,1,1,"intuitive",3,1,NA,NA
"1274",1056,24,1,1,"intuitive",4,1,NA,NA
"1275",1056,25,1,1,"intuitive",3,1,NA,NA
"1276",1056,26,1,1,"intuitive",3,1,NA,NA
"1277",1056,27,1,1,"intuitive",3,1,NA,NA
"1278",1056,28,1,1,"intuitive",4,1,NA,NA
"1279",1056,29,1,1,"intuitive",3,1,NA,NA
"1280",1056,30,1,1,"intuitive",3,1,NA,NA
"1281",1057,21,1,1,"deliberative",4,1,NA,NA
"1282",1057,22,1,1,"deliberative",4,1,NA,NA
"1283",1057,23,1,1,"deliberative",4,1,NA,NA
"1284",1057,24,1,1,"deliberative",3,1,NA,NA
"1285",1057,25,1,1,"deliberative",5,1,NA,NA
"1286",1057,26,1,1,"deliberative",4,1,NA,NA
"1287",1057,27,1,1,"deliberative",4,1,NA,NA
"1288",1057,28,1,1,"deliberative",1,1,NA,NA
"1289",1057,29,1,1,"deliberative",3,1,NA,NA
"1290",1057,30,1,1,"deliberative",2,1,NA,NA
"1291",1057,11,1,1,"deliberative",2,0,NA,NA
"1292",1057,12,1,1,"deliberative",4,0,NA,NA
"1293",1057,13,1,1,"deliberative",4,0,NA,NA
"1294",1057,14,1,1,"deliberative",3,0,NA,NA
"1295",1057,15,1,1,"deliberative",3,0,NA,NA
"1296",1057,16,1,1,"deliberative",3,0,NA,NA
"1297",1057,17,1,1,"deliberative",3,0,NA,NA
"1298",1057,18,1,1,"deliberative",3,0,NA,NA
"1299",1057,19,1,1,"deliberative",1,0,NA,NA
"1300",1057,20,1,1,"deliberative",5,0,NA,NA
"1301",1058,1,1,1,"intuitive",4,1,NA,NA
"1302",1058,2,1,1,"intuitive",3,1,NA,NA
"1303",1058,3,1,1,"intuitive",4,1,NA,NA
"1304",1058,4,1,1,"intuitive",3,1,NA,NA
"1305",1058,5,1,1,"intuitive",3,1,NA,NA
"1306",1058,6,1,1,"intuitive",5,1,NA,NA
"1307",1058,7,1,1,"intuitive",3,1,NA,NA
"1308",1058,8,1,1,"intuitive",4,1,NA,NA
"1309",1058,9,1,1,"intuitive",3,1,NA,NA
"1310",1058,10,1,1,"intuitive",3,1,NA,NA
"1311",1058,21,1,1,"intuitive",1,0,NA,NA
"1312",1058,22,1,1,"intuitive",3,0,NA,NA
"1313",1058,23,1,1,"intuitive",3,0,NA,NA
"1314",1058,24,1,1,"intuitive",3,0,NA,NA
"1315",1058,25,1,1,"intuitive",3,0,NA,NA
"1316",1058,26,1,1,"intuitive",3,0,NA,NA
"1317",1058,27,1,1,"intuitive",3,0,NA,NA
"1318",1058,28,1,1,"intuitive",3,0,NA,NA
"1319",1058,29,1,1,"intuitive",4,0,NA,NA
"1320",1058,30,1,1,"intuitive",3,0,NA,NA
"1321",1059,1,1,1,"deliberative",4,1,NA,NA
"1322",1059,2,1,1,"deliberative",4,1,NA,NA
"1323",1059,3,1,1,"deliberative",4,1,NA,NA
"1324",1059,4,1,1,"deliberative",4,1,NA,NA
"1325",1059,5,1,1,"deliberative",4,1,NA,NA
"1326",1059,6,1,1,"deliberative",4,1,NA,NA
"1327",1059,7,1,1,"deliberative",4,1,NA,NA
"1328",1059,8,1,1,"deliberative",4,1,NA,NA
"1329",1059,9,1,1,"deliberative",3,1,NA,NA
"1330",1059,10,1,1,"deliberative",4,1,NA,NA
"1331",1059,11,1,1,"deliberative",1,0,NA,NA
"1332",1059,12,1,1,"deliberative",4,0,NA,NA
"1333",1059,13,1,1,"deliberative",3,0,NA,NA
"1334",1059,14,1,1,"deliberative",4,0,NA,NA
"1335",1059,15,1,1,"deliberative",3,0,NA,NA
"1336",1059,16,1,1,"deliberative",1,0,NA,NA
"1337",1059,17,1,1,"deliberative",3,0,NA,NA
"1338",1059,18,1,1,"deliberative",3,0,NA,NA
"1339",1059,19,1,1,"deliberative",1,0,NA,NA
"1340",1059,20,1,1,"deliberative",5,0,NA,NA
"1341",1061,1,1,1,"deliberative",5,0,NA,NA
"1342",1061,2,1,1,"deliberative",3,0,NA,NA
"1343",1061,3,1,1,"deliberative",4,0,NA,NA
"1344",1061,4,1,1,"deliberative",5,0,NA,NA
"1345",1061,5,1,1,"deliberative",3,0,NA,NA
"1346",1061,6,1,1,"deliberative",3,0,NA,NA
"1347",1061,7,1,1,"deliberative",5,0,NA,NA
"1348",1061,8,1,1,"deliberative",3,0,NA,NA
"1349",1061,9,1,1,"deliberative",3,0,NA,NA
"1350",1061,10,1,1,"deliberative",3,0,NA,NA
"1351",1061,21,1,1,"deliberative",5,1,NA,NA
"1352",1061,22,1,1,"deliberative",5,1,NA,NA
"1353",1061,23,1,1,"deliberative",5,1,NA,NA
"1354",1061,24,1,1,"deliberative",5,1,NA,NA
"1355",1061,25,1,1,"deliberative",4,1,NA,NA
"1356",1061,26,1,1,"deliberative",5,1,NA,NA
"1357",1061,27,1,1,"deliberative",5,1,NA,NA
"1358",1061,28,1,1,"deliberative",5,1,NA,NA
"1359",1061,29,1,1,"deliberative",5,1,NA,NA
"1360",1061,30,1,1,"deliberative",5,1,NA,NA
"1361",1062,21,1,1,"intuitive",3,1,NA,NA
"1362",1062,22,1,1,"intuitive",3,1,NA,NA
"1363",1062,23,1,1,"intuitive",4,1,NA,NA
"1364",1062,24,1,1,"intuitive",1,1,NA,NA
"1365",1062,25,1,1,"intuitive",2,1,NA,NA
"1366",1062,26,1,1,"intuitive",3,1,NA,NA
"1367",1062,27,1,1,"intuitive",4,1,NA,NA
"1368",1062,28,1,1,"intuitive",3,1,NA,NA
"1369",1062,29,1,1,"intuitive",5,1,NA,NA
"1370",1062,30,1,1,"intuitive",2,1,NA,NA
"1371",1062,11,1,1,"intuitive",1,0,NA,NA
"1372",1062,12,1,1,"intuitive",4,0,NA,NA
"1373",1062,13,1,1,"intuitive",3,0,NA,NA
"1374",1062,14,1,1,"intuitive",4,0,NA,NA
"1375",1062,15,1,1,"intuitive",3,0,NA,NA
"1376",1062,16,1,1,"intuitive",2,0,NA,NA
"1377",1062,17,1,1,"intuitive",4,0,NA,NA
"1378",1062,18,1,1,"intuitive",3,0,NA,NA
"1379",1062,19,1,1,"intuitive",1,0,NA,NA
"1380",1062,20,1,1,"intuitive",5,0,NA,NA
"1381",1063,21,1,1,"deliberative",3,0,NA,NA
"1382",1063,22,1,1,"deliberative",3,0,NA,NA
"1383",1063,23,1,1,"deliberative",3,0,NA,NA
"1384",1063,24,1,1,"deliberative",3,0,NA,NA
"1385",1063,25,1,1,"deliberative",3,0,NA,NA
"1386",1063,26,1,1,"deliberative",4,0,NA,NA
"1387",1063,27,1,1,"deliberative",3,0,NA,NA
"1388",1063,28,1,1,"deliberative",3,0,NA,NA
"1389",1063,29,1,1,"deliberative",3,0,NA,NA
"1390",1063,30,1,1,"deliberative",4,0,NA,NA
"1391",1063,11,1,1,"deliberative",5,1,NA,NA
"1392",1063,12,1,1,"deliberative",2,1,NA,NA
"1393",1063,13,1,1,"deliberative",3,1,NA,NA
"1394",1063,14,1,1,"deliberative",3,1,NA,NA
"1395",1063,15,1,1,"deliberative",2,1,NA,NA
"1396",1063,16,1,1,"deliberative",3,1,NA,NA
"1397",1063,17,1,1,"deliberative",1,1,NA,NA
"1398",1063,18,1,1,"deliberative",3,1,NA,NA
"1399",1063,19,1,1,"deliberative",3,1,NA,NA
"1400",1063,20,1,1,"deliberative",3,1,NA,NA
"1401",1066,1,1,1,"intuitive",4,0,NA,NA
"1402",1066,2,1,1,"intuitive",2,0,NA,NA
"1403",1066,3,1,1,"intuitive",3,0,NA,NA
"1404",1066,4,1,1,"intuitive",2,0,NA,NA
"1405",1066,5,1,1,"intuitive",3,0,NA,NA
"1406",1066,6,1,1,"intuitive",4,0,NA,NA
"1407",1066,7,1,1,"intuitive",4,0,NA,NA
"1408",1066,8,1,1,"intuitive",2,0,NA,NA
"1409",1066,9,1,1,"intuitive",3,0,NA,NA
"1410",1066,10,1,1,"intuitive",4,0,NA,NA
"1411",1066,21,1,1,"intuitive",4,1,NA,NA
"1412",1066,22,1,1,"intuitive",4,1,NA,NA
"1413",1066,23,1,1,"intuitive",5,1,NA,NA
"1414",1066,24,1,1,"intuitive",2,1,NA,NA
"1415",1066,25,1,1,"intuitive",4,1,NA,NA
"1416",1066,26,1,1,"intuitive",4,1,NA,NA
"1417",1066,27,1,1,"intuitive",5,1,NA,NA
"1418",1066,28,1,1,"intuitive",5,1,NA,NA
"1419",1066,29,1,1,"intuitive",2,1,NA,NA
"1420",1066,30,1,1,"intuitive",4,1,NA,NA
"1421",1067,1,1,1,"deliberative",4,1,NA,NA
"1422",1067,2,1,1,"deliberative",4,1,NA,NA
"1423",1067,3,1,1,"deliberative",3,1,NA,NA
"1424",1067,4,1,1,"deliberative",2,1,NA,NA
"1425",1067,5,1,1,"deliberative",4,1,NA,NA
"1426",1067,6,1,1,"deliberative",4,1,NA,NA
"1427",1067,7,1,1,"deliberative",4,1,NA,NA
"1428",1067,8,1,1,"deliberative",3,1,NA,NA
"1429",1067,9,1,1,"deliberative",4,1,NA,NA
"1430",1067,10,1,1,"deliberative",3,1,NA,NA
"1431",1067,11,1,1,"deliberative",3,0,NA,NA
"1432",1067,12,1,1,"deliberative",1,0,NA,NA
"1433",1067,13,1,1,"deliberative",5,0,NA,NA
"1434",1067,14,1,1,"deliberative",2,0,NA,NA
"1435",1067,15,1,1,"deliberative",1,0,NA,NA
"1436",1067,16,1,1,"deliberative",1,0,NA,NA
"1437",1067,17,1,1,"deliberative",3,0,NA,NA
"1438",1067,18,1,1,"deliberative",3,0,NA,NA
"1439",1067,19,1,1,"deliberative",1,0,NA,NA
"1440",1067,20,1,1,"deliberative",5,0,NA,NA
"1441",1070,21,1,1,"intuitive",1,0,NA,NA
"1442",1070,22,1,1,"intuitive",3,0,NA,NA
"1443",1070,23,1,1,"intuitive",2,0,NA,NA
"1444",1070,24,1,1,"intuitive",4,0,NA,NA
"1445",1070,25,1,1,"intuitive",3,0,NA,NA
"1446",1070,26,1,1,"intuitive",3,0,NA,NA
"1447",1070,27,1,1,"intuitive",4,0,NA,NA
"1448",1070,28,1,1,"intuitive",3,0,NA,NA
"1449",1070,29,1,1,"intuitive",2,0,NA,NA
"1450",1070,30,1,1,"intuitive",3,0,NA,NA
"1451",1070,11,1,1,"intuitive",5,1,NA,NA
"1452",1070,12,1,1,"intuitive",5,1,NA,NA
"1453",1070,13,1,1,"intuitive",5,1,NA,NA
"1454",1070,14,1,1,"intuitive",4,1,NA,NA
"1455",1070,15,1,1,"intuitive",5,1,NA,NA
"1456",1070,16,1,1,"intuitive",5,1,NA,NA
"1457",1070,17,1,1,"intuitive",5,1,NA,NA
"1458",1070,18,1,1,"intuitive",4,1,NA,NA
"1459",1070,19,1,1,"intuitive",5,1,NA,NA
"1460",1070,20,1,1,"intuitive",5,1,NA,NA
"1461",1072,1,1,1,"deliberative",2,0,NA,NA
"1462",1072,2,1,1,"deliberative",2,0,NA,NA
"1463",1072,3,1,1,"deliberative",4,0,NA,NA
"1464",1072,4,1,1,"deliberative",4,0,NA,NA
"1465",1072,5,1,1,"deliberative",2,0,NA,NA
"1466",1072,6,1,1,"deliberative",3,0,NA,NA
"1467",1072,7,1,1,"deliberative",4,0,NA,NA
"1468",1072,8,1,1,"deliberative",3,0,NA,NA
"1469",1072,9,1,1,"deliberative",1,0,NA,NA
"1470",1072,10,1,1,"deliberative",3,0,NA,NA
"1471",1072,21,1,1,"deliberative",3,1,NA,NA
"1472",1072,22,1,1,"deliberative",3,1,NA,NA
"1473",1072,23,1,1,"deliberative",5,1,NA,NA
"1474",1072,24,1,1,"deliberative",4,1,NA,NA
"1475",1072,25,1,1,"deliberative",4,1,NA,NA
"1476",1072,26,1,1,"deliberative",4,1,NA,NA
"1477",1072,27,1,1,"deliberative",4,1,NA,NA
"1478",1072,28,1,1,"deliberative",3,1,NA,NA
"1479",1072,29,1,1,"deliberative",3,1,NA,NA
"1480",1072,30,1,1,"deliberative",4,1,NA,NA
"1481",1073,1,1,1,"deliberative",4,1,NA,NA
"1482",1073,2,1,1,"deliberative",2,1,NA,NA
"1483",1073,3,1,1,"deliberative",2,1,NA,NA
"1484",1073,4,1,1,"deliberative",3,1,NA,NA
"1485",1073,5,1,1,"deliberative",2,1,NA,NA
"1486",1073,6,1,1,"deliberative",3,1,NA,NA
"1487",1073,7,1,1,"deliberative",3,1,NA,NA
"1488",1073,8,1,1,"deliberative",3,1,NA,NA
"1489",1073,9,1,1,"deliberative",3,1,NA,NA
"1490",1073,10,1,1,"deliberative",1,1,NA,NA
"1491",1073,21,1,1,"deliberative",2,0,NA,NA
"1492",1073,22,1,1,"deliberative",3,0,NA,NA
"1493",1073,23,1,1,"deliberative",3,0,NA,NA
"1494",1073,24,1,1,"deliberative",4,0,NA,NA
"1495",1073,25,1,1,"deliberative",2,0,NA,NA
"1496",1073,26,1,1,"deliberative",3,0,NA,NA
"1497",1073,27,1,1,"deliberative",4,0,NA,NA
"1498",1073,28,1,1,"deliberative",3,0,NA,NA
"1499",1073,29,1,1,"deliberative",3,0,NA,NA
"1500",1073,30,1,1,"deliberative",2,0,NA,NA
"1501",1076,1,1,1,"intuitive",4,1,NA,NA
"1502",1076,2,1,1,"intuitive",5,1,NA,NA
"1503",1076,3,1,1,"intuitive",4,1,NA,NA
"1504",1076,4,1,1,"intuitive",4,1,NA,NA
"1505",1076,5,1,1,"intuitive",5,1,NA,NA
"1506",1076,6,1,1,"intuitive",4,1,NA,NA
"1507",1076,7,1,1,"intuitive",5,1,NA,NA
"1508",1076,8,1,1,"intuitive",5,1,NA,NA
"1509",1076,9,1,1,"intuitive",4,1,NA,NA
"1510",1076,10,1,1,"intuitive",4,1,NA,NA
"1511",1076,11,1,1,"intuitive",5,0,NA,NA
"1512",1076,12,1,1,"intuitive",3,0,NA,NA
"1513",1076,13,1,1,"intuitive",3,0,NA,NA
"1514",1076,14,1,1,"intuitive",5,0,NA,NA
"1515",1076,15,1,1,"intuitive",5,0,NA,NA
"1516",1076,16,1,1,"intuitive",3,0,NA,NA
"1517",1076,17,1,1,"intuitive",3,0,NA,NA
"1518",1076,18,1,1,"intuitive",3,0,NA,NA
"1519",1076,19,1,1,"intuitive",3,0,NA,NA
"1520",1076,20,1,1,"intuitive",5,0,NA,NA
"1521",1078,1,1,1,"intuitive",3,0,NA,NA
"1522",1078,2,1,1,"intuitive",3,0,NA,NA
"1523",1078,3,1,1,"intuitive",4,0,NA,NA
"1524",1078,4,1,1,"intuitive",3,0,NA,NA
"1525",1078,5,1,1,"intuitive",3,0,NA,NA
"1526",1078,6,1,1,"intuitive",2,0,NA,NA
"1527",1078,7,1,1,"intuitive",3,0,NA,NA
"1528",1078,8,1,1,"intuitive",3,0,NA,NA
"1529",1078,9,1,1,"intuitive",1,0,NA,NA
"1530",1078,10,1,1,"intuitive",4,0,NA,NA
"1531",1078,21,1,1,"intuitive",3,1,NA,NA
"1532",1078,22,1,1,"intuitive",3,1,NA,NA
"1533",1078,23,1,1,"intuitive",2,1,NA,NA
"1534",1078,24,1,1,"intuitive",3,1,NA,NA
"1535",1078,25,1,1,"intuitive",3,1,NA,NA
"1536",1078,26,1,1,"intuitive",3,1,NA,NA
"1537",1078,27,1,1,"intuitive",2,1,NA,NA
"1538",1078,28,1,1,"intuitive",3,1,NA,NA
"1539",1078,29,1,1,"intuitive",3,1,NA,NA
"1540",1078,30,1,1,"intuitive",4,1,NA,NA
"1541",1079,21,1,1,"deliberative",3,0,NA,NA
"1542",1079,22,1,1,"deliberative",3,0,NA,NA
"1543",1079,23,1,1,"deliberative",3,0,NA,NA
"1544",1079,24,1,1,"deliberative",2,0,NA,NA
"1545",1079,25,1,1,"deliberative",3,0,NA,NA
"1546",1079,26,1,1,"deliberative",4,0,NA,NA
"1547",1079,27,1,1,"deliberative",4,0,NA,NA
"1548",1079,28,1,1,"deliberative",3,0,NA,NA
"1549",1079,29,1,1,"deliberative",3,0,NA,NA
"1550",1079,30,1,1,"deliberative",3,0,NA,NA
"1551",1079,11,1,1,"deliberative",3,1,NA,NA
"1552",1079,12,1,1,"deliberative",4,1,NA,NA
"1553",1079,13,1,1,"deliberative",3,1,NA,NA
"1554",1079,14,1,1,"deliberative",3,1,NA,NA
"1555",1079,15,1,1,"deliberative",3,1,NA,NA
"1556",1079,16,1,1,"deliberative",4,1,NA,NA
"1557",1079,17,1,1,"deliberative",3,1,NA,NA
"1558",1079,18,1,1,"deliberative",3,1,NA,NA
"1559",1079,19,1,1,"deliberative",4,1,NA,NA
"1560",1079,20,1,1,"deliberative",2,1,NA,NA
"1561",1084,1,1,1,"deliberative",3,0,NA,NA
"1562",1084,2,1,1,"deliberative",1,0,NA,NA
"1563",1084,3,1,1,"deliberative",1,0,NA,NA
"1564",1084,4,1,1,"deliberative",1,0,NA,NA
"1565",1084,5,1,1,"deliberative",1,0,NA,NA
"1566",1084,6,1,1,"deliberative",3,0,NA,NA
"1567",1084,7,1,1,"deliberative",4,0,NA,NA
"1568",1084,8,1,1,"deliberative",3,0,NA,NA
"1569",1084,9,1,1,"deliberative",3,0,NA,NA
"1570",1084,10,1,1,"deliberative",5,0,NA,NA
"1571",1084,21,1,1,"deliberative",4,1,NA,NA
"1572",1084,22,1,1,"deliberative",3,1,NA,NA
"1573",1084,23,1,1,"deliberative",5,1,NA,NA
"1574",1084,24,1,1,"deliberative",5,1,NA,NA
"1575",1084,25,1,1,"deliberative",5,1,NA,NA
"1576",1084,26,1,1,"deliberative",3,1,NA,NA
"1577",1084,27,1,1,"deliberative",5,1,NA,NA
"1578",1084,28,1,1,"deliberative",5,1,NA,NA
"1579",1084,29,1,1,"deliberative",5,1,NA,NA
"1580",1084,30,1,1,"deliberative",1,1,NA,NA
"1581",1087,1,1,1,"deliberative",3,1,NA,NA
"1582",1087,2,1,1,"deliberative",2,1,NA,NA
"1583",1087,3,1,1,"deliberative",4,1,NA,NA
"1584",1087,4,1,1,"deliberative",3,1,NA,NA
"1585",1087,5,1,1,"deliberative",1,1,NA,NA
"1586",1087,6,1,1,"deliberative",2,1,NA,NA
"1587",1087,7,1,1,"deliberative",4,1,NA,NA
"1588",1087,8,1,1,"deliberative",4,1,NA,NA
"1589",1087,9,1,1,"deliberative",3,1,NA,NA
"1590",1087,10,1,1,"deliberative",4,1,NA,NA
"1591",1087,21,1,1,"deliberative",4,0,NA,NA
"1592",1087,22,1,1,"deliberative",4,0,NA,NA
"1593",1087,23,1,1,"deliberative",3,0,NA,NA
"1594",1087,24,1,1,"deliberative",3,0,NA,NA
"1595",1087,25,1,1,"deliberative",5,0,NA,NA
"1596",1087,26,1,1,"deliberative",3,0,NA,NA
"1597",1087,27,1,1,"deliberative",2,0,NA,NA
"1598",1087,28,1,1,"deliberative",2,0,NA,NA
"1599",1087,29,1,1,"deliberative",3,0,NA,NA
"1600",1087,30,1,1,"deliberative",3,0,NA,NA
"1601",1088,1,1,1,"intuitive",5,1,NA,NA
"1602",1088,2,1,1,"intuitive",5,1,NA,NA
"1603",1088,3,1,1,"intuitive",4,1,NA,NA
"1604",1088,4,1,1,"intuitive",5,1,NA,NA
"1605",1088,5,1,1,"intuitive",3,1,NA,NA
"1606",1088,6,1,1,"intuitive",4,1,NA,NA
"1607",1088,7,1,1,"intuitive",3,1,NA,NA
"1608",1088,8,1,1,"intuitive",4,1,NA,NA
"1609",1088,9,1,1,"intuitive",5,1,NA,NA
"1610",1088,10,1,1,"intuitive",1,1,NA,NA
"1611",1088,11,1,1,"intuitive",3,0,NA,NA
"1612",1088,12,1,1,"intuitive",3,0,NA,NA
"1613",1088,13,1,1,"intuitive",4,0,NA,NA
"1614",1088,14,1,1,"intuitive",3,0,NA,NA
"1615",1088,15,1,1,"intuitive",4,0,NA,NA
"1616",1088,16,1,1,"intuitive",3,0,NA,NA
"1617",1088,17,1,1,"intuitive",2,0,NA,NA
"1618",1088,18,1,1,"intuitive",3,0,NA,NA
"1619",1088,19,1,1,"intuitive",4,0,NA,NA
"1620",1088,20,1,1,"intuitive",2,0,NA,NA
"1621",1091,21,1,1,"deliberative",4,0,NA,NA
"1622",1091,22,1,1,"deliberative",4,0,NA,NA
"1623",1091,23,1,1,"deliberative",2,0,NA,NA
"1624",1091,24,1,1,"deliberative",4,0,NA,NA
"1625",1091,25,1,1,"deliberative",3,0,NA,NA
"1626",1091,26,1,1,"deliberative",3,0,NA,NA
"1627",1091,27,1,1,"deliberative",4,0,NA,NA
"1628",1091,28,1,1,"deliberative",1,0,NA,NA
"1629",1091,29,1,1,"deliberative",3,0,NA,NA
"1630",1091,30,1,1,"deliberative",2,0,NA,NA
"1631",1091,11,1,1,"deliberative",5,1,NA,NA
"1632",1091,12,1,1,"deliberative",5,1,NA,NA
"1633",1091,13,1,1,"deliberative",5,1,NA,NA
"1634",1091,14,1,1,"deliberative",5,1,NA,NA
"1635",1091,15,1,1,"deliberative",3,1,NA,NA
"1636",1091,16,1,1,"deliberative",1,1,NA,NA
"1637",1091,17,1,1,"deliberative",1,1,NA,NA
"1638",1091,18,1,1,"deliberative",5,1,NA,NA
"1639",1091,19,1,1,"deliberative",1,1,NA,NA
"1640",1091,20,1,1,"deliberative",5,1,NA,NA
"1641",1093,1,1,1,"intuitive",5,1,NA,NA
"1642",1093,2,1,1,"intuitive",3,1,NA,NA
"1643",1093,3,1,1,"intuitive",5,1,NA,NA
"1644",1093,4,1,1,"intuitive",5,1,NA,NA
"1645",1093,5,1,1,"intuitive",5,1,NA,NA
"1646",1093,6,1,1,"intuitive",5,1,NA,NA
"1647",1093,7,1,1,"intuitive",5,1,NA,NA
"1648",1093,8,1,1,"intuitive",5,1,NA,NA
"1649",1093,9,1,1,"intuitive",5,1,NA,NA
"1650",1093,10,1,1,"intuitive",5,1,NA,NA
"1651",1093,21,1,1,"intuitive",3,0,NA,NA
"1652",1093,22,1,1,"intuitive",3,0,NA,NA
"1653",1093,23,1,1,"intuitive",3,0,NA,NA
"1654",1093,24,1,1,"intuitive",3,0,NA,NA
"1655",1093,25,1,1,"intuitive",4,0,NA,NA
"1656",1093,26,1,1,"intuitive",3,0,NA,NA
"1657",1093,27,1,1,"intuitive",2,0,NA,NA
"1658",1093,28,1,1,"intuitive",4,0,NA,NA
"1659",1093,29,1,1,"intuitive",3,0,NA,NA
"1660",1093,30,1,1,"intuitive",1,0,NA,NA
"1661",1095,21,1,1,"intuitive",5,1,NA,NA
"1662",1095,22,1,1,"intuitive",5,1,NA,NA
"1663",1095,23,1,1,"intuitive",5,1,NA,NA
"1664",1095,24,1,1,"intuitive",2,1,NA,NA
"1665",1095,25,1,1,"intuitive",2,1,NA,NA
"1666",1095,26,1,1,"intuitive",5,1,NA,NA
"1667",1095,27,1,1,"intuitive",5,1,NA,NA
"1668",1095,28,1,1,"intuitive",5,1,NA,NA
"1669",1095,29,1,1,"intuitive",5,1,NA,NA
"1670",1095,30,1,1,"intuitive",5,1,NA,NA
"1671",1095,11,1,1,"intuitive",3,0,NA,NA
"1672",1095,12,1,1,"intuitive",4,0,NA,NA
"1673",1095,13,1,1,"intuitive",1,0,NA,NA
"1674",1095,14,1,1,"intuitive",1,0,NA,NA
"1675",1095,15,1,1,"intuitive",4,0,NA,NA
"1676",1095,16,1,1,"intuitive",2,0,NA,NA
"1677",1095,17,1,1,"intuitive",3,0,NA,NA
"1678",1095,18,1,1,"intuitive",2,0,NA,NA
"1679",1095,19,1,1,"intuitive",1,0,NA,NA
"1680",1095,20,1,1,"intuitive",2,0,NA,NA
"1681",1098,1,1,1,"deliberative",4,0,NA,NA
"1682",1098,2,1,1,"deliberative",3,0,NA,NA
"1683",1098,3,1,1,"deliberative",4,0,NA,NA
"1684",1098,4,1,1,"deliberative",3,0,NA,NA
"1685",1098,5,1,1,"deliberative",4,0,NA,NA
"1686",1098,6,1,1,"deliberative",3,0,NA,NA
"1687",1098,7,1,1,"deliberative",4,0,NA,NA
"1688",1098,8,1,1,"deliberative",4,0,NA,NA
"1689",1098,9,1,1,"deliberative",3,0,NA,NA
"1690",1098,10,1,1,"deliberative",1,0,NA,NA
"1691",1098,11,1,1,"deliberative",3,1,NA,NA
"1692",1098,12,1,1,"deliberative",2,1,NA,NA
"1693",1098,13,1,1,"deliberative",3,1,NA,NA
"1694",1098,14,1,1,"deliberative",4,1,NA,NA
"1695",1098,15,1,1,"deliberative",2,1,NA,NA
"1696",1098,16,1,1,"deliberative",1,1,NA,NA
"1697",1098,17,1,1,"deliberative",4,1,NA,NA
"1698",1098,18,1,1,"deliberative",2,1,NA,NA
"1699",1098,19,1,1,"deliberative",3,1,NA,NA
"1700",1098,20,1,1,"deliberative",5,1,NA,NA
"1701",1099,1,1,1,"intuitive",3,0,NA,NA
"1702",1099,2,1,1,"intuitive",1,0,NA,NA
"1703",1099,3,1,1,"intuitive",3,0,NA,NA
"1704",1099,4,1,1,"intuitive",1,0,NA,NA
"1705",1099,5,1,1,"intuitive",4,0,NA,NA
"1706",1099,6,1,1,"intuitive",4,0,NA,NA
"1707",1099,7,1,1,"intuitive",3,0,NA,NA
"1708",1099,8,1,1,"intuitive",4,0,NA,NA
"1709",1099,9,1,1,"intuitive",3,0,NA,NA
"1710",1099,10,1,1,"intuitive",3,0,NA,NA
"1711",1099,11,1,1,"intuitive",3,1,NA,NA
"1712",1099,12,1,1,"intuitive",5,1,NA,NA
"1713",1099,13,1,1,"intuitive",5,1,NA,NA
"1714",1099,14,1,1,"intuitive",5,1,NA,NA
"1715",1099,15,1,1,"intuitive",4,1,NA,NA
"1716",1099,16,1,1,"intuitive",5,1,NA,NA
"1717",1099,17,1,1,"intuitive",5,1,NA,NA
"1718",1099,18,1,1,"intuitive",3,1,NA,NA
"1719",1099,19,1,1,"intuitive",1,1,NA,NA
"1720",1099,20,1,1,"intuitive",3,1,NA,NA
"1721",1100,21,1,1,"deliberative",4,1,NA,NA
"1722",1100,22,1,1,"deliberative",4,1,NA,NA
"1723",1100,23,1,1,"deliberative",2,1,NA,NA
"1724",1100,24,1,1,"deliberative",4,1,NA,NA
"1725",1100,25,1,1,"deliberative",4,1,NA,NA
"1726",1100,26,1,1,"deliberative",4,1,NA,NA
"1727",1100,27,1,1,"deliberative",4,1,NA,NA
"1728",1100,28,1,1,"deliberative",4,1,NA,NA
"1729",1100,29,1,1,"deliberative",4,1,NA,NA
"1730",1100,30,1,1,"deliberative",4,1,NA,NA
"1731",1100,11,1,1,"deliberative",3,0,NA,NA
"1732",1100,12,1,1,"deliberative",2,0,NA,NA
"1733",1100,13,1,1,"deliberative",2,0,NA,NA
"1734",1100,14,1,1,"deliberative",3,0,NA,NA
"1735",1100,15,1,1,"deliberative",4,0,NA,NA
"1736",1100,16,1,1,"deliberative",1,0,NA,NA
"1737",1100,17,1,1,"deliberative",2,0,NA,NA
"1738",1100,18,1,1,"deliberative",2,0,NA,NA
"1739",1100,19,1,1,"deliberative",4,0,NA,NA
"1740",1100,20,1,1,"deliberative",5,0,NA,NA
"1741",1106,21,1,1,"intuitive",4,1,NA,NA
"1742",1106,22,1,1,"intuitive",3,1,NA,NA
"1743",1106,23,1,1,"intuitive",3,1,NA,NA
"1744",1106,24,1,1,"intuitive",4,1,NA,NA
"1745",1106,25,1,1,"intuitive",3,1,NA,NA
"1746",1106,26,1,1,"intuitive",4,1,NA,NA
"1747",1106,27,1,1,"intuitive",3,1,NA,NA
"1748",1106,28,1,1,"intuitive",4,1,NA,NA
"1749",1106,29,1,1,"intuitive",4,1,NA,NA
"1750",1106,30,1,1,"intuitive",1,1,NA,NA
"1751",1106,11,1,1,"intuitive",4,0,NA,NA
"1752",1106,12,1,1,"intuitive",2,0,NA,NA
"1753",1106,13,1,1,"intuitive",3,0,NA,NA
"1754",1106,14,1,1,"intuitive",1,0,NA,NA
"1755",1106,15,1,1,"intuitive",1,0,NA,NA
"1756",1106,16,1,1,"intuitive",4,0,NA,NA
"1757",1106,17,1,1,"intuitive",4,0,NA,NA
"1758",1106,18,1,1,"intuitive",1,0,NA,NA
"1759",1106,19,1,1,"intuitive",2,0,NA,NA
"1760",1106,20,1,1,"intuitive",5,0,NA,NA
"1761",1108,1,1,1,"intuitive",4,0,NA,NA
"1762",1108,2,1,1,"intuitive",4,0,NA,NA
"1763",1108,3,1,1,"intuitive",4,0,NA,NA
"1764",1108,4,1,1,"intuitive",3,0,NA,NA
"1765",1108,5,1,1,"intuitive",3,0,NA,NA
"1766",1108,6,1,1,"intuitive",3,0,NA,NA
"1767",1108,7,1,1,"intuitive",3,0,NA,NA
"1768",1108,8,1,1,"intuitive",3,0,NA,NA
"1769",1108,9,1,1,"intuitive",1,0,NA,NA
"1770",1108,10,1,1,"intuitive",1,0,NA,NA
"1771",1108,21,1,1,"intuitive",3,1,NA,NA
"1772",1108,22,1,1,"intuitive",3,1,NA,NA
"1773",1108,23,1,1,"intuitive",3,1,NA,NA
"1774",1108,24,1,1,"intuitive",3,1,NA,NA
"1775",1108,25,1,1,"intuitive",3,1,NA,NA
"1776",1108,26,1,1,"intuitive",3,1,NA,NA
"1777",1108,27,1,1,"intuitive",4,1,NA,NA
"1778",1108,28,1,1,"intuitive",3,1,NA,NA
"1779",1108,29,1,1,"intuitive",3,1,NA,NA
"1780",1108,30,1,1,"intuitive",2,1,NA,NA
"1781",1113,1,1,1,"intuitive",2,1,NA,NA
"1782",1113,2,1,1,"intuitive",3,1,NA,NA
"1783",1113,3,1,1,"intuitive",1,1,NA,NA
"1784",1113,4,1,1,"intuitive",5,1,NA,NA
"1785",1113,5,1,1,"intuitive",3,1,NA,NA
"1786",1113,6,1,1,"intuitive",3,1,NA,NA
"1787",1113,7,1,1,"intuitive",3,1,NA,NA
"1788",1113,8,1,1,"intuitive",3,1,NA,NA
"1789",1113,9,1,1,"intuitive",5,1,NA,NA
"1790",1113,10,1,1,"intuitive",3,1,NA,NA
"1791",1113,11,1,1,"intuitive",3,0,NA,NA
"1792",1113,12,1,1,"intuitive",3,0,NA,NA
"1793",1113,13,1,1,"intuitive",1,0,NA,NA
"1794",1113,14,1,1,"intuitive",1,0,NA,NA
"1795",1113,15,1,1,"intuitive",3,0,NA,NA
"1796",1113,16,1,1,"intuitive",5,0,NA,NA
"1797",1113,17,1,1,"intuitive",3,0,NA,NA
"1798",1113,18,1,1,"intuitive",3,0,NA,NA
"1799",1113,19,1,1,"intuitive",5,0,NA,NA
"1800",1113,20,1,1,"intuitive",5,0,NA,NA
"1801",1117,1,1,1,"deliberative",3,1,NA,NA
"1802",1117,2,1,1,"deliberative",2,1,NA,NA
"1803",1117,3,1,1,"deliberative",3,1,NA,NA
"1804",1117,4,1,1,"deliberative",3,1,NA,NA
"1805",1117,5,1,1,"deliberative",3,1,NA,NA
"1806",1117,6,1,1,"deliberative",3,1,NA,NA
"1807",1117,7,1,1,"deliberative",3,1,NA,NA
"1808",1117,8,1,1,"deliberative",3,1,NA,NA
"1809",1117,9,1,1,"deliberative",3,1,NA,NA
"1810",1117,10,1,1,"deliberative",3,1,NA,NA
"1811",1117,11,1,1,"deliberative",3,0,NA,NA
"1812",1117,12,1,1,"deliberative",2,0,NA,NA
"1813",1117,13,1,1,"deliberative",2,0,NA,NA
"1814",1117,14,1,1,"deliberative",3,0,NA,NA
"1815",1117,15,1,1,"deliberative",3,0,NA,NA
"1816",1117,16,1,1,"deliberative",3,0,NA,NA
"1817",1117,17,1,1,"deliberative",3,0,NA,NA
"1818",1117,18,1,1,"deliberative",2,0,NA,NA
"1819",1117,19,1,1,"deliberative",3,0,NA,NA
"1820",1117,20,1,1,"deliberative",4,0,NA,NA
"1821",1119,1,1,1,"intuitive",3,0,NA,NA
"1822",1119,2,1,1,"intuitive",3,0,NA,NA
"1823",1119,3,1,1,"intuitive",3,0,NA,NA
"1824",1119,4,1,1,"intuitive",3,0,NA,NA
"1825",1119,5,1,1,"intuitive",4,0,NA,NA
"1826",1119,6,1,1,"intuitive",3,0,NA,NA
"1827",1119,7,1,1,"intuitive",3,0,NA,NA
"1828",1119,8,1,1,"intuitive",3,0,NA,NA
"1829",1119,9,1,1,"intuitive",3,0,NA,NA
"1830",1119,10,1,1,"intuitive",3,0,NA,NA
"1831",1119,11,1,1,"intuitive",3,1,NA,NA
"1832",1119,12,1,1,"intuitive",3,1,NA,NA
"1833",1119,13,1,1,"intuitive",3,1,NA,NA
"1834",1119,14,1,1,"intuitive",4,1,NA,NA
"1835",1119,15,1,1,"intuitive",3,1,NA,NA
"1836",1119,16,1,1,"intuitive",3,1,NA,NA
"1837",1119,17,1,1,"intuitive",3,1,NA,NA
"1838",1119,18,1,1,"intuitive",4,1,NA,NA
"1839",1119,19,1,1,"intuitive",3,1,NA,NA
"1840",1119,20,1,1,"intuitive",5,1,NA,NA
"1841",1121,1,1,1,"deliberative",5,0,NA,NA
"1842",1121,2,1,1,"deliberative",4,0,NA,NA
"1843",1121,3,1,1,"deliberative",3,0,NA,NA
"1844",1121,4,1,1,"deliberative",4,0,NA,NA
"1845",1121,5,1,1,"deliberative",2,0,NA,NA
"1846",1121,6,1,1,"deliberative",3,0,NA,NA
"1847",1121,7,1,1,"deliberative",4,0,NA,NA
"1848",1121,8,1,1,"deliberative",3,0,NA,NA
"1849",1121,9,1,1,"deliberative",3,0,NA,NA
"1850",1121,10,1,1,"deliberative",4,0,NA,NA
"1851",1121,21,1,1,"deliberative",4,1,NA,NA
"1852",1121,22,1,1,"deliberative",4,1,NA,NA
"1853",1121,23,1,1,"deliberative",4,1,NA,NA
"1854",1121,24,1,1,"deliberative",4,1,NA,NA
"1855",1121,25,1,1,"deliberative",4,1,NA,NA
"1856",1121,26,1,1,"deliberative",4,1,NA,NA
"1857",1121,27,1,1,"deliberative",4,1,NA,NA
"1858",1121,28,1,1,"deliberative",4,1,NA,NA
"1859",1121,29,1,1,"deliberative",4,1,NA,NA
"1860",1121,30,1,1,"deliberative",4,1,NA,NA
"1861",1124,21,1,1,"intuitive",3,0,NA,NA
"1862",1124,22,1,1,"intuitive",3,0,NA,NA
"1863",1124,23,1,1,"intuitive",4,0,NA,NA
"1864",1124,24,1,1,"intuitive",3,0,NA,NA
"1865",1124,25,1,1,"intuitive",3,0,NA,NA
"1866",1124,26,1,1,"intuitive",4,0,NA,NA
"1867",1124,27,1,1,"intuitive",4,0,NA,NA
"1868",1124,28,1,1,"intuitive",3,0,NA,NA
"1869",1124,29,1,1,"intuitive",3,0,NA,NA
"1870",1124,30,1,1,"intuitive",2,0,NA,NA
"1871",1124,11,1,1,"intuitive",4,1,NA,NA
"1872",1124,12,1,1,"intuitive",3,1,NA,NA
"1873",1124,13,1,1,"intuitive",3,1,NA,NA
"1874",1124,14,1,1,"intuitive",2,1,NA,NA
"1875",1124,15,1,1,"intuitive",4,1,NA,NA
"1876",1124,16,1,1,"intuitive",3,1,NA,NA
"1877",1124,17,1,1,"intuitive",4,1,NA,NA
"1878",1124,18,1,1,"intuitive",4,1,NA,NA
"1879",1124,19,1,1,"intuitive",2,1,NA,NA
"1880",1124,20,1,1,"intuitive",3,1,NA,NA
"1881",1130,1,1,1,"deliberative",4,0,NA,NA
"1882",1130,2,1,1,"deliberative",4,0,NA,NA
"1883",1130,3,1,1,"deliberative",4,0,NA,NA
"1884",1130,4,1,1,"deliberative",3,0,NA,NA
"1885",1130,5,1,1,"deliberative",4,0,NA,NA
"1886",1130,6,1,1,"deliberative",3,0,NA,NA
"1887",1130,7,1,1,"deliberative",3,0,NA,NA
"1888",1130,8,1,1,"deliberative",3,0,NA,NA
"1889",1130,9,1,1,"deliberative",1,0,NA,NA
"1890",1130,10,1,1,"deliberative",1,0,NA,NA
"1891",1130,11,1,1,"deliberative",3,1,NA,NA
"1892",1130,12,1,1,"deliberative",4,1,NA,NA
"1893",1130,13,1,1,"deliberative",5,1,NA,NA
"1894",1130,14,1,1,"deliberative",1,1,NA,NA
"1895",1130,15,1,1,"deliberative",4,1,NA,NA
"1896",1130,16,1,1,"deliberative",3,1,NA,NA
"1897",1130,17,1,1,"deliberative",5,1,NA,NA
"1898",1130,18,1,1,"deliberative",4,1,NA,NA
"1899",1130,19,1,1,"deliberative",3,1,NA,NA
"1900",1130,20,1,1,"deliberative",5,1,NA,NA
"1901",1131,21,1,1,"intuitive",4,1,NA,NA
"1902",1131,22,1,1,"intuitive",4,1,NA,NA
"1903",1131,23,1,1,"intuitive",4,1,NA,NA
"1904",1131,24,1,1,"intuitive",4,1,NA,NA
"1905",1131,25,1,1,"intuitive",3,1,NA,NA
"1906",1131,26,1,1,"intuitive",3,1,NA,NA
"1907",1131,27,1,1,"intuitive",4,1,NA,NA
"1908",1131,28,1,1,"intuitive",4,1,NA,NA
"1909",1131,29,1,1,"intuitive",4,1,NA,NA
"1910",1131,30,1,1,"intuitive",3,1,NA,NA
"1911",1131,11,1,1,"intuitive",3,0,NA,NA
"1912",1131,12,1,1,"intuitive",4,0,NA,NA
"1913",1131,13,1,1,"intuitive",3,0,NA,NA
"1914",1131,14,1,1,"intuitive",3,0,NA,NA
"1915",1131,15,1,1,"intuitive",3,0,NA,NA
"1916",1131,16,1,1,"intuitive",2,0,NA,NA
"1917",1131,17,1,1,"intuitive",3,0,NA,NA
"1918",1131,18,1,1,"intuitive",3,0,NA,NA
"1919",1131,19,1,1,"intuitive",3,0,NA,NA
"1920",1131,20,1,1,"intuitive",3,0,NA,NA
"1921",1133,1,1,1,"deliberative",5,1,NA,NA
"1922",1133,2,1,1,"deliberative",5,1,NA,NA
"1923",1133,3,1,1,"deliberative",5,1,NA,NA
"1924",1133,4,1,1,"deliberative",5,1,NA,NA
"1925",1133,5,1,1,"deliberative",5,1,NA,NA
"1926",1133,6,1,1,"deliberative",5,1,NA,NA
"1927",1133,7,1,1,"deliberative",5,1,NA,NA
"1928",1133,8,1,1,"deliberative",5,1,NA,NA
"1929",1133,9,1,1,"deliberative",5,1,NA,NA
"1930",1133,10,1,1,"deliberative",4,1,NA,NA
"1931",1133,21,1,1,"deliberative",4,0,NA,NA
"1932",1133,22,1,1,"deliberative",3,0,NA,NA
"1933",1133,23,1,1,"deliberative",3,0,NA,NA
"1934",1133,24,1,1,"deliberative",3,0,NA,NA
"1935",1133,25,1,1,"deliberative",3,0,NA,NA
"1936",1133,26,1,1,"deliberative",4,0,NA,NA
"1937",1133,27,1,1,"deliberative",3,0,NA,NA
"1938",1133,28,1,1,"deliberative",4,0,NA,NA
"1939",1133,29,1,1,"deliberative",4,0,NA,NA
"1940",1133,30,1,1,"deliberative",2,0,NA,NA
"1941",1134,1,1,1,"intuitive",4,1,NA,NA
"1942",1134,2,1,1,"intuitive",4,1,NA,NA
"1943",1134,3,1,1,"intuitive",4,1,NA,NA
"1944",1134,4,1,1,"intuitive",3,1,NA,NA
"1945",1134,5,1,1,"intuitive",2,1,NA,NA
"1946",1134,6,1,1,"intuitive",3,1,NA,NA
"1947",1134,7,1,1,"intuitive",4,1,NA,NA
"1948",1134,8,1,1,"intuitive",3,1,NA,NA
"1949",1134,9,1,1,"intuitive",3,1,NA,NA
"1950",1134,10,1,1,"intuitive",3,1,NA,NA
"1951",1134,21,1,1,"intuitive",4,0,NA,NA
"1952",1134,22,1,1,"intuitive",3,0,NA,NA
"1953",1134,23,1,1,"intuitive",3,0,NA,NA
"1954",1134,24,1,1,"intuitive",2,0,NA,NA
"1955",1134,25,1,1,"intuitive",3,0,NA,NA
"1956",1134,26,1,1,"intuitive",1,0,NA,NA
"1957",1134,27,1,1,"intuitive",3,0,NA,NA
"1958",1134,28,1,1,"intuitive",3,0,NA,NA
"1959",1134,29,1,1,"intuitive",3,0,NA,NA
"1960",1134,30,1,1,"intuitive",4,0,NA,NA
"1961",1136,1,1,1,"intuitive",2,1,NA,NA
"1962",1136,2,1,1,"intuitive",5,1,NA,NA
"1963",1136,3,1,1,"intuitive",5,1,NA,NA
"1964",1136,4,1,1,"intuitive",5,1,NA,NA
"1965",1136,5,1,1,"intuitive",5,1,NA,NA
"1966",1136,6,1,1,"intuitive",5,1,NA,NA
"1967",1136,7,1,1,"intuitive",5,1,NA,NA
"1968",1136,8,1,1,"intuitive",1,1,NA,NA
"1969",1136,9,1,1,"intuitive",5,1,NA,NA
"1970",1136,10,1,1,"intuitive",5,1,NA,NA
"1971",1136,11,1,1,"intuitive",5,0,NA,NA
"1972",1136,12,1,1,"intuitive",5,0,NA,NA
"1973",1136,13,1,1,"intuitive",5,0,NA,NA
"1974",1136,14,1,1,"intuitive",5,0,NA,NA
"1975",1136,15,1,1,"intuitive",1,0,NA,NA
"1976",1136,16,1,1,"intuitive",5,0,NA,NA
"1977",1136,17,1,1,"intuitive",5,0,NA,NA
"1978",1136,18,1,1,"intuitive",1,0,NA,NA
"1979",1136,19,1,1,"intuitive",1,0,NA,NA
"1980",1136,20,1,1,"intuitive",5,0,NA,NA
"1981",1138,1,1,1,"intuitive",5,1,NA,NA
"1982",1138,2,1,1,"intuitive",5,1,NA,NA
"1983",1138,3,1,1,"intuitive",2,1,NA,NA
"1984",1138,4,1,1,"intuitive",4,1,NA,NA
"1985",1138,5,1,1,"intuitive",4,1,NA,NA
"1986",1138,6,1,1,"intuitive",4,1,NA,NA
"1987",1138,7,1,1,"intuitive",4,1,NA,NA
"1988",1138,8,1,1,"intuitive",5,1,NA,NA
"1989",1138,9,1,1,"intuitive",5,1,NA,NA
"1990",1138,10,1,1,"intuitive",4,1,NA,NA
"1991",1138,21,1,1,"intuitive",4,0,NA,NA
"1992",1138,22,1,1,"intuitive",3,0,NA,NA
"1993",1138,23,1,1,"intuitive",5,0,NA,NA
"1994",1138,24,1,1,"intuitive",2,0,NA,NA
"1995",1138,25,1,1,"intuitive",3,0,NA,NA
"1996",1138,26,1,1,"intuitive",5,0,NA,NA
"1997",1138,27,1,1,"intuitive",1,0,NA,NA
"1998",1138,28,1,1,"intuitive",3,0,NA,NA
"1999",1138,29,1,1,"intuitive",4,0,NA,NA
"2000",1138,30,1,1,"intuitive",2,0,NA,NA
"2001",1139,21,1,1,"deliberative",3,0,NA,NA
"2002",1139,22,1,1,"deliberative",3,0,NA,NA
"2003",1139,23,1,1,"deliberative",3,0,NA,NA
"2004",1139,24,1,1,"deliberative",3,0,NA,NA
"2005",1139,25,1,1,"deliberative",3,0,NA,NA
"2006",1139,26,1,1,"deliberative",3,0,NA,NA
"2007",1139,27,1,1,"deliberative",3,0,NA,NA
"2008",1139,28,1,1,"deliberative",3,0,NA,NA
"2009",1139,29,1,1,"deliberative",3,0,NA,NA
"2010",1139,30,1,1,"deliberative",5,0,NA,NA
"2011",1139,11,1,1,"deliberative",3,1,NA,NA
"2012",1139,12,1,1,"deliberative",3,1,NA,NA
"2013",1139,13,1,1,"deliberative",3,1,NA,NA
"2014",1139,14,1,1,"deliberative",3,1,NA,NA
"2015",1139,15,1,1,"deliberative",3,1,NA,NA
"2016",1139,16,1,1,"deliberative",4,1,NA,NA
"2017",1139,17,1,1,"deliberative",3,1,NA,NA
"2018",1139,18,1,1,"deliberative",3,1,NA,NA
"2019",1139,19,1,1,"deliberative",3,1,NA,NA
"2020",1139,20,1,1,"deliberative",5,1,NA,NA
"2021",1141,21,1,1,"intuitive",3,0,NA,NA
"2022",1141,22,1,1,"intuitive",3,0,NA,NA
"2023",1141,23,1,1,"intuitive",4,0,NA,NA
"2024",1141,24,1,1,"intuitive",3,0,NA,NA
"2025",1141,25,1,1,"intuitive",1,0,NA,NA
"2026",1141,26,1,1,"intuitive",5,0,NA,NA
"2027",1141,27,1,1,"intuitive",3,0,NA,NA
"2028",1141,28,1,1,"intuitive",1,0,NA,NA
"2029",1141,29,1,1,"intuitive",1,0,NA,NA
"2030",1141,30,1,1,"intuitive",1,0,NA,NA
"2031",1141,11,1,1,"intuitive",5,1,NA,NA
"2032",1141,12,1,1,"intuitive",3,1,NA,NA
"2033",1141,13,1,1,"intuitive",3,1,NA,NA
"2034",1141,14,1,1,"intuitive",5,1,NA,NA
"2035",1141,15,1,1,"intuitive",5,1,NA,NA
"2036",1141,16,1,1,"intuitive",5,1,NA,NA
"2037",1141,17,1,1,"intuitive",1,1,NA,NA
"2038",1141,18,1,1,"intuitive",5,1,NA,NA
"2039",1141,19,1,1,"intuitive",4,1,NA,NA
"2040",1141,20,1,1,"intuitive",5,1,NA,NA
"2041",1144,1,1,1,"intuitive",3,0,NA,NA
"2042",1144,2,1,1,"intuitive",3,0,NA,NA
"2043",1144,3,1,1,"intuitive",3,0,NA,NA
"2044",1144,4,1,1,"intuitive",3,0,NA,NA
"2045",1144,5,1,1,"intuitive",3,0,NA,NA
"2046",1144,6,1,1,"intuitive",3,0,NA,NA
"2047",1144,7,1,1,"intuitive",3,0,NA,NA
"2048",1144,8,1,1,"intuitive",4,0,NA,NA
"2049",1144,9,1,1,"intuitive",3,0,NA,NA
"2050",1144,10,1,1,"intuitive",3,0,NA,NA
"2051",1144,11,1,1,"intuitive",2,1,NA,NA
"2052",1144,12,1,1,"intuitive",5,1,NA,NA
"2053",1144,13,1,1,"intuitive",5,1,NA,NA
"2054",1144,14,1,1,"intuitive",3,1,NA,NA
"2055",1144,15,1,1,"intuitive",4,1,NA,NA
"2056",1144,16,1,1,"intuitive",1,1,NA,NA
"2057",1144,17,1,1,"intuitive",5,1,NA,NA
"2058",1144,18,1,1,"intuitive",5,1,NA,NA
"2059",1144,19,1,1,"intuitive",5,1,NA,NA
"2060",1144,20,1,1,"intuitive",5,1,NA,NA
"2061",1146,1,1,1,"deliberative",4,0,NA,NA
"2062",1146,2,1,1,"deliberative",3,0,NA,NA
"2063",1146,3,1,1,"deliberative",2,0,NA,NA
"2064",1146,4,1,1,"deliberative",4,0,NA,NA
"2065",1146,5,1,1,"deliberative",4,0,NA,NA
"2066",1146,6,1,1,"deliberative",4,0,NA,NA
"2067",1146,7,1,1,"deliberative",4,0,NA,NA
"2068",1146,8,1,1,"deliberative",4,0,NA,NA
"2069",1146,9,1,1,"deliberative",4,0,NA,NA
"2070",1146,10,1,1,"deliberative",2,0,NA,NA
"2071",1146,21,1,1,"deliberative",2,1,NA,NA
"2072",1146,22,1,1,"deliberative",3,1,NA,NA
"2073",1146,23,1,1,"deliberative",4,1,NA,NA
"2074",1146,24,1,1,"deliberative",2,1,NA,NA
"2075",1146,25,1,1,"deliberative",4,1,NA,NA
"2076",1146,26,1,1,"deliberative",2,1,NA,NA
"2077",1146,27,1,1,"deliberative",4,1,NA,NA
"2078",1146,28,1,1,"deliberative",2,1,NA,NA
"2079",1146,29,1,1,"deliberative",4,1,NA,NA
"2080",1146,30,1,1,"deliberative",2,1,NA,NA
"2081",1147,1,1,1,"deliberative",4,0,NA,NA
"2082",1147,2,1,1,"deliberative",3,0,NA,NA
"2083",1147,3,1,1,"deliberative",2,0,NA,NA
"2084",1147,4,1,1,"deliberative",4,0,NA,NA
"2085",1147,5,1,1,"deliberative",4,0,NA,NA
"2086",1147,6,1,1,"deliberative",3,0,NA,NA
"2087",1147,7,1,1,"deliberative",2,0,NA,NA
"2088",1147,8,1,1,"deliberative",3,0,NA,NA
"2089",1147,9,1,1,"deliberative",2,0,NA,NA
"2090",1147,10,1,1,"deliberative",2,0,NA,NA
"2091",1147,21,1,1,"deliberative",3,1,NA,NA
"2092",1147,22,1,1,"deliberative",3,1,NA,NA
"2093",1147,23,1,1,"deliberative",4,1,NA,NA
"2094",1147,24,1,1,"deliberative",3,1,NA,NA
"2095",1147,25,1,1,"deliberative",3,1,NA,NA
"2096",1147,26,1,1,"deliberative",4,1,NA,NA
"2097",1147,27,1,1,"deliberative",5,1,NA,NA
"2098",1147,28,1,1,"deliberative",3,1,NA,NA
"2099",1147,29,1,1,"deliberative",5,1,NA,NA
"2100",1147,30,1,1,"deliberative",3,1,NA,NA
"2101",1148,21,1,1,"intuitive",4,1,NA,NA
"2102",1148,22,1,1,"intuitive",4,1,NA,NA
"2103",1148,23,1,1,"intuitive",4,1,NA,NA
"2104",1148,24,1,1,"intuitive",4,1,NA,NA
"2105",1148,25,1,1,"intuitive",3,1,NA,NA
"2106",1148,26,1,1,"intuitive",3,1,NA,NA
"2107",1148,27,1,1,"intuitive",2,1,NA,NA
"2108",1148,28,1,1,"intuitive",1,1,NA,NA
"2109",1148,29,1,1,"intuitive",3,1,NA,NA
"2110",1148,30,1,1,"intuitive",1,1,NA,NA
"2111",1148,11,1,1,"intuitive",3,0,NA,NA
"2112",1148,12,1,1,"intuitive",4,0,NA,NA
"2113",1148,13,1,1,"intuitive",2,0,NA,NA
"2114",1148,14,1,1,"intuitive",2,0,NA,NA
"2115",1148,15,1,1,"intuitive",4,0,NA,NA
"2116",1148,16,1,1,"intuitive",2,0,NA,NA
"2117",1148,17,1,1,"intuitive",4,0,NA,NA
"2118",1148,18,1,1,"intuitive",2,0,NA,NA
"2119",1148,19,1,1,"intuitive",4,0,NA,NA
"2120",1148,20,1,1,"intuitive",5,0,NA,NA
"2121",1149,1,1,1,"deliberative",4,0,NA,NA
"2122",1149,2,1,1,"deliberative",4,0,NA,NA
"2123",1149,3,1,1,"deliberative",4,0,NA,NA
"2124",1149,4,1,1,"deliberative",3,0,NA,NA
"2125",1149,5,1,1,"deliberative",1,0,NA,NA
"2126",1149,6,1,1,"deliberative",3,0,NA,NA
"2127",1149,7,1,1,"deliberative",4,0,NA,NA
"2128",1149,8,1,1,"deliberative",3,0,NA,NA
"2129",1149,9,1,1,"deliberative",1,0,NA,NA
"2130",1149,10,1,1,"deliberative",4,0,NA,NA
"2131",1149,11,1,1,"deliberative",3,1,NA,NA
"2132",1149,12,1,1,"deliberative",2,1,NA,NA
"2133",1149,13,1,1,"deliberative",3,1,NA,NA
"2134",1149,14,1,1,"deliberative",3,1,NA,NA
"2135",1149,15,1,1,"deliberative",3,1,NA,NA
"2136",1149,16,1,1,"deliberative",3,1,NA,NA
"2137",1149,17,1,1,"deliberative",4,1,NA,NA
"2138",1149,18,1,1,"deliberative",3,1,NA,NA
"2139",1149,19,1,1,"deliberative",5,1,NA,NA
"2140",1149,20,1,1,"deliberative",5,1,NA,NA
"2141",1150,1,1,1,"intuitive",2,0,NA,NA
"2142",1150,2,1,1,"intuitive",4,0,NA,NA
"2143",1150,3,1,1,"intuitive",2,0,NA,NA
"2144",1150,4,1,1,"intuitive",4,0,NA,NA
"2145",1150,5,1,1,"intuitive",3,0,NA,NA
"2146",1150,6,1,1,"intuitive",4,0,NA,NA
"2147",1150,7,1,1,"intuitive",4,0,NA,NA
"2148",1150,8,1,1,"intuitive",3,0,NA,NA
"2149",1150,9,1,1,"intuitive",2,0,NA,NA
"2150",1150,10,1,1,"intuitive",2,0,NA,NA
"2151",1150,21,1,1,"intuitive",5,1,NA,NA
"2152",1150,22,1,1,"intuitive",2,1,NA,NA
"2153",1150,23,1,1,"intuitive",5,1,NA,NA
"2154",1150,24,1,1,"intuitive",5,1,NA,NA
"2155",1150,25,1,1,"intuitive",4,1,NA,NA
"2156",1150,26,1,1,"intuitive",5,1,NA,NA
"2157",1150,27,1,1,"intuitive",5,1,NA,NA
"2158",1150,28,1,1,"intuitive",5,1,NA,NA
"2159",1150,29,1,1,"intuitive",5,1,NA,NA
"2160",1150,30,1,1,"intuitive",4,1,NA,NA
"2161",1152,21,1,1,"deliberative",3,1,NA,NA
"2162",1152,22,1,1,"deliberative",2,1,NA,NA
"2163",1152,23,1,1,"deliberative",4,1,NA,NA
"2164",1152,24,1,1,"deliberative",2,1,NA,NA
"2165",1152,25,1,1,"deliberative",5,1,NA,NA
"2166",1152,26,1,1,"deliberative",1,1,NA,NA
"2167",1152,27,1,1,"deliberative",4,1,NA,NA
"2168",1152,28,1,1,"deliberative",1,1,NA,NA
"2169",1152,29,1,1,"deliberative",1,1,NA,NA
"2170",1152,30,1,1,"deliberative",1,1,NA,NA
"2171",1152,11,1,1,"deliberative",2,0,NA,NA
"2172",1152,12,1,1,"deliberative",2,0,NA,NA
"2173",1152,13,1,1,"deliberative",2,0,NA,NA
"2174",1152,14,1,1,"deliberative",4,0,NA,NA
"2175",1152,15,1,1,"deliberative",4,0,NA,NA
"2176",1152,16,1,1,"deliberative",4,0,NA,NA
"2177",1152,17,1,1,"deliberative",2,0,NA,NA
"2178",1152,18,1,1,"deliberative",3,0,NA,NA
"2179",1152,19,1,1,"deliberative",5,0,NA,NA
"2180",1152,20,1,1,"deliberative",2,0,NA,NA
"2181",1153,1,1,1,"deliberative",4,1,NA,NA
"2182",1153,2,1,1,"deliberative",4,1,NA,NA
"2183",1153,3,1,1,"deliberative",2,1,NA,NA
"2184",1153,4,1,1,"deliberative",3,1,NA,NA
"2185",1153,5,1,1,"deliberative",2,1,NA,NA
"2186",1153,6,1,1,"deliberative",4,1,NA,NA
"2187",1153,7,1,1,"deliberative",3,1,NA,NA
"2188",1153,8,1,1,"deliberative",3,1,NA,NA
"2189",1153,9,1,1,"deliberative",3,1,NA,NA
"2190",1153,10,1,1,"deliberative",3,1,NA,NA
"2191",1153,11,1,1,"deliberative",3,0,NA,NA
"2192",1153,12,1,1,"deliberative",2,0,NA,NA
"2193",1153,13,1,1,"deliberative",2,0,NA,NA
"2194",1153,14,1,1,"deliberative",2,0,NA,NA
"2195",1153,15,1,1,"deliberative",4,0,NA,NA
"2196",1153,16,1,1,"deliberative",4,0,NA,NA
"2197",1153,17,1,1,"deliberative",3,0,NA,NA
"2198",1153,18,1,1,"deliberative",3,0,NA,NA
"2199",1153,19,1,1,"deliberative",2,0,NA,NA
"2200",1153,20,1,1,"deliberative",4,0,NA,NA
"2201",1154,21,1,1,"intuitive",5,0,NA,NA
"2202",1154,22,1,1,"intuitive",4,0,NA,NA
"2203",1154,23,1,1,"intuitive",4,0,NA,NA
"2204",1154,24,1,1,"intuitive",4,0,NA,NA
"2205",1154,25,1,1,"intuitive",4,0,NA,NA
"2206",1154,26,1,1,"intuitive",3,0,NA,NA
"2207",1154,27,1,1,"intuitive",5,0,NA,NA
"2208",1154,28,1,1,"intuitive",3,0,NA,NA
"2209",1154,29,1,1,"intuitive",3,0,NA,NA
"2210",1154,30,1,1,"intuitive",1,0,NA,NA
"2211",1154,11,1,1,"intuitive",5,1,NA,NA
"2212",1154,12,1,1,"intuitive",5,1,NA,NA
"2213",1154,13,1,1,"intuitive",5,1,NA,NA
"2214",1154,14,1,1,"intuitive",4,1,NA,NA
"2215",1154,15,1,1,"intuitive",3,1,NA,NA
"2216",1154,16,1,1,"intuitive",5,1,NA,NA
"2217",1154,17,1,1,"intuitive",5,1,NA,NA
"2218",1154,18,1,1,"intuitive",3,1,NA,NA
"2219",1154,19,1,1,"intuitive",1,1,NA,NA
"2220",1154,20,1,1,"intuitive",1,1,NA,NA
"2221",1158,1,1,1,"deliberative",5,1,NA,NA
"2222",1158,2,1,1,"deliberative",4,1,NA,NA
"2223",1158,3,1,1,"deliberative",4,1,NA,NA
"2224",1158,4,1,1,"deliberative",3,1,NA,NA
"2225",1158,5,1,1,"deliberative",3,1,NA,NA
"2226",1158,6,1,1,"deliberative",3,1,NA,NA
"2227",1158,7,1,1,"deliberative",5,1,NA,NA
"2228",1158,8,1,1,"deliberative",4,1,NA,NA
"2229",1158,9,1,1,"deliberative",4,1,NA,NA
"2230",1158,10,1,1,"deliberative",3,1,NA,NA
"2231",1158,21,1,1,"deliberative",5,0,NA,NA
"2232",1158,22,1,1,"deliberative",3,0,NA,NA
"2233",1158,23,1,1,"deliberative",5,0,NA,NA
"2234",1158,24,1,1,"deliberative",5,0,NA,NA
"2235",1158,25,1,1,"deliberative",3,0,NA,NA
"2236",1158,26,1,1,"deliberative",4,0,NA,NA
"2237",1158,27,1,1,"deliberative",4,0,NA,NA
"2238",1158,28,1,1,"deliberative",3,0,NA,NA
"2239",1158,29,1,1,"deliberative",5,0,NA,NA
"2240",1158,30,1,1,"deliberative",2,0,NA,NA
"2241",1159,21,1,1,"deliberative",3,0,NA,NA
"2242",1159,22,1,1,"deliberative",3,0,NA,NA
"2243",1159,23,1,1,"deliberative",3,0,NA,NA
"2244",1159,24,1,1,"deliberative",3,0,NA,NA
"2245",1159,25,1,1,"deliberative",3,0,NA,NA
"2246",1159,26,1,1,"deliberative",3,0,NA,NA
"2247",1159,27,1,1,"deliberative",3,0,NA,NA
"2248",1159,28,1,1,"deliberative",3,0,NA,NA
"2249",1159,29,1,1,"deliberative",3,0,NA,NA
"2250",1159,30,1,1,"deliberative",3,0,NA,NA
"2251",1159,11,1,1,"deliberative",3,1,NA,NA
"2252",1159,12,1,1,"deliberative",3,1,NA,NA
"2253",1159,13,1,1,"deliberative",3,1,NA,NA
"2254",1159,14,1,1,"deliberative",3,1,NA,NA
"2255",1159,15,1,1,"deliberative",3,1,NA,NA
"2256",1159,16,1,1,"deliberative",3,1,NA,NA
"2257",1159,17,1,1,"deliberative",3,1,NA,NA
"2258",1159,18,1,1,"deliberative",3,1,NA,NA
"2259",1159,19,1,1,"deliberative",3,1,NA,NA
"2260",1159,20,1,1,"deliberative",3,1,NA,NA
"2261",1165,21,1,1,"intuitive",3,1,NA,NA
"2262",1165,22,1,1,"intuitive",5,1,NA,NA
"2263",1165,23,1,1,"intuitive",5,1,NA,NA
"2264",1165,24,1,1,"intuitive",5,1,NA,NA
"2265",1165,25,1,1,"intuitive",5,1,NA,NA
"2266",1165,26,1,1,"intuitive",5,1,NA,NA
"2267",1165,27,1,1,"intuitive",4,1,NA,NA
"2268",1165,28,1,1,"intuitive",5,1,NA,NA
"2269",1165,29,1,1,"intuitive",2,1,NA,NA
"2270",1165,30,1,1,"intuitive",5,1,NA,NA
"2271",1165,11,1,1,"intuitive",1,0,NA,NA
"2272",1165,12,1,1,"intuitive",4,0,NA,NA
"2273",1165,13,1,1,"intuitive",3,0,NA,NA
"2274",1165,14,1,1,"intuitive",2,0,NA,NA
"2275",1165,15,1,1,"intuitive",1,0,NA,NA
"2276",1165,16,1,1,"intuitive",3,0,NA,NA
"2277",1165,17,1,1,"intuitive",3,0,NA,NA
"2278",1165,18,1,1,"intuitive",3,0,NA,NA
"2279",1165,19,1,1,"intuitive",1,0,NA,NA
"2280",1165,20,1,1,"intuitive",5,0,NA,NA
"2281",1166,1,1,1,"deliberative",4,0,NA,NA
"2282",1166,2,1,1,"deliberative",4,0,NA,NA
"2283",1166,3,1,1,"deliberative",4,0,NA,NA
"2284",1166,4,1,1,"deliberative",4,0,NA,NA
"2285",1166,5,1,1,"deliberative",2,0,NA,NA
"2286",1166,6,1,1,"deliberative",3,0,NA,NA
"2287",1166,7,1,1,"deliberative",3,0,NA,NA
"2288",1166,8,1,1,"deliberative",3,0,NA,NA
"2289",1166,9,1,1,"deliberative",3,0,NA,NA
"2290",1166,10,1,1,"deliberative",3,0,NA,NA
"2291",1166,11,1,1,"deliberative",3,1,NA,NA
"2292",1166,12,1,1,"deliberative",3,1,NA,NA
"2293",1166,13,1,1,"deliberative",3,1,NA,NA
"2294",1166,14,1,1,"deliberative",4,1,NA,NA
"2295",1166,15,1,1,"deliberative",3,1,NA,NA
"2296",1166,16,1,1,"deliberative",3,1,NA,NA
"2297",1166,17,1,1,"deliberative",3,1,NA,NA
"2298",1166,18,1,1,"deliberative",3,1,NA,NA
"2299",1166,19,1,1,"deliberative",3,1,NA,NA
"2300",1166,20,1,1,"deliberative",3,1,NA,NA
"2301",1169,1,1,1,"intuitive",2,1,NA,NA
"2302",1169,2,1,1,"intuitive",3,1,NA,NA
"2303",1169,3,1,1,"intuitive",4,1,NA,NA
"2304",1169,4,1,1,"intuitive",4,1,NA,NA
"2305",1169,5,1,1,"intuitive",5,1,NA,NA
"2306",1169,6,1,1,"intuitive",4,1,NA,NA
"2307",1169,7,1,1,"intuitive",4,1,NA,NA
"2308",1169,8,1,1,"intuitive",3,1,NA,NA
"2309",1169,9,1,1,"intuitive",1,1,NA,NA
"2310",1169,10,1,1,"intuitive",4,1,NA,NA
"2311",1169,21,1,1,"intuitive",3,0,NA,NA
"2312",1169,22,1,1,"intuitive",3,0,NA,NA
"2313",1169,23,1,1,"intuitive",4,0,NA,NA
"2314",1169,24,1,1,"intuitive",3,0,NA,NA
"2315",1169,25,1,1,"intuitive",3,0,NA,NA
"2316",1169,26,1,1,"intuitive",3,0,NA,NA
"2317",1169,27,1,1,"intuitive",5,0,NA,NA
"2318",1169,28,1,1,"intuitive",4,0,NA,NA
"2319",1169,29,1,1,"intuitive",3,0,NA,NA
"2320",1169,30,1,1,"intuitive",1,0,NA,NA
"2321",1170,1,1,1,"intuitive",5,1,NA,NA
"2322",1170,2,1,1,"intuitive",5,1,NA,NA
"2323",1170,3,1,1,"intuitive",5,1,NA,NA
"2324",1170,4,1,1,"intuitive",5,1,NA,NA
"2325",1170,5,1,1,"intuitive",5,1,NA,NA
"2326",1170,6,1,1,"intuitive",5,1,NA,NA
"2327",1170,7,1,1,"intuitive",5,1,NA,NA
"2328",1170,8,1,1,"intuitive",5,1,NA,NA
"2329",1170,9,1,1,"intuitive",5,1,NA,NA
"2330",1170,10,1,1,"intuitive",5,1,NA,NA
"2331",1170,11,1,1,"intuitive",3,0,NA,NA
"2332",1170,12,1,1,"intuitive",3,0,NA,NA
"2333",1170,13,1,1,"intuitive",3,0,NA,NA
"2334",1170,14,1,1,"intuitive",3,0,NA,NA
"2335",1170,15,1,1,"intuitive",3,0,NA,NA
"2336",1170,16,1,1,"intuitive",4,0,NA,NA
"2337",1170,17,1,1,"intuitive",4,0,NA,NA
"2338",1170,18,1,1,"intuitive",2,0,NA,NA
"2339",1170,19,1,1,"intuitive",3,0,NA,NA
"2340",1170,20,1,1,"intuitive",3,0,NA,NA
"2341",1172,1,1,1,"deliberative",5,1,NA,NA
"2342",1172,2,1,1,"deliberative",3,1,NA,NA
"2343",1172,3,1,1,"deliberative",4,1,NA,NA
"2344",1172,4,1,1,"deliberative",4,1,NA,NA
"2345",1172,5,1,1,"deliberative",1,1,NA,NA
"2346",1172,6,1,1,"deliberative",3,1,NA,NA
"2347",1172,7,1,1,"deliberative",1,1,NA,NA
"2348",1172,8,1,1,"deliberative",3,1,NA,NA
"2349",1172,9,1,1,"deliberative",1,1,NA,NA
"2350",1172,10,1,1,"deliberative",1,1,NA,NA
"2351",1172,11,1,1,"deliberative",3,0,NA,NA
"2352",1172,12,1,1,"deliberative",4,0,NA,NA
"2353",1172,13,1,1,"deliberative",3,0,NA,NA
"2354",1172,14,1,1,"deliberative",3,0,NA,NA
"2355",1172,15,1,1,"deliberative",2,0,NA,NA
"2356",1172,16,1,1,"deliberative",4,0,NA,NA
"2357",1172,17,1,1,"deliberative",3,0,NA,NA
"2358",1172,18,1,1,"deliberative",3,0,NA,NA
"2359",1172,19,1,1,"deliberative",5,0,NA,NA
"2360",1172,20,1,1,"deliberative",1,0,NA,NA
"2361",1177,21,1,1,"intuitive",4,1,NA,NA
"2362",1177,22,1,1,"intuitive",3,1,NA,NA
"2363",1177,23,1,1,"intuitive",3,1,NA,NA
"2364",1177,24,1,1,"intuitive",2,1,NA,NA
"2365",1177,25,1,1,"intuitive",2,1,NA,NA
"2366",1177,26,1,1,"intuitive",2,1,NA,NA
"2367",1177,27,1,1,"intuitive",4,1,NA,NA
"2368",1177,28,1,1,"intuitive",1,1,NA,NA
"2369",1177,29,1,1,"intuitive",4,1,NA,NA
"2370",1177,30,1,1,"intuitive",2,1,NA,NA
"2371",1177,11,1,1,"intuitive",2,0,NA,NA
"2372",1177,12,1,1,"intuitive",2,0,NA,NA
"2373",1177,13,1,1,"intuitive",3,0,NA,NA
"2374",1177,14,1,1,"intuitive",3,0,NA,NA
"2375",1177,15,1,1,"intuitive",5,0,NA,NA
"2376",1177,16,1,1,"intuitive",3,0,NA,NA
"2377",1177,17,1,1,"intuitive",3,0,NA,NA
"2378",1177,18,1,1,"intuitive",2,0,NA,NA
"2379",1177,19,1,1,"intuitive",4,0,NA,NA
"2380",1177,20,1,1,"intuitive",4,0,NA,NA
"2381",1179,1,1,1,"deliberative",4,1,NA,NA
"2382",1179,2,1,1,"deliberative",2,1,NA,NA
"2383",1179,3,1,1,"deliberative",2,1,NA,NA
"2384",1179,4,1,1,"deliberative",2,1,NA,NA
"2385",1179,5,1,1,"deliberative",1,1,NA,NA
"2386",1179,6,1,1,"deliberative",3,1,NA,NA
"2387",1179,7,1,1,"deliberative",4,1,NA,NA
"2388",1179,8,1,1,"deliberative",2,1,NA,NA
"2389",1179,9,1,1,"deliberative",5,1,NA,NA
"2390",1179,10,1,1,"deliberative",1,1,NA,NA
"2391",1179,21,1,1,"deliberative",2,0,NA,NA
"2392",1179,22,1,1,"deliberative",3,0,NA,NA
"2393",1179,23,1,1,"deliberative",3,0,NA,NA
"2394",1179,24,1,1,"deliberative",3,0,NA,NA
"2395",1179,25,1,1,"deliberative",2,0,NA,NA
"2396",1179,26,1,1,"deliberative",1,0,NA,NA
"2397",1179,27,1,1,"deliberative",2,0,NA,NA
"2398",1179,28,1,1,"deliberative",1,0,NA,NA
"2399",1179,29,1,1,"deliberative",4,0,NA,NA
"2400",1179,30,1,1,"deliberative",1,0,NA,NA
"2401",1182,21,1,1,"intuitive",3,0,NA,NA
"2402",1182,22,1,1,"intuitive",3,0,NA,NA
"2403",1182,23,1,1,"intuitive",3,0,NA,NA
"2404",1182,24,1,1,"intuitive",1,0,NA,NA
"2405",1182,25,1,1,"intuitive",3,0,NA,NA
"2406",1182,26,1,1,"intuitive",3,0,NA,NA
"2407",1182,27,1,1,"intuitive",3,0,NA,NA
"2408",1182,28,1,1,"intuitive",3,0,NA,NA
"2409",1182,29,1,1,"intuitive",3,0,NA,NA
"2410",1182,30,1,1,"intuitive",3,0,NA,NA
"2411",1182,11,1,1,"intuitive",3,1,NA,NA
"2412",1182,12,1,1,"intuitive",2,1,NA,NA
"2413",1182,13,1,1,"intuitive",4,1,NA,NA
"2414",1182,14,1,1,"intuitive",4,1,NA,NA
"2415",1182,15,1,1,"intuitive",1,1,NA,NA
"2416",1182,16,1,1,"intuitive",2,1,NA,NA
"2417",1182,17,1,1,"intuitive",3,1,NA,NA
"2418",1182,18,1,1,"intuitive",3,1,NA,NA
"2419",1182,19,1,1,"intuitive",1,1,NA,NA
"2420",1182,20,1,1,"intuitive",4,1,NA,NA
"2421",1184,21,1,1,"deliberative",3,0,NA,NA
"2422",1184,22,1,1,"deliberative",1,0,NA,NA
"2423",1184,23,1,1,"deliberative",4,0,NA,NA
"2424",1184,24,1,1,"deliberative",1,0,NA,NA
"2425",1184,25,1,1,"deliberative",3,0,NA,NA
"2426",1184,26,1,1,"deliberative",1,0,NA,NA
"2427",1184,27,1,1,"deliberative",3,0,NA,NA
"2428",1184,28,1,1,"deliberative",3,0,NA,NA
"2429",1184,29,1,1,"deliberative",1,0,NA,NA
"2430",1184,30,1,1,"deliberative",3,0,NA,NA
"2431",1184,11,1,1,"deliberative",3,1,NA,NA
"2432",1184,12,1,1,"deliberative",1,1,NA,NA
"2433",1184,13,1,1,"deliberative",3,1,NA,NA
"2434",1184,14,1,1,"deliberative",4,1,NA,NA
