"","subject","statement_identifier","presentation_identifier","within_identifier","between_identifier","response","repeated","rt","trial"
"1",2,1,"high",1,1,2,0,2.44,107
"2",2,2,"high",1,1,4,1,1.206,108
"3",2,3,"high",1,1,5,1,1.851,109
"4",2,4,"high",1,1,4,0,1.973,110
"5",2,5,"high",1,1,1,1,0.87,111
"6",2,6,"high",1,1,4,1,3.015,112
"7",2,7,"high",1,1,5,0,1.307,113
"8",2,8,"high",1,1,5,1,0.944,114
"9",2,9,"high",1,1,3,0,2.967,115
"10",2,10,"high",1,1,2,1,1.125,116
"11",2,11,"high",1,1,4,1,1.728,117
"12",2,12,"high",1,1,1,0,1.466,118
"13",2,13,"high",1,1,4,1,1.237,119
"14",2,14,"high",1,1,5,0,1.424,120
"15",2,15,"high",1,1,3,1,2.281,121
"16",2,16,"high",1,1,5,1,1.155,122
"17",2,17,"high",1,1,5,0,2.931,123
"18",2,18,"high",1,1,6,1,0.784,124
"19",2,19,"high",1,1,4,1,0.905,125
"20",2,20,"high",1,1,5,1,2.365,126
"21",2,21,"high",1,1,4,0,2.353,127
"22",2,22,"high",1,1,5,0,0.681,128
"23",2,23,"high",1,1,5,0,0.701,129
"24",2,24,"high",1,1,3,1,1.149,130
"25",2,25,"high",1,1,4,0,0.681,131
"26",2,26,"high",1,1,5,1,0.836,132
"27",2,27,"high",1,1,6,0,1.025,133
"28",2,28,"high",1,1,5,1,0.917,134
"29",2,29,"high",1,1,4,1,0.441,135
"30",2,30,"high",1,1,2,1,0.726,136
"31",2,31,"high",1,1,4,1,1.545,137
"32",2,32,"high",1,1,4,1,1.006,138
"33",2,33,"high",1,1,2,1,1.045,139
"34",2,34,"high",1,1,4,1,4.869,140
"35",2,35,"high",1,1,2,1,0.578,141
"36",2,36,"high",1,1,5,1,0.839,142
"37",2,37,"high",1,1,4,0,1.729,143
"38",2,38,"high",1,1,5,1,1.658,144
"39",2,39,"high",1,1,5,1,2.819,145
"40",2,40,"high",1,1,3,1,2.28,146
"41",2,41,"high",1,1,4,1,4.011,147
"42",2,42,"high",1,1,6,1,0.935,148
"43",2,43,"high",1,1,4,1,2.554,149
"44",2,44,"high",1,1,2,1,1.481,150
"45",2,45,"high",1,1,5,1,0.999,151
"46",2,46,"high",1,1,1,1,0.966,152
"47",2,47,"high",1,1,1,1,1.594,153
"48",2,48,"high",1,1,5,1,1.3,154
"49",2,49,"high",1,1,5,1,1.124,155
"50",2,50,"high",1,1,4,1,1.598,156
"51",2,51,"high",1,1,5,0,3.482,157
"52",2,52,"high",1,1,4,0,3.171,158
"53",2,53,"high",1,1,5,1,0.746,159
"54",2,54,"high",1,1,3,1,3.374,160
"55",2,55,"high",1,1,3,1,0.48,161
"56",2,56,"high",1,1,4,0,4.66,162
"57",2,57,"high",1,1,5,1,1.323,163
"58",2,58,"high",1,1,3,0,2.831,164
"59",2,59,"high",1,1,3,0,2.848,165
"60",2,60,"high",1,1,4,0,4.262,166
"61",2,61,"high",1,1,2,0,1.511,167
"62",2,62,"high",1,1,2,1,1.305,168
"63",2,63,"high",1,1,3,0,1.736,169
"64",2,64,"high",1,1,4,1,1.096,170
"65",2,65,"high",1,1,1,1,0.71,171
"66",2,66,"high",1,1,2,1,2.283,172
"67",2,67,"high",1,1,3,1,3.258,173
"68",2,68,"high",1,1,5,1,0.53,174
"69",2,69,"high",1,1,4,1,0.495,175
"70",2,70,"high",1,1,5,0,1.257,176
"71",2,71,"high",1,1,3,0,0.569,177
"72",2,72,"high",1,1,2,0,1.241,178
"73",2,73,"high",1,1,4,1,1.623,179
"74",2,74,"high",1,1,2,1,0.927,180
"75",2,75,"high",1,1,4,1,0.878,181
"76",2,76,"high",1,1,3,1,1.494,182
"77",2,77,"high",1,1,4,1,3.178,183
"78",2,78,"high",1,1,4,1,1.61,184
"79",2,79,"high",1,1,3,1,2.776,185
"80",2,80,"high",1,1,1,0,0.923,186
"81",2,81,"high",1,1,3,0,1.756,187
"82",2,82,"high",1,1,2,0,1.925,188
"83",2,83,"high",1,1,3,0,0.57,189
"84",2,84,"high",1,1,5,1,0.78,190
"85",3,40,"high",1,1,2,0,6.158,107
"86",3,81,"high",1,1,3,1,8.601,108
"87",3,36,"high",1,1,2,0,3.478,109
"88",3,75,"high",1,1,4,1,9.015,110
"89",3,66,"high",1,1,5,0,2.435,111
"90",3,42,"high",1,1,2,1,3.092,112
"91",3,21,"high",1,1,4,1,5.855,113
"92",3,26,"high",1,1,3,0,6.514,114
"93",3,68,"high",1,1,5,1,1.747,115
"94",3,76,"high",1,1,5,0,4.489,116
"95",3,25,"high",1,1,2,1,6.076,117
"96",3,46,"high",1,1,5,1,2.939,118
"97",3,11,"high",1,1,4,1,2.498,119
"98",3,43,"high",1,1,2,0,0.879,120
"99",3,50,"high",1,1,4,1,2.199,121
"100",3,27,"high",1,1,5,1,1.361,122
"101",3,53,"high",1,1,3,1,5.131,123
"102",3,33,"high",1,1,2,0,2.985,124
"103",3,77,"high",1,1,5,1,2.071,125
"104",3,58,"high",1,1,2,1,4.286,126
"105",3,73,"high",1,1,3,0,7.3,127
"106",3,9,"high",1,1,5,1,2.218,128
"107",3,18,"high",1,1,6,0,2.268,129
"108",3,83,"high",1,1,3,1,3.034,130
"109",3,10,"high",1,1,2,1,2.431,131
"110",3,64,"high",1,1,4,0,3.041,132
"111",3,32,"high",1,1,5,1,1.704,133
"112",3,39,"high",1,1,6,1,4.41,134
"113",3,54,"high",1,1,5,0,1.875,135
"114",3,56,"high",1,1,5,1,0.874,136
"115",3,49,"high",1,1,3,1,1.66,137
"116",3,1,"high",1,1,3,1,2.335,138
"117",3,72,"high",1,1,2,1,1.026,139
"118",3,13,"high",1,1,6,1,3.413,140
"119",3,59,"high",1,1,2,1,7.119,141
"120",3,22,"high",1,1,5,1,1.151,142
"121",3,79,"high",1,1,4,1,1.714,143
"122",3,6,"high",1,1,5,0,1.597,144
"123",3,45,"high",1,1,2,1,4.253,145
"124",3,69,"high",1,1,4,1,5.108,146
"125",3,16,"high",1,1,1,0,1.358,147
"126",3,61,"high",1,1,4,1,3.054,148
"127",3,23,"high",1,1,5,1,6.16,149
"128",3,14,"high",1,1,2,1,3.465,150
"129",3,34,"high",1,1,5,0,6.209,151
"130",3,12,"high",1,1,2,1,1.152,152
"131",3,17,"high",1,1,5,1,1.991,153
"132",3,52,"high",1,1,5,1,2.517,154
"133",3,37,"high",1,1,5,1,2.533,155
"134",3,70,"high",1,1,2,1,2.669,156
"135",3,55,"high",1,1,5,1,1.332,157
"136",3,67,"high",1,1,5,1,1.578,158
"137",3,44,"high",1,1,3,0,3.806,159
"138",3,15,"high",1,1,4,0,3.484,160
"139",3,62,"high",1,1,5,0,4.1,161
"140",3,57,"high",1,1,2,0,1.853,162
"141",3,48,"high",1,1,5,0,0.676,163
"142",3,7,"high",1,1,5,1,2.04,164
"143",3,82,"high",1,1,4,1,2.134,165
"144",3,41,"high",1,1,1,0,6.444,166
"145",3,30,"high",1,1,4,1,3.644,167
"146",3,35,"high",1,1,6,1,3.587,168
"147",3,2,"high",1,1,5,1,0.797,169
"148",3,63,"high",1,1,6,1,3.373,170
"149",3,65,"high",1,1,2,1,0.966,171
"150",3,3,"high",1,1,3,0,2.541,172
"151",3,29,"high",1,1,4,1,2.319,173
"152",3,80,"high",1,1,2,1,3.45,174
"153",3,31,"high",1,1,5,0,4.491,175
"154",3,28,"high",1,1,2,0,1.448,176
"155",3,19,"high",1,1,5,1,1.079,177
"156",3,51,"high",1,1,5,1,1.255,178
"157",3,4,"high",1,1,5,1,1.809,179
"158",3,47,"high",1,1,4,1,4.52,180
"159",3,74,"high",1,1,4,0,6.584,181
"160",3,8,"high",1,1,2,0,5.977,182
"161",3,84,"high",1,1,4,0,2.878,183
"162",3,24,"high",1,1,4,1,1.202,184
"163",3,38,"high",1,1,4,0,3.504,185
"164",3,5,"high",1,1,2,0,2.514,186
"165",3,60,"high",1,1,2,1,11.809,187
"166",3,78,"high",1,1,4,1,3.71,188
"167",3,71,"high",1,1,4,1,3.574,189
"168",3,20,"high",1,1,5,1,1.364,190
"169",4,78,"high",1,1,6,1,4.683,107
"170",4,40,"high",1,1,6,1,2.186,108
"171",4,32,"high",1,1,6,1,1.046,109
"172",4,31,"high",1,1,5,1,1.663,110
"173",4,83,"high",1,1,3,0,1.479,111
"174",4,56,"high",1,1,3,0,2.468,112
"175",4,20,"high",1,1,4,1,0.699,113
"176",4,11,"high",1,1,5,1,0.527,114
"177",4,41,"high",1,1,4,1,1.404,115
"178",4,2,"high",1,1,5,1,1.004,116
"179",4,26,"high",1,1,2,1,2.692,117
"180",4,35,"high",1,1,4,1,2.134,118
"181",4,51,"high",1,1,3,0,1.504,119
"182",4,29,"high",1,1,5,1,1.327,120
"183",4,70,"high",1,1,2,0,1.582,121
"184",4,47,"high",1,1,4,1,2.007,122
"185",4,76,"high",1,1,3,1,1.179,123
"186",4,79,"high",1,1,5,1,0.705,124
"187",4,25,"high",1,1,2,0,1.259,125
"188",4,52,"high",1,1,4,0,1.228,126
"189",4,50,"high",1,1,3,1,1.26,127
"190",4,18,"high",1,1,5,1,0.965,128
"191",4,9,"high",1,1,5,0,1.307,129
"192",4,77,"high",1,1,5,1,1.549,130
"193",4,59,"high",1,1,2,0,1.137,131
"194",4,36,"high",1,1,3,1,1.069,132
"195",4,64,"high",1,1,4,1,0.717,133
"196",4,21,"high",1,1,5,0,0.979,134
"197",4,27,"high",1,1,2,0,1.431,135
"198",4,28,"high",1,1,4,1,1.19,136
"199",4,66,"high",1,1,5,1,1.189,137
"200",4,71,"high",1,1,2,0,1.086,138
"201",4,23,"high",1,1,3,0,1.168,139
"202",4,73,"high",1,1,3,1,1.928,140
"203",4,49,"high",1,1,5,1,1.65,141
"204",4,55,"high",1,1,3,1,1.008,142
"205",4,60,"high",1,1,5,0,0.808,143
"206",4,44,"high",1,1,4,1,1.11,144
"207",4,53,"high",1,1,6,1,1.075,145
"208",4,5,"high",1,1,5,1,1.833,146
"209",4,7,"high",1,1,2,0,1.216,147
"210",4,38,"high",1,1,3,1,0.848,148
"211",4,10,"high",1,1,3,1,1.077,149
"212",4,42,"high",1,1,5,1,0.826,150
"213",4,17,"high",1,1,3,0,4.452,151
"214",4,54,"high",1,1,4,1,1.23,152
"215",4,58,"high",1,1,4,0,2.511,153
"216",4,65,"high",1,1,3,1,0.696,154
"217",4,84,"high",1,1,4,1,0.615,155
"218",4,82,"high",1,1,3,0,0.966,156
"219",4,4,"high",1,1,4,0,0.743,157
"220",4,68,"high",1,1,4,1,0.589,158
"221",4,33,"high",1,1,5,1,1.724,159
"222",4,16,"high",1,1,5,1,1.08,160
"223",4,39,"high",1,1,3,1,1.005,161
"224",4,15,"high",1,1,4,1,1.244,162
"225",4,74,"high",1,1,2,1,1.007,163
"226",4,72,"high",1,1,1,0,0.809,164
"227",4,69,"high",1,1,2,1,1.249,165
"228",4,37,"high",1,1,4,0,1.935,166
"229",4,13,"high",1,1,3,1,0.976,167
"230",4,81,"high",1,1,5,0,1.256,168
"231",4,43,"high",1,1,4,1,0.848,169
"232",4,1,"high",1,1,3,0,1.017,170
"233",4,61,"high",1,1,2,0,2.112,171
"234",4,3,"high",1,1,3,1,1.833,172
"235",4,12,"high",1,1,4,0,3.294,173
"236",4,62,"high",1,1,4,1,1.665,174
"237",4,19,"high",1,1,3,1,1.422,175
"238",4,45,"high",1,1,3,1,1.311,176
"239",4,6,"high",1,1,4,1,1.265,177
"240",4,75,"high",1,1,4,1,1.256,178
"241",4,8,"high",1,1,4,1,1.395,179
"242",4,30,"high",1,1,3,1,1.013,180
"243",4,22,"high",1,1,5,0,0.789,181
"244",4,63,"high",1,1,4,0,1.533,182
"245",4,67,"high",1,1,4,1,1.709,183
"246",4,46,"high",1,1,3,1,1.142,184
"247",4,80,"high",1,1,5,0,1.357,185
"248",4,48,"high",1,1,4,1,0.833,186
"249",4,34,"high",1,1,4,1,0.542,187
"250",4,57,"high",1,1,4,1,0.72,188
"251",4,14,"high",1,1,4,0,1.135,189
"252",4,24,"high",1,1,4,1,0.962,190
"253",6,72,"low",1,1,3,0,4.88,107
"254",6,12,"low",1,1,2,0,3.253,108
"255",6,57,"low",1,1,6,1,2.38,109
"256",6,8,"low",1,1,4,1,1.289,110
"257",6,32,"low",1,1,3,0,4.924,111
"258",6,58,"low",1,1,4,0,3.227,112
"259",6,63,"low",1,1,5,0,1.521,113
"260",6,31,"low",1,1,4,1,1.704,114
"261",6,15,"low",1,1,4,1,1.032,115
"262",6,41,"low",1,1,3,1,2.558,116
"263",6,25,"low",1,1,4,0,1.98,117
"264",6,38,"low",1,1,5,1,0.82,118
"265",6,48,"low",1,1,4,1,0.656,119
"266",6,80,"low",1,1,5,0,1.458,120
"267",6,19,"low",1,1,5,0,1.152,121
"268",6,76,"low",1,1,4,1,0.954,122
"269",6,14,"low",1,1,5,0,3.594,123
"270",6,62,"low",1,1,5,1,0.71,124
"271",6,28,"low",1,1,4,1,0.538,125
"272",6,60,"low",1,1,3,0,1.275,126
"273",6,6,"low",1,1,4,1,0.661,127
"274",6,40,"low",1,1,5,1,0.674,128
"275",6,20,"low",1,1,4,0,1.676,129
"276",6,11,"low",1,1,4,0,0.926,130
"277",6,39,"low",1,1,5,0,0.738,131
"278",6,4,"low",1,1,3,0,2.908,132
"279",6,66,"low",1,1,4,1,1.388,133
"280",6,65,"low",1,1,5,0,0.772,134
"281",6,35,"low",1,1,3,0,1.531,135
"282",6,46,"low",1,1,3,0,1.189,136
"283",6,73,"low",1,1,3,1,1.066,137
"284",6,67,"low",1,1,4,0,0.656,138
"285",6,42,"low",1,1,5,0,2.176,139
"286",6,59,"low",1,1,5,0,1.142,140
"287",6,69,"low",1,1,4,0,0.908,141
"288",6,49,"low",1,1,4,0,0.721,142
"289",6,1,"low",1,1,4,0,1.345,143
"290",6,16,"low",1,1,5,1,0.868,144
"291",6,81,"low",1,1,4,0,1.253,145
"292",6,24,"low",1,1,4,0,0.539,146
"293",6,50,"low",1,1,3,0,0.637,147
"294",6,78,"low",1,1,2,0,1.754,148
"295",6,37,"low",1,1,4,0,1.266,149
"296",6,33,"low",1,1,5,1,0.714,150
"297",6,17,"low",1,1,4,0,2.796,151
"298",6,68,"low",1,1,4,0,1.114,152
"299",6,61,"low",1,1,5,0,0.666,153
"300",6,84,"low",1,1,4,1,1.135,154
"301",6,83,"low",1,1,2,0,1.027,155
"302",6,51,"low",1,1,1,0,1.577,156
"303",6,47,"low",1,1,2,0,2.376,157
"304",6,23,"low",1,1,4,0,0.863,158
"305",6,52,"low",1,1,4,0,0.671,159
"306",6,45,"low",1,1,5,0,0.789,160
"307",6,18,"low",1,1,5,1,0.737,161
"308",6,44,"low",1,1,3,1,0.82,162
"309",6,2,"low",1,1,4,0,0.649,163
"310",6,9,"low",1,1,3,0,2.431,164
"311",6,36,"low",1,1,3,1,0.608,165
"312",6,54,"low",1,1,2,1,1.496,166
"313",6,53,"low",1,1,2,0,0.74,167
"314",6,27,"low",1,1,4,0,0.826,168
"315",6,77,"low",1,1,1,0,0.89,169
"316",6,30,"low",1,1,5,0,0.888,170
"317",6,71,"low",1,1,3,0,0.954,171
"318",6,82,"low",1,1,3,0,1.655,172
"319",6,64,"low",1,1,4,1,2.187,173
"320",6,29,"low",1,1,4,0,2.649,174
"321",6,75,"low",1,1,4,0,0.525,175
"322",6,55,"low",1,1,3,0,1.007,176
"323",6,43,"low",1,1,5,1,1.114,177
"324",6,10,"low",1,1,4,0,0.667,178
"325",6,21,"low",1,1,3,0,0.869,179
"326",6,26,"low",1,1,4,1,1.197,180
"327",6,56,"low",1,1,2,0,0.76,181
"328",6,70,"low",1,1,3,0,1.13,182
"329",6,7,"low",1,1,4,0,0.95,183
"330",6,34,"low",1,1,6,1,1.115,184
"331",6,79,"low",1,1,4,0,0.521,185
"332",6,74,"low",1,1,3,1,0.721,186
"333",6,13,"low",1,1,3,0,2.328,187
"334",6,22,"low",1,1,4,0,0.907,188
"335",6,5,"low",1,1,5,1,1.144,189
"336",6,3,"low",1,1,2,1,0.835,190
"337",7,53,"low",1,1,1,1,8.887,107
"338",7,4,"low",1,1,4,0,3.713,108
"339",7,49,"low",1,1,4,1,1.102,109
"340",7,60,"low",1,1,5,0,4.183,110
"341",7,16,"low",1,1,2,0,2.694,111
"342",7,71,"low",1,1,3,0,2.603,112
"343",7,31,"low",1,1,4,0,1.299,113
"344",7,36,"low",1,1,5,0,2.843,114
"345",7,42,"low",1,1,4,1,1.053,115
"346",7,27,"low",1,1,5,0,0.736,116
"347",7,13,"low",1,1,5,1,1.073,117
"348",7,51,"low",1,1,1,0,4.909,118
"349",7,47,"low",1,1,5,1,2.096,119
"350",7,62,"low",1,1,4,0,1.408,120
"351",7,7,"low",1,1,2,0,2.256,121
"352",7,68,"low",1,1,5,1,0.844,122
"353",7,2,"low",1,1,4,1,1.091,123
"354",7,70,"low",1,1,3,0,0.901,124
"355",7,40,"low",1,1,5,0,1.489,125
"356",7,5,"low",1,1,5,0,0.772,126
"357",7,50,"low",1,1,4,1,1.458,127
"358",7,25,"low",1,1,4,0,1.055,128
"359",7,32,"low",1,1,5,1,0.878,129
"360",7,35,"low",1,1,5,1,0.767,130
"361",7,28,"low",1,1,4,0,2.533,131
"362",7,84,"low",1,1,2,0,2.972,132
"363",7,6,"low",1,1,4,0,1.568,133
"364",7,38,"low",1,1,3,0,1.81,134
"365",7,39,"low",1,1,5,1,1.885,135
"366",7,37,"low",1,1,4,0,0.969,136
"367",7,23,"low",1,1,6,0,1.046,137
"368",7,55,"low",1,1,6,1,2.141,138
"369",7,33,"low",1,1,4,0,2.72,139
"370",7,65,"low",1,1,5,1,1.269,140
"371",7,52,"low",1,1,5,0,0.923,141
"372",7,12,"low",1,1,3,0,2.682,142
"373",7,8,"low",1,1,2,0,5.45,143
"374",7,78,"low",1,1,2,1,1.46,144
"375",7,82,"low",1,1,3,0,0.523,145
"376",7,67,"low",1,1,5,1,0.727,146
"377",7,59,"low",1,1,2,0,1.244,147
"378",7,83,"low",1,1,5,0,0.588,148
"379",7,18,"low",1,1,3,0,3.012,149
"380",7,77,"low",1,1,1,1,1.683,150
"381",7,61,"low",1,1,3,0,1.292,151
"382",7,14,"low",1,1,3,0,1.024,152
"383",7,56,"low",1,1,3,0,2.761,153
"384",7,63,"low",1,1,5,0,1.828,154
"385",7,9,"low",1,1,4,0,1.136,155
"386",7,3,"low",1,1,5,0,2.234,156
"387",7,45,"low",1,1,4,1,1.96,157
"388",7,26,"low",1,1,4,0,1.562,158
"389",7,76,"low",1,1,1,0,3.817,159
"390",7,66,"low",1,1,2,0,2.996,160
"391",7,58,"low",1,1,3,0,4.354,161
"392",7,30,"low",1,1,4,1,0.528,162
"393",7,20,"low",1,1,3,1,3.338,163
"394",7,19,"low",1,1,3,1,1.85,164
"395",7,80,"low",1,1,1,0,0.924,165
"396",7,11,"low",1,1,4,1,2.501,166
"397",7,44,"low",1,1,4,0,0.942,167
"398",7,29,"low",1,1,5,1,0.972,168
"399",7,10,"low",1,1,3,1,1.257,169
"400",7,43,"low",1,1,2,0,1.509,170
"401",7,22,"low",1,1,3,0,0.692,171
"402",7,64,"low",1,1,3,0,2.792,172
"403",7,81,"low",1,1,3,0,1.321,173
"404",7,15,"low",1,1,3,0,1.687,174
"405",7,73,"low",1,1,2,0,0.707,175
"406",7,41,"low",1,1,2,0,0.761,176
"407",7,69,"low",1,1,5,1,1.536,177
"408",7,75,"low",1,1,4,1,0.782,178
"409",7,1,"low",1,1,3,0,0.869,179
"410",7,46,"low",1,1,4,1,1.181,180
"411",7,57,"low",1,1,3,0,1.206,181
"412",7,79,"low",1,1,5,1,1.007,182
"413",7,48,"low",1,1,3,0,1.529,183
"414",7,21,"low",1,1,3,0,0.889,184
"415",7,54,"low",1,1,4,0,3.354,185
"416",7,17,"low",1,1,4,0,0.908,186
"417",7,72,"low",1,1,5,0,1.576,187
"418",7,74,"low",1,1,5,0,1.061,188
"419",7,24,"low",1,1,4,1,0.926,189
"420",7,34,"low",1,1,3,0,4.367,190
"421",13,28,"high",1,1,4,1,11.717,107
"422",13,60,"high",1,1,4,0,13.487,108
"423",13,14,"high",1,1,3,0,3.901,109
"424",13,75,"high",1,1,4,1,6.494,110
"425",13,32,"high",1,1,4,1,2.462,111
"426",13,74,"high",1,1,3,1,2.406,112
"427",13,71,"high",1,1,5,0,3.766,113
"428",13,29,"high",1,1,4,1,4.693,114
"429",13,31,"high",1,1,4,1,3.833,115
"430",13,52,"high",1,1,4,0,2.358,116
"431",13,19,"high",1,1,5,1,0.883,117
"432",13,83,"high",1,1,3,0,2.231,118
"433",13,35,"high",1,1,3,1,2.317,119
"434",13,40,"high",1,1,4,1,4.174,120
"435",13,56,"high",1,1,4,0,1.255,121
"436",13,5,"high",1,1,3,1,9.511,122
"437",13,4,"high",1,1,3,0,1.09,123
"438",13,63,"high",1,1,3,0,8.59,124
"439",13,70,"high",1,1,3,0,2.261,125
"440",13,21,"high",1,1,4,0,6.238,126
"441",13,3,"high",1,1,3,1,6.136,127
"442",13,76,"high",1,1,4,1,0.646,128
"443",13,50,"high",1,1,5,1,2.12,129
"444",13,9,"high",1,1,4,0,6.718,130
"445",13,73,"high",1,1,4,1,0.83,131
"446",13,48,"high",1,1,4,1,2.652,132
"447",13,27,"high",1,1,5,0,3.595,133
"448",13,36,"high",1,1,3,1,3.049,134
"449",13,33,"high",1,1,3,1,7.36,135
"450",13,77,"high",1,1,4,1,0.924,136
"451",13,44,"high",1,1,3,1,7.597,137
"452",13,53,"high",1,1,4,1,4.995,138
"453",13,69,"high",1,1,4,1,1.311,139
"454",13,37,"high",1,1,4,0,8.426,140
"455",13,58,"high",1,1,4,0,7.107,141
"456",13,64,"high",1,1,3,1,4.158,142
"457",13,22,"high",1,1,4,0,3.102,143
"458",13,30,"high",1,1,4,1,0.756,144
"459",13,10,"high",1,1,4,1,1.309,145
"460",13,11,"high",1,1,4,1,0.753,146
"461",13,24,"high",1,1,3,1,3.654,147
"462",13,80,"high",1,1,2,0,7.69,148
"463",13,20,"high",1,1,4,1,1.519,149
"464",13,39,"high",1,1,4,1,2.986,150
"465",13,38,"high",1,1,4,1,1.265,151
"466",13,13,"high",1,1,4,1,0.491,152
"467",13,67,"high",1,1,4,1,1.691,153
"468",13,55,"high",1,1,4,1,8.768,154
"469",13,47,"high",1,1,3,1,1.272,155
"470",13,2,"high",1,1,3,1,4.667,156
"471",13,34,"high",1,1,4,1,1.189,157
"472",13,41,"high",1,1,4,1,1.148,158
"473",13,81,"high",1,1,3,0,1.45,159
"474",13,62,"high",1,1,4,1,5.044,160
"475",13,26,"high",1,1,4,1,4.614,161
"476",13,1,"high",1,1,3,0,1.497,162
"477",13,23,"high",1,1,4,0,6.946,163
"478",13,84,"high",1,1,4,1,0.664,164
"479",13,59,"high",1,1,3,0,2.335,165
"480",13,17,"high",1,1,4,0,6.782,166
"481",13,8,"high",1,1,4,1,6.495,167
"482",13,18,"high",1,1,3,1,1.13,168
"483",13,54,"high",1,1,3,1,1.716,169
"484",13,6,"high",1,1,3,1,4.52,170
"485",13,61,"high",1,1,3,0,8.668,171
"486",13,57,"high",1,1,4,1,5.402,172
"487",13,49,"high",1,1,3,1,4.009,173
"488",13,25,"high",1,1,4,0,3.717,174
"489",13,72,"high",1,1,3,0,4.25,175
"490",13,7,"high",1,1,4,0,6.317,176
"491",13,66,"high",1,1,4,1,3.719,177
"492",13,42,"high",1,1,5,1,1.443,178
"493",13,15,"high",1,1,4,1,2.434,179
"494",13,12,"high",1,1,5,0,1.536,180
"495",13,45,"high",1,1,4,1,2.787,181
"496",13,51,"high",1,1,1,0,4.15,182
"497",13,16,"high",1,1,4,1,2.056,183
"498",13,46,"high",1,1,3,1,5.008,184
"499",13,68,"high",1,1,4,1,0.439,185
"500",13,82,"high",1,1,3,0,1.671,186
"501",13,43,"high",1,1,4,1,0.787,187
"502",13,65,"high",1,1,5,1,2.921,188
"503",13,78,"high",1,1,4,1,0.738,189
"504",13,79,"high",1,1,3,1,4.986,190
"505",15,46,"low",1,1,4,1,11.087,107
"506",15,82,"low",1,1,3,0,8.252,108
"507",15,67,"low",1,1,5,1,5.135,109
"508",15,8,"low",1,1,5,0,11.851,110
"509",15,24,"low",1,1,5,1,11.121,111
"510",15,52,"low",1,1,5,0,4.972,112
"511",15,29,"low",1,1,6,1,1.423,113
"512",15,55,"low",1,1,5,1,7.833,114
"513",15,11,"low",1,1,5,1,3.237,115
"514",15,63,"low",1,1,5,0,6.675,116
"515",15,72,"low",1,1,5,0,1.927,117
"516",15,23,"low",1,1,6,0,7.436,118
"517",15,60,"low",1,1,5,0,4.084,119
"518",15,34,"low",1,1,4,0,5.487,120
"519",15,64,"low",1,1,2,0,17.948,121
"520",15,76,"low",1,1,4,0,4.978,122
"521",15,73,"low",1,1,4,0,7.034,123
"522",15,12,"low",1,1,2,0,5.308,124
"523",15,32,"low",1,1,5,1,3.969,125
"524",15,1,"low",1,1,5,0,4.569,126
"525",15,84,"low",1,1,5,0,12.692,127
"526",15,13,"low",1,1,3,1,1.889,128
"527",15,31,"low",1,1,4,0,8.523,129
"528",15,62,"low",1,1,3,0,6.58,130
"529",15,47,"low",1,1,5,1,1.534,131
"530",15,36,"low",1,1,5,0,3.006,132
"531",15,42,"low",1,1,5,1,6.326,133
"532",15,57,"low",1,1,5,0,1.112,134
"533",15,58,"low",1,1,5,0,1.459,135
"534",15,5,"low",1,1,4,0,6.501,136
"535",15,49,"low",1,1,5,1,2.318,137
"536",15,77,"low",1,1,5,1,11.826,138
"537",15,78,"low",1,1,4,1,3.491,139
"538",15,4,"low",1,1,3,0,4.365,140
"539",15,7,"low",1,1,5,0,4.762,141
"540",15,18,"low",1,1,3,0,6.468,142
"541",15,40,"low",1,1,4,0,4.579,143
"542",15,79,"low",1,1,5,1,0.985,144
"543",15,50,"low",1,1,5,1,3.315,145
"544",15,66,"low",1,1,4,0,5.932,146
"545",15,15,"low",1,1,5,0,2.817,147
"546",15,65,"low",1,1,6,1,10.317,148
"547",15,74,"low",1,1,4,0,2.221,149
"548",15,21,"low",1,1,6,0,34.582,150
"549",15,28,"low",1,1,4,0,4.792,151
"550",15,37,"low",1,1,5,0,2.468,152
"551",15,33,"low",1,1,5,0,4.466,153
"552",15,27,"low",1,1,5,0,2.468,154
"553",15,16,"low",1,1,4,0,1.033,155
"554",15,56,"low",1,1,3,0,9.378,156
"555",15,80,"low",1,1,2,0,4.645,157
"556",15,30,"low",1,1,5,1,3.123,158
"557",15,9,"low",1,1,5,0,3.785,159
"558",15,20,"low",1,1,5,1,2.934,160
"559",15,17,"low",1,1,5,0,2.086,161
"560",15,75,"low",1,1,6,1,3.908,162
"561",15,6,"low",1,1,4,0,4.573,163
"562",15,19,"low",1,1,6,1,3,164
"563",15,22,"low",1,1,5,0,1.178,165
"564",15,83,"low",1,1,5,0,1.045,166
"565",15,69,"low",1,1,3,1,6.726,167
"566",15,61,"low",1,1,6,0,1.35,168
"567",15,68,"low",1,1,5,1,1.787,169
"568",15,43,"low",1,1,4,0,0.766,170
"569",15,10,"low",1,1,5,1,3.329,171
"570",15,71,"low",1,1,3,0,1.849,172
"571",15,3,"low",1,1,4,0,7.133,173
"572",15,48,"low",1,1,5,0,0.746,174
"573",15,41,"low",1,1,5,0,4.42,175
"574",15,45,"low",1,1,5,1,4.589,176
"575",15,44,"low",1,1,5,0,2.876,177
"576",15,59,"low",1,1,2,0,0.926,178
"577",15,14,"low",1,1,4,0,5.321,179
"578",15,2,"low",1,1,6,1,1.754,180
"579",15,70,"low",1,1,3,0,1.187,181
"580",15,35,"low",1,1,4,1,4.034,182
"581",15,39,"low",1,1,3,1,10.156,183
"582",15,26,"low",1,1,5,0,1.988,184
"583",15,51,"low",1,1,6,0,1.545,185
"584",15,25,"low",1,1,5,0,4.882,186
"585",15,53,"low",1,1,3,1,12.966,187
"586",15,54,"low",1,1,4,0,6.291,188
"587",15,38,"low",1,1,4,0,2.916,189
"588",15,81,"low",1,1,5,0,2.939,190
"589",16,19,"low",1,1,2,0,5.501,107
"590",16,72,"low",1,1,4,1,3.141,108
"591",16,61,"low",1,1,4,1,4.68,109
"592",16,80,"low",1,1,5,1,3.288,110
"593",16,35,"low",1,1,3,0,1.563,111
"594",16,25,"low",1,1,5,1,1.135,112
"595",16,62,"low",1,1,4,0,1.879,113
"596",16,71,"low",1,1,2,1,0.99,114
"597",16,34,"low",1,1,5,0,0.619,115
"598",16,28,"low",1,1,5,0,1.659,116
"599",16,32,"low",1,1,5,0,0.865,117
"600",16,82,"low",1,1,5,1,1.347,118
"601",16,37,"low",1,1,6,1,0.694,119
"602",16,39,"low",1,1,2,0,6.638,120
"603",16,10,"low",1,1,2,0,2.308,121
"604",16,54,"low",1,1,5,0,0.652,122
"605",16,11,"low",1,1,5,0,0.652,123
"606",16,78,"low",1,1,4,0,1.142,124
"607",16,63,"low",1,1,2,1,2.743,125
"608",16,47,"low",1,1,1,0,5.868,126
"609",16,68,"low",1,1,5,0,0.589,127
"610",16,17,"low",1,1,5,1,0.985,128
"611",16,60,"low",1,1,5,1,2.968,129
"612",16,4,"low",1,1,5,1,1.157,130
"613",16,65,"low",1,1,2,0,1.449,131
"614",16,48,"low",1,1,5,0,1.731,132
"615",16,56,"low",1,1,4,1,0.61,133
"616",16,26,"low",1,1,4,0,1.361,134
"617",16,67,"low",1,1,5,0,2.002,135
"618",16,1,"low",1,1,4,1,0.488,136
"619",16,77,"low",1,1,2,0,4.109,137
"620",16,76,"low",1,1,4,0,1.96,138
"621",16,57,"low",1,1,4,0,2.691,139
"622",16,66,"low",1,1,5,0,2.026,140
"623",16,64,"low",1,1,5,0,0.869,141
"624",16,12,"low",1,1,4,1,1.773,142
"625",16,27,"low",1,1,3,1,2.325,143
"626",16,50,"low",1,1,2,0,1.586,144
"627",16,16,"low",1,1,4,0,2.829,145
"628",16,70,"low",1,1,2,1,1.175,146
"629",16,49,"low",1,1,2,0,0.959,147
"630",16,58,"low",1,1,3,1,1.235,148
"631",16,73,"low",1,1,2,0,0.827,149
"632",16,40,"low",1,1,4,0,1.018,150
"633",16,79,"low",1,1,3,0,2.592,151
"634",16,74,"low",1,1,2,0,0.568,152
"635",16,21,"low",1,1,4,1,1.713,153
"636",16,3,"low",1,1,2,0,0.749,154
"637",16,22,"low",1,1,4,1,0.563,155
"638",16,38,"low",1,1,5,0,0.597,156
"639",16,36,"low",1,1,5,0,0.762,157
"640",16,81,"low",1,1,2,1,1.01,158
"641",16,13,"low",1,1,2,0,1.469,159
"642",16,7,"low",1,1,5,1,1.675,160
"643",16,51,"low",1,1,1,1,2.062,161
"644",16,53,"low",1,1,5,0,1.982,162
"645",16,69,"low",1,1,4,0,2.404,163
"646",16,23,"low",1,1,6,1,1.689,164
"647",16,41,"low",1,1,5,0,0.933,165
"648",16,30,"low",1,1,6,0,0.636,166
"649",16,14,"low",1,1,5,1,0.824,167
"650",16,6,"low",1,1,3,0,1.822,168
"651",16,33,"low",1,1,3,0,2.749,169
"652",16,42,"low",1,1,5,0,0.836,170
"653",16,24,"low",1,1,5,0,0.621,171
"654",16,59,"low",1,1,3,1,0.687,172
"655",16,5,"low",1,1,5,0,1.132,173
"656",16,15,"low",1,1,5,0,0.788,174
"657",16,46,"low",1,1,2,0,1.587,175
"658",16,84,"low",1,1,5,0,0.579,176
"659",16,8,"low",1,1,2,0,0.922,177
"660",16,31,"low",1,1,4,0,0.72,178
"661",16,45,"low",1,1,5,0,2.144,179
"662",16,18,"low",1,1,4,0,0.542,180
"663",16,9,"low",1,1,3,1,0.853,181
"664",16,83,"low",1,1,3,1,0.826,182
"665",16,52,"low",1,1,2,1,1.113,183
"666",16,44,"low",1,1,5,0,1.485,184
"667",16,29,"low",1,1,3,0,0.524,185
"668",16,55,"low",1,1,5,0,0.74,186
"669",16,2,"low",1,1,4,0,0.53,187
"670",16,75,"low",1,1,2,0,2.031,188
"671",16,20,"low",1,1,4,0,3.809,189
"672",16,43,"low",1,1,3,0,1.584,190
"673",17,79,"high",1,1,4,0,1.877,107
"674",17,17,"high",1,1,3,1,0.669,108
"675",17,23,"high",1,1,6,1,1.954,109
"676",17,4,"high",1,1,5,1,0.709,110
"677",17,62,"high",1,1,3,1,2.598,111
"678",17,11,"high",1,1,4,0,0.664,112
"679",17,19,"high",1,1,2,0,2.328,113
"680",17,18,"high",1,1,4,1,1.556,114
"681",17,70,"high",1,1,2,1,5.773,115
"682",17,25,"high",1,1,3,1,0.678,116
"683",17,80,"high",1,1,2,1,1.442,117
"684",17,9,"high",1,1,4,1,2.01,118
"685",17,21,"high",1,1,4,1,3.621,119
"686",17,33,"high",1,1,5,1,2.017,120
"687",17,53,"high",1,1,4,0,0.788,121
"688",17,73,"high",1,1,4,1,0.707,122
"689",17,27,"high",1,1,4,1,3.569,123
"690",17,42,"high",1,1,4,0,3.21,124
"691",17,76,"high",1,1,3,1,3.878,125
"692",17,68,"high",1,1,6,0,3.739,126
"693",17,57,"high",1,1,4,1,4.656,127
"694",17,72,"high",1,1,2,1,0.916,128
"695",17,81,"high",1,1,4,1,1.143,129
"696",17,84,"high",1,1,5,1,0.846,130
"697",17,28,"high",1,1,4,1,2.154,131
"698",17,37,"high",1,1,3,1,0.701,132
"699",17,36,"high",1,1,4,1,0.687,133
"700",17,77,"high",1,1,5,0,1.658,134
"701",17,39,"high",1,1,5,0,3.767,135
"702",17,74,"high",1,1,4,1,0.998,136
"703",17,64,"high",1,1,4,1,0.85,137
"704",17,75,"high",1,1,3,0,0.926,138
"705",17,15,"high",1,1,2,1,1.81,139
"706",17,69,"high",1,1,4,0,2.095,140
"707",17,54,"high",1,1,3,1,2.641,141
"708",17,43,"high",1,1,3,1,1.611,142
"709",17,10,"high",1,1,3,0,7.357,143
"710",17,22,"high",1,1,3,1,0.681,144
"711",17,31,"high",1,1,3,1,1.328,145
"712",17,59,"high",1,1,4,1,0.648,146
"713",17,8,"high",1,1,4,1,0.602,147
"714",17,38,"high",1,1,3,1,0.949,148
"715",17,44,"high",1,1,3,1,0.505,149
"716",17,65,"high",1,1,2,0,6.625,150
"717",17,6,"high",1,1,4,1,0.584,151
"718",17,45,"high",1,1,4,0,0.53,152
"719",17,3,"high",1,1,4,1,2.273,153
"720",17,14,"high",1,1,2,1,1.579,154
"721",17,29,"high",1,1,4,0,0.67,155
"722",17,63,"high",1,1,5,1,0.782,156
"723",17,56,"high",1,1,4,1,2.056,157
"724",17,32,"high",1,1,4,0,0.976,158
"725",17,2,"high",1,1,2,0,1.566,159
"726",17,34,"high",1,1,4,1,0.736,160
"727",17,41,"high",1,1,5,1,3.527,161
"728",17,82,"high",1,1,2,1,0.787,162
"729",17,52,"high",1,1,3,1,0.673,163
"730",17,13,"high",1,1,2,0,1.055,164
"731",17,67,"high",1,1,3,0,2.133,165
"732",17,47,"high",1,1,3,0,6.073,166
"733",17,30,"high",1,1,5,0,1.031,167
"734",17,5,"high",1,1,5,1,1.201,168
"735",17,40,"high",1,1,4,1,0.565,169
"736",17,26,"high",1,1,4,1,0.578,170
"737",17,66,"high",1,1,4,1,1.294,171
"738",17,49,"high",1,1,4,0,0.846,172
"739",17,35,"high",1,1,3,0,1.483,173
"740",17,1,"high",1,1,3,1,0.605,174
"741",17,50,"high",1,1,3,0,2.562,175
"742",17,46,"high",1,1,3,0,3.577,176
"743",17,16,"high",1,1,4,1,1.09,177
"744",17,20,"high",1,1,5,0,1.126,178
"745",17,61,"high",1,1,2,1,1.57,179
"746",17,78,"high",1,1,3,0,1.207,180
"747",17,24,"high",1,1,4,0,0.886,181
"748",17,58,"high",1,1,5,1,1.671,182
"749",17,71,"high",1,1,4,1,2.778,183
"750",17,55,"high",1,1,3,0,0.475,184
"751",17,12,"high",1,1,3,1,1.094,185
"752",17,60,"high",1,1,3,1,2.146,186
"753",17,83,"high",1,1,3,1,0.741,187
"754",17,7,"high",1,1,2,1,4.994,188
"755",17,51,"high",1,1,3,1,1.421,189
"756",17,48,"high",1,1,3,1,0.971,190
"757",18,78,"high",1,1,4,0,4.35,107
"758",18,51,"high",1,1,3,1,9.128,108
"759",18,39,"high",1,1,4,0,1.789,109
"760",18,44,"high",1,1,5,1,1.179,110
"761",18,11,"high",1,1,5,0,1.174,111
"762",18,47,"high",1,1,2,0,1.639,112
"763",18,41,"high",1,1,5,1,1.584,113
"764",18,22,"high",1,1,6,1,1.165,114
"765",18,66,"high",1,1,5,1,1.97,115
"766",18,46,"high",1,1,4,0,1.158,116
"767",18,48,"high",1,1,5,1,1.212,117
"768",18,34,"high",1,1,5,1,1.202,118
"769",18,53,"high",1,1,3,0,1.045,119
"770",18,9,"high",1,1,4,1,0.838,120
"771",18,69,"high",1,1,4,0,3.222,121
"772",18,14,"high",1,1,4,1,1.291,122
"773",18,49,"high",1,1,3,0,1.797,123
"774",18,26,"high",1,1,2,1,2.311,124
"775",18,81,"high",1,1,4,1,1.939,125
"776",18,16,"high",1,1,3,1,2.874,126
"777",18,65,"high",1,1,2,0,0.837,127
"778",18,7,"high",1,1,5,1,1.609,128
"779",18,42,"high",1,1,5,0,2.852,129
"780",18,28,"high",1,1,4,1,2.243,130
"781",18,57,"high",1,1,4,1,1.062,131
"782",18,32,"high",1,1,3,0,3.233,132
"783",18,21,"high",1,1,5,1,2.157,133
"784",18,43,"high",1,1,2,1,0.699,134
"785",18,83,"high",1,1,2,1,0.802,135
"786",18,4,"high",1,1,4,1,2.871,136
"787",18,58,"high",1,1,4,1,1.253,137
"788",18,82,"high",1,1,3,1,2.518,138
"789",18,75,"high",1,1,3,0,1.608,139
"790",18,73,"high",1,1,5,1,0.706,140
"791",18,17,"high",1,1,5,1,0.928,141
"792",18,45,"high",1,1,5,0,2.528,142
"793",18,68,"high",1,1,3,0,1.85,143
"794",18,20,"high",1,1,4,0,4.933,144
"795",18,8,"high",1,1,2,1,1.741,145
"796",18,18,"high",1,1,5,1,1.127,146
"797",18,29,"high",1,1,5,0,0.966,147
"798",18,61,"high",1,1,5,1,3.219,148
"799",18,35,"high",1,1,3,0,0.959,149
"800",18,38,"high",1,1,4,1,1.811,150
"801",18,13,"high",1,1,3,0,1.785,151
"802",18,70,"high",1,1,5,1,2.274,152
"803",18,27,"high",1,1,5,1,1.513,153
"804",18,6,"high",1,1,3,1,2.138,154
"805",18,12,"high",1,1,2,1,1.321,155
"806",18,56,"high",1,1,3,1,1.043,156
"807",18,33,"high",1,1,2,1,0.867,157
"808",18,72,"high",1,1,4,1,1.478,158
"809",18,15,"high",1,1,3,1,1.005,159
"810",18,71,"high",1,1,3,1,2.471,160
"811",18,77,"high",1,1,4,0,1.383,161
"812",18,2,"high",1,1,2,0,1.464,162
"813",18,5,"high",1,1,3,1,1.715,163
"814",18,36,"high",1,1,4,1,2.068,164
"815",18,60,"high",1,1,5,1,2.827,165
"816",18,37,"high",1,1,4,1,1.624,166
"817",18,52,"high",1,1,5,1,0.82,167
"818",18,62,"high",1,1,5,1,1.225,168
"819",18,19,"high",1,1,2,0,2.647,169
"820",18,54,"high",1,1,2,1,1.46,170
"821",18,79,"high",1,1,4,0,1.672,171
"822",18,84,"high",1,1,5,1,0.998,172
"823",18,74,"high",1,1,3,1,1.533,173
"824",18,80,"high",1,1,5,1,0.848,174
"825",18,3,"high",1,1,5,1,0.884,175
"826",18,55,"high",1,1,4,0,1.755,176
"827",18,25,"high",1,1,4,1,2.151,177
"828",18,63,"high",1,1,5,1,0.679,178
"829",18,24,"high",1,1,3,0,3.223,179
"830",18,31,"high",1,1,5,1,2.157,180
"831",18,50,"high",1,1,3,0,1.902,181
"832",18,64,"high",1,1,5,1,0.87,182
"833",18,1,"high",1,1,4,1,1.517,183
"834",18,23,"high",1,1,6,1,0.614,184
"835",18,76,"high",1,1,3,1,1.16,185
"836",18,10,"high",1,1,2,0,1.462,186
"837",18,67,"high",1,1,2,0,1.359,187
"838",18,40,"high",1,1,4,1,1.911,188
"839",18,59,"high",1,1,5,1,1.088,189
"840",18,30,"high",1,1,4,0,1.169,190
"841",19,3,"low",1,1,4,0,2.934,107
"842",19,10,"low",1,1,2,0,2.01,108
"843",19,20,"low",1,1,2,0,1.734,109
"844",19,80,"low",1,1,4,1,2.317,110
"845",19,7,"low",1,1,3,1,3.151,111
"846",19,9,"low",1,1,2,1,1.944,112
"847",19,2,"low",1,1,5,0,1.372,113
"848",19,33,"low",1,1,3,0,3.553,114
"849",19,4,"low",1,1,6,1,1.066,115
"850",19,77,"low",1,1,1,0,2.752,116
"851",19,21,"low",1,1,3,1,2.178,117
"852",19,81,"low",1,1,5,1,0.874,118
"853",19,53,"low",1,1,3,0,2.247,119
"854",19,40,"low",1,1,1,0,1.508,120
"855",19,27,"low",1,1,4,1,1.906,121
"856",19,56,"low",1,1,1,1,1.226,122
"857",19,46,"low",1,1,1,0,0.701,123
"858",19,58,"low",1,1,2,1,1.611,124
"859",19,22,"low",1,1,5,1,0.935,125
"860",19,48,"low",1,1,4,0,1.174,126
"861",19,75,"low",1,1,5,0,0.978,127
"862",19,54,"low",1,1,2,0,1.543,128
"863",19,65,"low",1,1,3,0,3.926,129
"864",19,39,"low",1,1,1,0,14.981,130
"865",19,37,"low",1,1,5,1,1.605,131
"866",19,13,"low",1,1,2,0,0.925,132
"867",19,11,"low",1,1,5,0,1.12,133
"868",19,34,"low",1,1,1,0,10.933,134
"869",19,61,"low",1,1,6,1,0.941,135
"870",19,12,"low",1,1,3,1,1.914,136
"871",19,45,"low",1,1,4,0,1.221,137
"872",19,42,"low",1,1,4,0,2.288,138
"873",19,19,"low",1,1,5,0,0.799,139
"874",19,67,"low",1,1,4,0,1.096,140
"875",19,72,"low",1,1,2,1,0.956,141
"876",19,69,"low",1,1,4,0,1.288,142
"877",19,52,"low",1,1,5,1,12.057,143
"878",19,41,"low",1,1,6,0,4.002,144
"879",19,66,"low",1,1,2,0,0.987,145
"880",19,78,"low",1,1,3,0,2.537,146
"881",19,31,"low",1,1,5,0,1.366,147
"882",19,70,"low",1,1,5,1,0.88,148
"883",19,63,"low",1,1,4,1,1.712,149
"884",19,43,"low",1,1,5,0,2.57,150
"885",19,8,"low",1,1,2,0,4.138,151
"886",19,62,"low",1,1,5,0,2.304,152
"887",19,49,"low",1,1,3,0,1.234,153
"888",19,60,"low",1,1,5,1,1.132,154
"889",19,73,"low",1,1,4,0,1.474,155
"890",19,38,"low",1,1,3,0,1.465,156
"891",19,16,"low",1,1,4,0,1.775,157
"892",19,79,"low",1,1,4,0,1.42,158
"893",19,74,"low",1,1,1,0,1.82,159
"894",19,1,"low",1,1,3,1,0.695,160
"895",19,6,"low",1,1,2,0,0.777,161
"896",19,57,"low",1,1,3,0,2.269,162
"897",19,32,"low",1,1,5,0,1.165,163
"898",19,84,"low",1,1,5,0,1.158,164
"899",19,76,"low",1,1,3,0,0.779,165
"900",19,18,"low",1,1,4,0,2.808,166
"901",19,23,"low",1,1,5,1,0.936,167
"902",19,14,"low",1,1,5,1,1.154,168
"903",19,30,"low",1,1,2,0,2.057,169
"904",19,83,"low",1,1,3,1,2.726,170
"905",19,59,"low",1,1,3,1,0.706,171
"906",19,25,"low",1,1,4,1,1.82,172
"907",19,5,"low",1,1,4,0,1.881,173
"908",19,44,"low",1,1,3,0,0.81,174
"909",19,36,"low",1,1,5,0,1.928,175
"910",19,29,"low",1,1,5,0,1.167,176
"911",19,50,"low",1,1,5,0,2.255,177
"912",19,64,"low",1,1,4,0,1.097,178
"913",19,24,"low",1,1,4,0,0.804,179
"914",19,71,"low",1,1,4,1,2.08,180
"915",19,51,"low",1,1,6,1,3.325,181
"916",19,47,"low",1,1,2,0,0.952,182
"917",19,26,"low",1,1,4,0,5.8,183
"918",19,55,"low",1,1,4,0,1.336,184
"919",19,17,"low",1,1,4,1,0.846,185
"920",19,28,"low",1,1,3,0,1.838,186
"921",19,68,"low",1,1,5,0,0.901,187
"922",19,35,"low",1,1,4,0,2.772,188
"923",19,15,"low",1,1,2,0,0.985,189
"924",19,82,"low",1,1,2,1,0.974,190
"925",21,12,"high",1,1,4,1,4.327,107
"926",21,74,"high",1,1,4,1,3.295,108
"927",21,30,"high",1,1,4,0,2.113,109
"928",21,37,"high",1,1,5,1,2.583,110
"929",21,10,"high",1,1,4,0,3.072,111
"930",21,66,"high",1,1,5,1,2.4,112
"931",21,78,"high",1,1,2,0,1.528,113
"932",21,41,"high",1,1,4,1,1.507,114
"933",21,82,"high",1,1,3,1,2.96,115
"934",21,73,"high",1,1,3,1,1.223,116
"935",21,28,"high",1,1,3,1,2.008,117
"936",21,75,"high",1,1,3,0,3.729,118
"937",21,1,"high",1,1,5,1,0.915,119
"938",21,4,"high",1,1,2,1,0.795,120
"939",21,70,"high",1,1,4,1,1.434,121
"940",21,65,"high",1,1,3,0,0.764,122
"941",21,54,"high",1,1,4,1,1.082,123
"942",21,48,"high",1,1,4,1,2.932,124
"943",21,3,"high",1,1,3,1,3.022,125
"944",21,80,"high",1,1,4,1,3.08,126
"945",21,38,"high",1,1,3,1,3.645,127
"946",21,45,"high",1,1,3,0,3.052,128
"947",21,40,"high",1,1,3,1,0.95,129
"948",21,13,"high",1,1,2,0,0.889,130
"949",21,68,"high",1,1,1,0,0.817,131
"950",21,55,"high",1,1,4,0,0.902,132
"951",21,23,"high",1,1,5,1,0.711,133
"952",21,56,"high",1,1,3,1,0.85,134
"953",21,8,"high",1,1,4,1,1.477,135
"954",21,36,"high",1,1,4,1,1.406,136
"955",21,26,"high",1,1,4,1,1.22,137
"956",21,53,"high",1,1,3,0,1.073,138
"957",21,5,"high",1,1,4,1,3.728,139
"958",21,72,"high",1,1,4,1,1.472,140
"959",21,52,"high",1,1,3,1,0.864,141
"960",21,60,"high",1,1,5,1,6.074,142
"961",21,14,"high",1,1,2,1,1.157,143
"962",21,7,"high",1,1,3,1,0.802,144
"963",21,51,"high",1,1,2,1,1.993,145
"964",21,20,"high",1,1,3,0,0.837,146
"965",21,47,"high",1,1,2,0,1.693,147
"966",21,64,"high",1,1,3,1,2.407,148
"967",21,34,"high",1,1,2,1,0.944,149
"968",21,33,"high",1,1,4,1,0.828,150
"969",21,81,"high",1,1,4,1,2.33,151
"970",21,83,"high",1,1,4,1,0.552,152
"971",21,11,"high",1,1,4,0,0.45,153
"972",21,32,"high",1,1,3,0,2.199,154
"973",21,24,"high",1,1,3,0,1.892,155
"974",21,18,"high",1,1,3,1,2.354,156
"975",21,19,"high",1,1,3,0,3.762,157
"976",21,62,"high",1,1,2,1,0.528,158
"977",21,84,"high",1,1,3,1,7.262,159
"978",21,9,"high",1,1,3,1,1.366,160
"979",21,27,"high",1,1,4,1,0.517,161
"980",21,17,"high",1,1,2,1,1.479,162
"981",21,39,"high",1,1,2,0,1.521,163
"982",21,29,"high",1,1,4,0,0.587,164
"983",21,58,"high",1,1,4,1,1.142,165
"984",21,43,"high",1,1,4,1,0.934,166
"985",21,69,"high",1,1,4,0,0.464,167
"986",21,57,"high",1,1,4,1,1.362,168
"987",21,77,"high",1,1,2,0,1.021,169
"988",21,16,"high",1,1,3,1,0.664,170
"989",21,76,"high",1,1,3,1,1.105,171
"990",21,44,"high",1,1,3,1,0.462,172
"991",21,79,"high",1,1,2,0,0.932,173
"992",21,22,"high",1,1,4,1,0.682,174
"993",21,63,"high",1,1,5,1,0.825,175
"994",21,61,"high",1,1,3,1,2.318,176
"995",21,21,"high",1,1,4,1,2.031,177
"996",21,25,"high",1,1,3,1,0.533,178
"997",21,42,"high",1,1,3,0,1.642,179
"998",21,49,"high",1,1,3,0,4.658,180
"999",21,15,"high",1,1,3,1,0.645,181
"1000",21,46,"high",1,1,2,0,0.568,182
"1001",21,50,"high",1,1,3,0,0.626,183
"1002",21,31,"high",1,1,3,1,2.502,184
"1003",21,67,"high",1,1,3,0,1.417,185
"1004",21,6,"high",1,1,3,1,0.733,186
"1005",21,71,"high",1,1,4,1,1.79,187
"1006",21,35,"high",1,1,3,0,0.427,188
"1007",21,2,"high",1,1,1,0,0.608,189
"1008",21,59,"high",1,1,3,1,3.346,190
"1009",24,1,"low",1,1,2,0,1.768,107
"1010",24,75,"low",1,1,4,1,2.713,108
"1011",24,15,"low",1,1,4,0,2.751,109
"1012",24,62,"low",1,1,5,0,1.479,110
"1013",24,50,"low",1,1,2,1,1.728,111
"1014",24,35,"low",1,1,5,1,1.301,112
"1015",24,77,"low",1,1,1,1,5.415,113
"1016",24,72,"low",1,1,3,0,1.913,114
"1017",24,26,"low",1,1,4,0,2.098,115
"1018",24,28,"low",1,1,4,0,2.796,116
"1019",24,73,"low",1,1,4,0,2.178,117
"1020",24,24,"low",1,1,5,1,2.503,118
"1021",24,16,"low",1,1,4,0,1.507,119
"1022",24,58,"low",1,1,3,0,2.434,120
"1023",24,25,"low",1,1,5,0,2.385,121
"1024",24,44,"low",1,1,4,0,3.653,122
"1025",24,17,"low",1,1,3,0,5.175,123
"1026",24,69,"low",1,1,5,1,1.053,124
"1027",24,40,"low",1,1,4,0,2.215,125
"1028",24,71,"low",1,1,4,0,1.993,126
"1029",24,39,"low",1,1,5,1,2.082,127
"1030",24,27,"low",1,1,3,0,9.615,128
"1031",24,20,"low",1,1,4,1,1.65,129
"1032",24,78,"low",1,1,4,1,3.21,130
"1033",24,45,"low",1,1,5,1,2.273,131
"1034",24,30,"low",1,1,4,1,7.555,132
"1035",24,70,"low",1,1,4,0,1.228,133
"1036",24,63,"low",1,1,5,0,3.588,134
"1037",24,66,"low",1,1,4,0,2.083,135
"1038",24,8,"low",1,1,4,0,3.963,136
"1039",24,48,"low",1,1,4,0,1.242,137
"1040",24,55,"low",1,1,5,1,1.595,138
"1041",24,36,"low",1,1,3,0,3.312,139
"1042",24,49,"low",1,1,5,1,0.962,140
"1043",24,22,"low",1,1,4,0,1.776,141
"1044",24,53,"low",1,1,4,1,1.833,142
"1045",24,32,"low",1,1,5,1,0.928,143
"1046",24,54,"low",1,1,3,0,0.895,144
"1047",24,52,"low",1,1,5,0,4.075,145
"1048",24,84,"low",1,1,5,0,2.166,146
"1049",24,9,"low",1,1,3,0,1.283,147
"1050",24,47,"low",1,1,4,1,1.228,148
"1051",24,79,"low",1,1,5,1,2.8,149
"1052",24,65,"low",1,1,5,1,1.976,150
"1053",24,11,"low",1,1,4,1,2.342,151
"1054",24,38,"low",1,1,5,0,1.468,152
"1055",24,13,"low",1,1,2,1,3.474,153
"1056",24,37,"low",1,1,4,0,1.473,154
"1057",24,41,"low",1,1,4,0,4.683,155
"1058",24,74,"low",1,1,2,0,1.585,156
"1059",24,5,"low",1,1,3,0,3.892,157
"1060",24,46,"low",1,1,4,1,5.8,158
"1061",24,68,"low",1,1,5,1,1.809,159
"1062",24,2,"low",1,1,4,1,1.393,160
"1063",24,81,"low",1,1,4,0,1.253,161
"1064",24,57,"low",1,1,4,0,1.31,162
"1065",24,33,"low",1,1,3,0,3.109,163
"1066",24,56,"low",1,1,4,0,3.238,164
"1067",24,29,"low",1,1,5,1,1.259,165
"1068",24,7,"low",1,1,5,0,1.608,166
"1069",24,14,"low",1,1,3,0,1.465,167
"1070",24,10,"low",1,1,4,1,3.027,168
"1071",24,31,"low",1,1,5,0,1.64,169
"1072",24,3,"low",1,1,3,0,1.609,170
"1073",24,21,"low",1,1,5,0,0.972,171
"1074",24,6,"low",1,1,4,0,5.616,172
"1075",24,83,"low",1,1,4,0,1.829,173
"1076",24,12,"low",1,1,2,0,1.413,174
"1077",24,18,"low",1,1,4,0,2.023,175
"1078",24,80,"low",1,1,3,0,1.974,176
"1079",24,60,"low",1,1,4,0,1.819,177
"1080",24,19,"low",1,1,5,1,0.838,178
"1081",24,67,"low",1,1,5,1,3.486,179
"1082",24,23,"low",1,1,5,0,1.039,180
"1083",24,61,"low",1,1,5,0,0.897,181
"1084",24,42,"low",1,1,4,1,1.366,182
"1085",24,64,"low",1,1,3,0,9.438,183
"1086",24,76,"low",1,1,4,0,3.827,184
"1087",24,4,"low",1,1,4,0,1.125,185
"1088",24,34,"low",1,1,4,0,1.7,186
"1089",24,43,"low",1,1,3,0,1.874,187
"1090",24,59,"low",1,1,3,0,1.699,188
"1091",24,51,"low",1,1,1,0,1.38,189
"1092",24,82,"low",1,1,3,0,0.632,190
"1093",25,47,"high",1,1,1,1,2.644,107
"1094",25,52,"high",1,1,4,1,1.302,108
"1095",25,24,"high",1,1,4,1,1.309,109
"1096",25,13,"high",1,1,2,1,1.691,110
"1097",25,33,"high",1,1,2,0,3.464,111
"1098",25,73,"high",1,1,5,0,2.025,112
"1099",25,11,"high",1,1,5,1,1.054,113
"1100",25,22,"high",1,1,4,1,0.876,114
"1101",25,2,"high",1,1,3,1,1.798,115
"1102",25,77,"high",1,1,5,1,3.18,116
"1103",25,59,"high",1,1,3,1,5.5,117
"1104",25,20,"high",1,1,4,1,2.478,118
"1105",25,45,"high",1,1,3,1,0.883,119
"1106",25,26,"high",1,1,4,0,3.724,120
"1107",25,67,"high",1,1,2,1,1.267,121
"1108",25,82,"high",1,1,3,1,2.794,122
"1109",25,25,"high",1,1,2,1,0.855,123
"1110",25,78,"high",1,1,3,1,2.066,124
"1111",25,16,"high",1,1,3,0,1.135,125
"1112",25,39,"high",1,1,5,1,2.85,126
"1113",25,12,"high",1,1,5,1,1.949,127
"1114",25,54,"high",1,1,4,0,1.465,128
"1115",25,61,"high",1,1,2,1,3.511,129
"1116",25,49,"high",1,1,5,1,1.056,130
"1117",25,8,"high",1,1,2,0,1.215,131
"1118",25,23,"high",1,1,3,1,1.583,132
"1119",25,46,"high",1,1,5,1,1.979,133
"1120",25,34,"high",1,1,1,0,0.992,134
"1121",25,5,"high",1,1,5,0,2.163,135
"1122",25,4,"high",1,1,4,1,0.892,136
"1123",25,14,"high",1,1,2,1,2.525,137
"1124",25,42,"high",1,1,5,1,0.758,138
"1125",25,53,"high",1,1,4,1,2.314,139
"1126",25,38,"high",1,1,5,0,0.594,140
"1127",25,35,"high",1,1,5,1,0.796,141
"1128",25,69,"high",1,1,5,1,4.183,142
"1129",25,84,"high",1,1,4,0,1.712,143
"1130",25,31,"high",1,1,3,0,0.794,144
"1131",25,40,"high",1,1,3,0,1.002,145
"1132",25,62,"high",1,1,4,0,1.6,146
"1133",25,70,"high",1,1,5,1,0.956,147
"1134",25,6,"high",1,1,2,0,1.099,148
"1135",25,75,"high",1,1,3,1,0.895,149
"1136",25,15,"high",1,1,2,0,0.715,150
"1137",25,66,"high",1,1,3,0,3.658,151
"1138",25,80,"high",1,1,5,1,0.772,152
"1139",25,10,"high",1,1,2,1,2.065,153
"1140",25,3,"high",1,1,2,0,2.455,154
"1141",25,27,"high",1,1,5,1,1.147,155
"1142",25,72,"high",1,1,1,1,1.156,156
"1143",25,56,"high",1,1,4,1,3.647,157
"1144",25,19,"high",1,1,5,1,1.011,158
"1145",25,74,"high",1,1,2,0,0.649,159
"1146",25,51,"high",1,1,2,1,32.144,160
"1147",25,43,"high",1,1,3,0,1.462,161
"1148",25,9,"high",1,1,5,1,2.803,162
"1149",25,68,"high",1,1,5,1,0.987,163
"1150",25,36,"high",1,1,5,0,2.513,164
"1151",25,64,"high",1,1,3,0,0.594,165
"1152",25,63,"high",1,1,4,1,0.707,166
"1153",25,50,"high",1,1,2,1,1.164,167
"1154",25,17,"high",1,1,5,1,2.319,168
"1155",25,1,"high",1,1,2,1,1.049,169
"1156",25,48,"high",1,1,5,0,0.78,170
"1157",25,29,"high",1,1,4,1,0.743,171
"1158",25,71,"high",1,1,3,1,1.631,172
"1159",25,60,"high",1,1,2,1,1.018,173
"1160",25,55,"high",1,1,5,1,5.21,174
"1161",25,83,"high",1,1,2,1,0.612,175
"1162",25,58,"high",1,1,3,1,1.407,176
"1163",25,30,"high",1,1,5,1,1.146,177
"1164",25,28,"high",1,1,3,0,0.961,178
"1165",25,7,"high",1,1,2,1,7.728,179
"1166",25,76,"high",1,1,3,0,1.202,180
"1167",25,37,"high",1,1,5,1,0.748,181
"1168",25,21,"high",1,1,2,1,0.988,182
"1169",25,81,"high",1,1,2,1,1.343,183
"1170",25,32,"high",1,1,3,1,2.705,184
"1171",25,65,"high",1,1,2,1,2.302,185
"1172",25,57,"high",1,1,5,0,0.637,186
"1173",25,44,"high",1,1,2,0,0.898,187
"1174",25,79,"high",1,1,4,1,1.502,188
"1175",25,18,"high",1,1,6,0,0.755,189
"1176",25,41,"high",1,1,5,0,1.317,190
"1177",26,21,"low",1,1,6,0,7.496,107
"1178",26,37,"low",1,1,3,0,3.449,108
"1179",26,48,"low",1,1,5,1,2.296,109
"1180",26,83,"low",1,1,1,0,2.405,110
"1181",26,69,"low",1,1,5,0,3.456,111
"1182",26,42,"low",1,1,2,0,2.902,112
"1183",26,73,"low",1,1,4,1,1.656,113
"1184",26,43,"low",1,1,5,1,1.067,114
"1185",26,46,"low",1,1,4,0,2.415,115
"1186",26,27,"low",1,1,2,0,0.936,116
"1187",26,78,"low",1,1,2,0,1.987,117
"1188",26,33,"low",1,1,5,1,1.364,118
"1189",26,80,"low",1,1,6,0,1.92,119
"1190",26,20,"low",1,1,5,0,3.138,120
"1191",26,67,"low",1,1,3,0,1.728,121
"1192",26,61,"low",1,1,2,0,1.642,122
"1193",26,77,"low",1,1,1,0,1.121,123
"1194",26,49,"low",1,1,3,0,1.202,124
"1195",26,23,"low",1,1,5,0,2.02,125
"1196",26,9,"low",1,1,5,0,1.753,126
"1197",26,70,"low",1,1,2,0,2.379,127
"1198",26,52,"low",1,1,4,0,2.474,128
"1199",26,36,"low",1,1,5,1,2.048,129
"1200",26,7,"low",1,1,3,0,1.635,130
"1201",26,47,"low",1,1,4,0,2.491,131
"1202",26,66,"low",1,1,5,1,2.038,132
"1203",26,54,"low",1,1,2,1,3.713,133
"1204",26,74,"low",1,1,4,1,1.312,134
"1205",26,12,"low",1,1,1,0,2.153,135
"1206",26,65,"low",1,1,3,0,2.032,136
"1207",26,79,"low",1,1,4,0,1.493,137
"1208",26,14,"low",1,1,5,0,1.995,138
"1209",26,64,"low",1,1,5,1,1.654,139
"1210",26,35,"low",1,1,3,0,1.034,140
"1211",26,59,"low",1,1,5,0,2.283,141
"1212",26,57,"low",1,1,5,1,1.562,142
"1213",26,6,"low",1,1,4,1,2.243,143
"1214",26,8,"low",1,1,6,1,1.667,144
"1215",26,29,"low",1,1,4,0,1.165,145
"1216",26,53,"low",1,1,5,0,1.953,146
"1217",26,28,"low",1,1,3,1,0.749,147
"1218",26,82,"low",1,1,2,0,0.842,148
"1219",26,31,"low",1,1,4,1,1.462,149
"1220",26,11,"low",1,1,5,0,1.275,150
"1221",26,44,"low",1,1,3,1,0.723,151
"1222",26,41,"low",1,1,6,1,3.21,152
"1223",26,81,"low",1,1,5,0,1.265,153
"1224",26,39,"low",1,1,4,0,1.366,154
"1225",26,50,"low",1,1,4,0,1.955,155
"1226",26,4,"low",1,1,4,0,0.943,156
"1227",26,15,"low",1,1,3,1,1.059,157
"1228",26,58,"low",1,1,4,0,2.518,158
"1229",26,19,"low",1,1,5,0,1.273,159
"1230",26,26,"low",1,1,5,1,1.383,160
"1231",26,56,"low",1,1,4,0,1.034,161
"1232",26,75,"low",1,1,1,0,1.665,162
"1233",26,63,"low",1,1,5,0,1.683,163
"1234",26,38,"low",1,1,4,1,2.886,164
"1235",26,13,"low",1,1,1,0,1.227,165
"1236",26,16,"low",1,1,2,1,1.576,166
"1237",26,24,"low",1,1,4,0,1.482,167
"1238",26,25,"low",1,1,4,0,1.104,168
"1239",26,71,"low",1,1,3,0,3.948,169
"1240",26,30,"low",1,1,4,0,1.444,170
"1241",26,5,"low",1,1,4,1,1.451,171
"1242",26,45,"low",1,1,5,0,1.21,172
"1243",26,1,"low",1,1,3,0,0.965,173
"1244",26,18,"low",1,1,6,1,1.006,174
"1245",26,17,"low",1,1,4,0,1.144,175
"1246",26,72,"low",1,1,2,0,0.956,176
"1247",26,22,"low",1,1,4,0,1.23,177
"1248",26,10,"low",1,1,1,0,1.089,178
"1249",26,3,"low",1,1,5,1,1.215,179
"1250",26,40,"low",1,1,3,1,0.858,180
"1251",26,68,"low",1,1,4,0,1.617,181
"1252",26,55,"low",1,1,5,0,0.805,182
"1253",26,62,"low",1,1,3,1,1.212,183
"1254",26,2,"low",1,1,3,0,1.891,184
"1255",26,34,"low",1,1,5,1,1.437,185
"1256",26,51,"low",1,1,2,0,1.433,186
"1257",26,60,"low",1,1,4,0,1.649,187
"1258",26,76,"low",1,1,3,1,1.52,188
"1259",26,32,"low",1,1,4,0,1.423,189
"1260",26,84,"low",1,1,5,1,2.988,190
"1261",27,81,"low",1,1,4,0,3.471,107
"1262",27,64,"low",1,1,3,0,1.197,108
"1263",27,19,"low",1,1,5,1,1.263,109
"1264",27,69,"low",1,1,5,1,2.123,110
"1265",27,31,"low",1,1,4,0,1.841,111
"1266",27,17,"low",1,1,3,0,1.372,112
"1267",27,43,"low",1,1,3,0,0.767,113
"1268",27,52,"low",1,1,5,0,0.966,114
"1269",27,40,"low",1,1,5,0,1.406,115
"1270",27,70,"low",1,1,3,0,2.207,116
"1271",27,49,"low",1,1,4,1,7.492,117
"1272",27,4,"low",1,1,4,0,3,118
"1273",27,79,"low",1,1,4,1,1.152,119
"1274",27,23,"low",1,1,5,0,0.92,120
"1275",27,32,"low",1,1,5,1,0.777,121
"1276",27,65,"low",1,1,2,1,1.048,122
"1277",27,59,"low",1,1,4,0,1.788,123
"1278",27,54,"low",1,1,3,0,1.343,124
"1279",27,73,"low",1,1,3,0,2.545,125
"1280",27,30,"low",1,1,5,1,1.258,126
"1281",27,71,"low",1,1,4,0,0.857,127
"1282",27,2,"low",1,1,3,1,1.316,128
"1283",27,80,"low",1,1,3,0,1.813,129
"1284",27,55,"low",1,1,4,1,2.024,130
"1285",27,74,"low",1,1,4,0,1.002,131
"1286",27,46,"low",1,1,4,1,2.683,132
"1287",27,38,"low",1,1,4,0,1.242,133
"1288",27,53,"low",1,1,4,1,0.749,134
"1289",27,62,"low",1,1,3,0,0.822,135
"1290",27,10,"low",1,1,4,1,0.804,136
"1291",27,77,"low",1,1,5,1,0.701,137
"1292",27,51,"low",1,1,4,0,0.863,138
"1293",27,75,"low",1,1,4,1,0.895,139
"1294",27,33,"low",1,1,4,0,0.763,140
"1295",27,63,"low",1,1,3,0,1.867,141
"1296",27,16,"low",1,1,4,0,1.864,142
"1297",27,7,"low",1,1,3,0,2.488,143
"1298",27,21,"low",1,1,4,0,5.305,144
"1299",27,22,"low",1,1,4,0,0.962,145
"1300",27,26,"low",1,1,3,0,1.819,146
"1301",27,44,"low",1,1,4,0,1.142,147
"1302",27,6,"low",1,1,4,0,0.836,148
"1303",27,8,"low",1,1,4,0,0.885,149
"1304",27,39,"low",1,1,4,1,0.707,150
"1305",27,42,"low",1,1,4,1,0.74,151
"1306",27,47,"low",1,1,3,1,0.592,152
"1307",27,82,"low",1,1,3,0,3.105,153
"1308",27,45,"low",1,1,5,1,1.262,154
"1309",27,68,"low",1,1,5,1,1.552,155
"1310",27,61,"low",1,1,4,0,2.57,156
"1311",27,60,"low",1,1,3,0,2.405,157
"1312",27,35,"low",1,1,4,1,6.129,158
"1313",27,13,"low",1,1,3,1,1.083,159
"1314",27,36,"low",1,1,5,0,0.819,160
"1315",27,18,"low",1,1,4,0,0.647,161
"1316",27,34,"low",1,1,3,0,3.852,162
"1317",27,76,"low",1,1,3,0,2.887,163
"1318",27,29,"low",1,1,4,1,1.825,164
"1319",27,41,"low",1,1,4,0,2.488,165
"1320",27,15,"low",1,1,4,0,1.41,166
"1321",27,3,"low",1,1,4,0,2.298,167
"1322",27,58,"low",1,1,4,0,3.244,168
"1323",27,48,"low",1,1,4,0,3.326,169
"1324",27,83,"low",1,1,2,0,2.051,170
"1325",27,78,"low",1,1,4,1,3.268,171
"1326",27,28,"low",1,1,4,0,1.996,172
"1327",27,84,"low",1,1,4,0,0.595,173
"1328",27,20,"low",1,1,4,1,0.646,174
"1329",27,9,"low",1,1,4,0,1.106,175
"1330",27,67,"low",1,1,4,1,1.641,176
"1331",27,57,"low",1,1,4,0,1.426,177
"1332",27,27,"low",1,1,4,0,7.755,178
"1333",27,24,"low",1,1,4,1,14.75,179
"1334",27,25,"low",1,1,4,0,1.118,180
"1335",27,66,"low",1,1,4,0,14.253,181
"1336",27,5,"low",1,1,3,0,1.006,182
"1337",27,50,"low",1,1,4,1,3.308,183
"1338",27,37,"low",1,1,4,0,22.716,184
"1339",27,72,"low",1,1,4,0,0.708,185
"1340",27,12,"low",1,1,3,0,1.749,186
"1341",27,11,"low",1,1,4,1,0.633,187
"1342",27,1,"low",1,1,4,0,1.137,188
"1343",27,56,"low",1,1,3,0,0.84,189
"1344",27,14,"low",1,1,5,0,1.042,190
"1345",28,63,"high",1,1,5,1,2.203,107
"1346",28,65,"high",1,1,6,1,2.7,108
"1347",28,79,"high",1,1,4,1,2.834,109
"1348",28,33,"high",1,1,2,0,1.083,110
"1349",28,21,"high",1,1,3,1,5.297,111
"1350",28,7,"high",1,1,2,1,3.677,112
"1351",28,51,"high",1,1,1,1,13,113
"1352",28,83,"high",1,1,3,1,9.983,114
"1353",28,50,"high",1,1,2,1,4.978,115
"1354",28,59,"high",1,1,4,1,1.22,116
"1355",28,81,"high",1,1,4,1,1.386,117
"1356",28,5,"high",1,1,6,0,2.527,118
"1357",28,52,"high",1,1,3,1,0.839,119
"1358",28,56,"high",1,1,3,1,3.518,120
"1359",28,36,"high",1,1,3,0,2.934,121
"1360",28,2,"high",1,1,4,1,0.61,122
"1361",28,26,"high",1,1,2,0,2.651,123
"1362",28,25,"high",1,1,5,1,2.708,124
"1363",28,78,"high",1,1,2,1,2.332,125
"1364",28,75,"high",1,1,2,1,2.694,126
"1365",28,17,"high",1,1,4,1,0.984,127
"1366",28,18,"high",1,1,3,0,1.471,128
"1367",28,43,"high",1,1,3,0,1.16,129
"1368",28,20,"high",1,1,4,1,2.268,130
"1369",28,13,"high",1,1,6,1,1.298,131
"1370",28,84,"high",1,1,3,0,2.776,132
"1371",28,10,"high",1,1,4,1,0.798,133
"1372",28,12,"high",1,1,4,1,1.223,134
"1373",28,72,"high",1,1,4,1,2.209,135
"1374",28,70,"high",1,1,5,1,1.914,136
"1375",28,30,"high",1,1,4,1,5.347,137
"1376",28,48,"high",1,1,3,0,1.192,138
"1377",28,69,"high",1,1,3,1,2.084,139
"1378",28,80,"high",1,1,3,1,0.928,140
"1379",28,22,"high",1,1,4,1,0.817,141
"1380",28,76,"high",1,1,2,0,1.598,142
"1381",28,40,"high",1,1,3,0,1.102,143
"1382",28,53,"high",1,1,4,1,4.801,144
"1383",28,42,"high",1,1,4,1,0.906,145
"1384",28,47,"high",1,1,3,1,4.981,146
"1385",28,74,"high",1,1,3,0,0.99,147
"1386",28,58,"high",1,1,3,1,6.672,148
"1387",28,29,"high",1,1,4,1,2.211,149
"1388",28,45,"high",1,1,3,1,2.546,150
"1389",28,64,"high",1,1,3,0,4.516,151
"1390",28,71,"high",1,1,3,1,1.489,152
"1391",28,14,"high",1,1,4,1,1.042,153
"1392",28,3,"high",1,1,3,0,4.282,154
"1393",28,37,"high",1,1,5,1,2.352,155
"1394",28,8,"high",1,1,3,0,5.357,156
"1395",28,38,"high",1,1,5,0,1.102,157
"1396",28,62,"high",1,1,2,0,3.611,158
"1397",28,49,"high",1,1,3,1,0.7,159
"1398",28,16,"high",1,1,3,0,1.136,160
"1399",28,54,"high",1,1,2,0,2.966,161
"1400",28,19,"high",1,1,4,1,1.16,162
"1401",28,11,"high",1,1,4,1,1.695,163
"1402",28,4,"high",1,1,3,1,6.892,164
"1403",28,61,"high",1,1,3,1,3.149,165
"1404",28,77,"high",1,1,4,1,0.812,166
"1405",28,73,"high",1,1,2,0,1.395,167
"1406",28,31,"high",1,1,4,0,2.499,168
"1407",28,27,"high",1,1,4,1,0.946,169
"1408",28,39,"high",1,1,4,1,3.665,170
"1409",28,57,"high",1,1,4,0,5.02,171
"1410",28,46,"high",1,1,2,1,2.517,172
"1411",28,44,"high",1,1,2,0,1.319,173
"1412",28,34,"high",1,1,4,0,1.862,174
"1413",28,1,"high",1,1,2,1,2.476,175
"1414",28,23,"high",1,1,4,1,1.601,176
"1415",28,35,"high",1,1,4,1,3.119,177
"1416",28,28,"high",1,1,3,0,1.196,178
"1417",28,60,"high",1,1,3,1,3.296,179
"1418",28,68,"high",1,1,3,1,1.537,180
"1419",28,66,"high",1,1,4,0,2.972,181
"1420",28,41,"high",1,1,4,0,4.104,182
"1421",28,15,"high",1,1,4,0,1.657,183
"1422",28,55,"high",1,1,3,1,1,184
"1423",28,9,"high",1,1,3,1,2.316,185
"1424",28,82,"high",1,1,2,1,1.247,186
"1425",28,67,"high",1,1,2,1,0.806,187
"1426",28,6,"high",1,1,3,0,1.59,188
"1427",28,32,"high",1,1,3,1,1.301,189
"1428",28,24,"high",1,1,3,1,1.38,190
"1429",29,46,"high",1,1,4,1,6.852,107
"1430",29,36,"high",1,1,5,0,1.944,108
"1431",29,70,"high",1,1,3,1,5.015,109
"1432",29,66,"high",1,1,5,0,2.363,110
"1433",29,4,"high",1,1,3,1,6.192,111
"1434",29,20,"high",1,1,4,1,2.745,112
"1435",29,38,"high",1,1,5,0,5.015,113
"1436",29,32,"high",1,1,5,1,3.281,114
"1437",29,82,"high",1,1,5,1,1.966,115
"1438",29,62,"high",1,1,2,0,4.269,116
"1439",29,53,"high",1,1,5,1,2.414,117
"1440",29,83,"high",1,1,4,1,2.033,118
"1441",29,47,"high",1,1,4,1,2.149,119
"1442",29,6,"high",1,1,5,0,2.4,120
"1443",29,65,"high",1,1,4,1,1.733,121
"1444",29,72,"high",1,1,4,1,1.343,122
"1445",29,78,"high",1,1,3,1,2.566,123
"1446",29,33,"high",1,1,2,0,3.902,124
"1447",29,50,"high",1,1,5,1,1.912,125
"1448",29,80,"high",1,1,5,1,1.927,126
"1449",29,68,"high",1,1,2,1,1.922,127
"1450",29,84,"high",1,1,2,0,2.96,128
"1451",29,21,"high",1,1,4,1,2.889,129
"1452",29,63,"high",1,1,3,1,6.049,130
"1453",29,42,"high",1,1,4,1,2.95,131
"1454",29,67,"high",1,1,4,1,3.876,132
"1455",29,52,"high",1,1,5,1,1.651,133
"1456",29,29,"high",1,1,4,1,1.717,134
"1457",29,49,"high",1,1,3,1,2.182,135
"1458",29,16,"high",1,1,2,0,2.531,136
"1459",29,27,"high",1,1,4,1,4.603,137
"1460",29,1,"high",1,1,4,1,1.771,138
"1461",29,14,"high",1,1,5,1,1.269,139
"1462",29,26,"high",1,1,3,0,1.141,140
"1463",29,43,"high",1,1,2,0,1.154,141
"1464",29,10,"high",1,1,3,1,2.377,142
"1465",29,28,"high",1,1,4,0,3.024,143
"1466",29,69,"high",1,1,4,1,2.183,144
"1467",29,40,"high",1,1,4,0,4.036,145
"1468",29,37,"high",1,1,5,1,2.041,146
"1469",29,23,"high",1,1,5,1,1.294,147
"1470",29,60,"high",1,1,5,1,0.928,148
"1471",29,3,"high",1,1,5,0,1.711,149
"1472",29,12,"high",1,1,3,1,1.64,150
"1473",29,58,"high",1,1,4,1,6.335,151
"1474",29,55,"high",1,1,5,1,1.056,152
"1475",29,56,"high",1,1,5,1,1.617,153
"1476",29,22,"high",1,1,4,1,1.977,154
"1477",29,17,"high",1,1,5,1,2.026,155
"1478",29,59,"high",1,1,5,1,2.088,156
"1479",29,9,"high",1,1,4,1,1.636,157
"1480",29,5,"high",1,1,3,0,3.019,158
"1481",29,34,"high",1,1,5,0,1.145,159
"1482",29,25,"high",1,1,3,1,1.726,160
"1483",29,51,"high",1,1,3,1,1.51,161
"1484",29,8,"high",1,1,4,0,1.527,162
"1485",29,57,"high",1,1,4,0,1.54,163
"1486",29,74,"high",1,1,3,0,1.739,164
"1487",29,64,"high",1,1,5,0,2.069,165
"1488",29,71,"high",1,1,5,1,1.407,166
"1489",29,81,"high",1,1,4,1,3.402,167
"1490",29,13,"high",1,1,3,1,3.648,168
"1491",29,2,"high",1,1,4,1,1.113,169
"1492",29,31,"high",1,1,3,0,2.04,170
"1493",29,45,"high",1,1,4,1,2.467,171
"1494",29,54,"high",1,1,3,0,2.207,172
"1495",29,30,"high",1,1,5,1,1.734,173
"1496",29,41,"high",1,1,4,0,2.276,174
"1497",29,76,"high",1,1,2,0,1.665,175
"1498",29,61,"high",1,1,3,1,2.288,176
"1499",29,18,"high",1,1,4,0,1.555,177
"1500",29,48,"high",1,1,4,0,3.553,178
"1501",29,19,"high",1,1,4,1,0.809,179
"1502",29,73,"high",1,1,4,0,1.26,180
"1503",29,79,"high",1,1,5,1,1.103,181
"1504",29,7,"high",1,1,4,1,1.597,182
"1505",29,24,"high",1,1,4,1,1.035,183
"1506",29,35,"high",1,1,3,1,0.911,184
"1507",29,15,"high",1,1,3,0,1.456,185
"1508",29,11,"high",1,1,4,1,2.096,186
"1509",29,77,"high",1,1,3,1,1.585,187
"1510",29,39,"high",1,1,4,1,1.371,188
"1511",29,44,"high",1,1,4,0,1.924,189
"1512",29,75,"high",1,1,4,1,2.255,190
"1513",30,44,"low",1,1,5,1,1.342,107
"1514",30,73,"low",1,1,4,1,1.099,108
"1515",30,83,"low",1,1,3,0,1.53,109
"1516",30,32,"low",1,1,4,0,1.839,110
"1517",30,63,"low",1,1,4,0,0.902,111
"1518",30,48,"low",1,1,5,1,0.949,112
"1519",30,57,"low",1,1,3,1,2.19,113
"1520",30,38,"low",1,1,4,1,0.778,114
"1521",30,67,"low",1,1,5,0,0.753,115
"1522",30,68,"low",1,1,6,0,0.954,116
"1523",30,54,"low",1,1,5,1,1.323,117
"1524",30,19,"low",1,1,5,0,0.637,118
"1525",30,11,"low",1,1,4,0,0.737,119
"1526",30,40,"low",1,1,5,1,0.822,120
"1527",30,24,"low",1,1,4,0,1.518,121
"1528",30,45,"low",1,1,4,0,0.797,122
"1529",30,77,"low",1,1,4,0,0.535,123
"1530",30,79,"low",1,1,4,0,1.842,124
"1531",30,3,"low",1,1,5,1,1.02,125
"1532",30,81,"low",1,1,5,0,0.624,126
"1533",30,39,"low",1,1,3,0,5.865,127
"1534",30,53,"low",1,1,4,0,0.761,128
"1535",30,30,"low",1,1,3,0,0.711,129
"1536",30,82,"low",1,1,3,0,0.826,130
"1537",30,78,"low",1,1,3,0,2.513,131
"1538",30,62,"low",1,1,4,1,0.799,132
"1539",30,22,"low",1,1,4,0,1.94,133
"1540",30,6,"low",1,1,5,1,0.83,134
"1541",30,13,"low",1,1,3,0,0.783,135
"1542",30,15,"low",1,1,4,1,0.619,136
"1543",30,37,"low",1,1,3,0,4.27,137
"1544",30,55,"low",1,1,5,0,6.347,138
"1545",30,72,"low",1,1,2,0,0.911,139
"1546",30,23,"low",1,1,5,0,1.509,140
"1547",30,36,"low",1,1,4,1,0.84,141
"1548",30,28,"low",1,1,4,1,0.684,142
"1549",30,35,"low",1,1,4,0,0.694,143
"1550",30,20,"low",1,1,5,0,0.927,144
"1551",30,29,"low",1,1,4,0,0.966,145
"1552",30,9,"low",1,1,4,0,2.149,146
"1553",30,61,"low",1,1,3,0,4.217,147
"1554",30,66,"low",1,1,4,1,1.125,148
"1555",30,64,"low",1,1,5,1,0.908,149
"1556",30,80,"low",1,1,3,0,1.539,150
"1557",30,52,"low",1,1,5,0,0.815,151
"1558",30,4,"low",1,1,4,0,1.365,152
"1559",30,43,"low",1,1,3,1,1.829,153
"1560",30,26,"low",1,1,2,1,0.744,154
"1561",30,74,"low",1,1,3,1,0.645,155
"1562",30,16,"low",1,1,3,1,0.779,156
"1563",30,25,"low",1,1,4,0,1.358,157
"1564",30,47,"low",1,1,3,0,3.644,158
"1565",30,42,"low",1,1,5,0,1.685,159
"1566",30,51,"low",1,1,3,0,1.655,160
"1567",30,33,"low",1,1,4,1,2.054,161
"1568",30,34,"low",1,1,4,1,0.852,162
"1569",30,10,"low",1,1,4,0,0.58,163
"1570",30,60,"low",1,1,4,0,3.458,164
"1571",30,12,"low",1,1,4,0,1.365,165
"1572",30,50,"low",1,1,5,0,1.276,166
"1573",30,46,"low",1,1,4,0,0.715,167
"1574",30,21,"low",1,1,4,0,0.764,168
"1575",30,41,"low",1,1,5,1,0.871,169
"1576",30,18,"low",1,1,4,1,1.626,170
"1577",30,5,"low",1,1,5,1,0.972,171
"1578",30,49,"low",1,1,4,0,1.39,172
"1579",30,75,"low",1,1,5,0,0.854,173
"1580",30,71,"low",1,1,5,0,1.521,174
"1581",30,76,"low",1,1,5,1,1.455,175
"1582",30,31,"low",1,1,4,1,1.506,176
"1583",30,14,"low",1,1,5,0,0.732,177
"1584",30,65,"low",1,1,2,0,4.46,178
"1585",30,58,"low",1,1,4,0,1.951,179
"1586",30,7,"low",1,1,2,0,0.69,180
"1587",30,59,"low",1,1,4,0,1.475,181
"1588",30,8,"low",1,1,5,1,0.83,182
"1589",30,17,"low",1,1,4,0,1.093,183
"1590",30,69,"low",1,1,4,0,1.458,184
"1591",30,27,"low",1,1,4,0,1.017,185
"1592",30,70,"low",1,1,2,0,0.99,186
"1593",30,2,"low",1,1,5,0,1.511,187
"1594",30,56,"low",1,1,4,0,0.88,188
"1595",30,1,"low",1,1,4,0,0.644,189
"1596",30,84,"low",1,1,5,1,1.149,190
"1597",31,55,"low",1,1,5,1,3.493,107
"1598",31,6,"low",1,1,4,0,1.6,108
"1599",31,45,"low",1,1,2,1,0.806,109
"1600",31,35,"low",1,1,2,1,0.951,110
"1601",31,7,"low",1,1,4,0,0.822,111
"1602",31,74,"low",1,1,5,0,0.839,112
"1603",31,79,"low",1,1,4,1,2.12,113
"1604",31,18,"low",1,1,1,0,0.954,114
"1605",31,66,"low",1,1,5,0,1.483,115
"1606",31,4,"low",1,1,4,0,0.769,116
"1607",31,80,"low",1,1,5,0,1.154,117
"1608",31,22,"low",1,1,5,0,0.699,118
"1609",31,60,"low",1,1,4,0,0.994,119
"1610",31,68,"low",1,1,6,1,0.734,120
"1611",31,38,"low",1,1,5,0,0.877,121
"1612",31,10,"low",1,1,2,1,0.793,122
"1613",31,49,"low",1,1,2,1,0.724,123
"1614",31,43,"low",1,1,3,0,0.856,124
"1615",31,47,"low",1,1,2,1,1.832,125
"1616",31,17,"low",1,1,4,0,2.381,126
"1617",31,39,"low",1,1,4,1,0.813,127
"1618",31,84,"low",1,1,1,0,1.225,128
"1619",31,27,"low",1,1,3,0,3.326,129
"1620",31,53,"low",1,1,5,1,0.678,130
"1621",31,63,"low",1,1,5,0,1.181,131
"1622",31,59,"low",1,1,4,0,1.775,132
"1623",31,20,"low",1,1,6,1,0.726,133
"1624",31,16,"low",1,1,4,0,1.804,134
"1625",31,44,"low",1,1,1,0,0.597,135
"1626",31,54,"low",1,1,4,0,1.562,136
"1627",31,64,"low",1,1,1,0,1.174,137
"1628",31,26,"low",1,1,5,0,0.883,138
"1629",31,30,"low",1,1,3,1,0.582,139
"1630",31,25,"low",1,1,2,0,1.793,140
"1631",31,57,"low",1,1,4,0,0.844,141
"1632",31,61,"low",1,1,6,0,1.309,142
"1633",31,75,"low",1,1,3,1,4.547,143
"1634",31,8,"low",1,1,4,0,1.599,144
"1635",31,11,"low",1,1,4,1,0.785,145
"1636",31,36,"low",1,1,2,0,2.318,146
"1637",31,72,"low",1,1,4,0,1.372,147
"1638",31,19,"low",1,1,4,1,1.239,148
"1639",31,58,"low",1,1,5,0,3.166,149
"1640",31,5,"low",1,1,1,0,1.151,150
"1641",31,56,"low",1,1,3,0,1.947,151
"1642",31,29,"low",1,1,4,1,0.664,152
"1643",31,34,"low",1,1,5,0,2.062,153
"1644",31,24,"low",1,1,3,1,1.067,154
"1645",31,71,"low",1,1,3,0,2.354,155
"1646",31,41,"low",1,1,4,0,0.961,156
"1647",31,15,"low",1,1,3,0,1.018,157
"1648",31,1,"low",1,1,4,0,2.336,158
"1649",31,28,"low",1,1,3,0,2.636,159
"1650",31,32,"low",1,1,2,1,0.773,160
"1651",31,14,"low",1,1,2,0,1.375,161
"1652",31,21,"low",1,1,5,0,0.75,162
"1653",31,3,"low",1,1,6,0,0.62,163
"1654",31,2,"low",1,1,5,1,0.575,164
"1655",31,13,"low",1,1,2,1,0.644,165
"1656",31,70,"low",1,1,2,0,1.312,166
"1657",31,69,"low",1,1,4,1,2.469,167
"1658",31,48,"low",1,1,3,0,1.192,168
"1659",31,12,"low",1,1,4,0,0.49,169
"1660",31,51,"low",1,1,3,0,0.974,170
"1661",31,52,"low",1,1,2,0,0.537,171
"1662",31,73,"low",1,1,3,0,0.745,172
"1663",31,65,"low",1,1,1,1,1.338,173
"1664",31,76,"low",1,1,3,0,1.017,174
"1665",31,82,"low",1,1,2,0,0.48,175
"1666",31,31,"low",1,1,2,0,1.125,176
"1667",31,81,"low",1,1,4,0,1.401,177
"1668",31,42,"low",1,1,4,1,1.493,178
"1669",31,40,"low",1,1,4,0,0.562,179
"1670",31,33,"low",1,1,3,0,1.065,180
"1671",31,62,"low",1,1,5,0,1.409,181
"1672",31,23,"low",1,1,5,0,0.939,182
"1673",31,67,"low",1,1,5,1,0.912,183
"1674",31,9,"low",1,1,4,0,0.919,184
"1675",31,50,"low",1,1,4,1,0.84,185
"1676",31,37,"low",1,1,4,0,0.479,186
"1677",31,83,"low",1,1,3,0,0.529,187
"1678",31,78,"low",1,1,5,1,0.689,188
"1679",31,77,"low",1,1,2,1,0.901,189
"1680",31,46,"low",1,1,2,1,1.242,190
"1681",33,7,"low",1,1,2,1,4.168,107
"1682",33,10,"low",1,1,3,0,1.155,108
"1683",33,22,"low",1,1,4,1,0.803,109
"1684",33,52,"low",1,1,5,1,1.498,110
"1685",33,29,"low",1,1,4,0,1.596,111
"1686",33,68,"low",1,1,3,0,1.906,112
"1687",33,28,"low",1,1,4,0,1.76,113
"1688",33,71,"low",1,1,5,1,1.09,114
"1689",33,45,"low",1,1,1,0,4.757,115
"1690",33,74,"low",1,1,3,0,2.13,116
"1691",33,49,"low",1,1,4,0,0.716,117
"1692",33,33,"low",1,1,5,0,2.688,118
"1693",33,80,"low",1,1,2,1,2.349,119
"1694",33,18,"low",1,1,6,0,0.782,120
"1695",33,23,"low",1,1,6,1,0.941,121
"1696",33,69,"low",1,1,5,0,3.366,122
"1697",33,84,"low",1,1,6,0,0.883,123
"1698",33,41,"low",1,1,4,0,2.715,124
"1699",33,30,"low",1,1,2,0,1.925,125
"1700",33,81,"low",1,1,5,1,1.605,126
"1701",33,16,"low",1,1,1,0,0.848,127
"1702",33,6,"low",1,1,2,0,2.367,128
"1703",33,77,"low",1,1,2,0,0.694,129
"1704",33,26,"low",1,1,5,0,0.635,130
"1705",33,63,"low",1,1,3,1,1.646,131
"1706",33,4,"low",1,1,2,1,1.958,132
"1707",33,3,"low",1,1,6,0,1.096,133
"1708",33,40,"low",1,1,3,0,0.643,134
"1709",33,42,"low",1,1,5,0,0.795,135
"1710",33,9,"low",1,1,4,1,1.196,136
"1711",33,47,"low",1,1,2,0,0.796,137
"1712",33,65,"low",1,1,2,0,1.309,138
"1713",33,13,"low",1,1,1,0,1.499,139
"1714",33,79,"low",1,1,2,0,1.181,140
"1715",33,62,"low",1,1,3,0,0.853,141
"1716",33,78,"low",1,1,4,0,2.723,142
"1717",33,72,"low",1,1,5,1,2.944,143
"1718",33,1,"low",1,1,2,1,1.528,144
"1719",33,14,"low",1,1,5,1,3.374,145
"1720",33,54,"low",1,1,1,0,1.071,146
"1721",33,44,"low",1,1,2,0,0.907,147
"1722",33,12,"low",1,1,6,1,1.851,148
"1723",33,36,"low",1,1,3,0,2.728,149
"1724",33,83,"low",1,1,3,1,0.709,150
"1725",33,34,"low",1,1,3,0,1.017,151
"1726",33,82,"low",1,1,2,1,0.61,152
"1727",33,64,"low",1,1,1,0,0.848,153
"1728",33,55,"low",1,1,3,0,0.861,154
"1729",33,76,"low",1,1,5,0,2.512,155
"1730",33,2,"low",1,1,2,0,1.189,156
"1731",33,32,"low",1,1,5,0,0.856,157
"1732",33,73,"low",1,1,2,0,0.991,158
"1733",33,59,"low",1,1,2,1,1.097,159
"1734",33,19,"low",1,1,5,0,1.762,160
"1735",33,25,"low",1,1,2,1,0.79,161
"1736",33,35,"low",1,1,1,0,0.784,162
"1737",33,21,"low",1,1,5,1,0.892,163
"1738",33,48,"low",1,1,3,0,0.733,164
"1739",33,20,"low",1,1,2,0,1.552,165
"1740",33,27,"low",1,1,2,1,2.326,166
"1741",33,24,"low",1,1,2,0,1.623,167
"1742",33,11,"low",1,1,1,0,0.793,168
"1743",33,46,"low",1,1,2,0,0.95,169
"1744",33,8,"low",1,1,3,0,2.227,170
"1745",33,67,"low",1,1,2,0,6.01,171
"1746",33,5,"low",1,1,5,0,1.329,172
"1747",33,56,"low",1,1,2,1,0.683,173
"1748",33,51,"low",1,1,5,1,1.473,174
"1749",33,58,"low",1,1,3,1,0.925,175
"1750",33,66,"low",1,1,2,0,1.217,176
"1751",33,43,"low",1,1,1,0,1.107,177
"1752",33,17,"low",1,1,3,1,0.866,178
"1753",33,39,"low",1,1,1,0,0.704,179
"1754",33,38,"low",1,1,3,0,1.087,180
"1755",33,70,"low",1,1,1,1,0.856,181
"1756",33,75,"low",1,1,2,0,1.483,182
"1757",33,57,"low",1,1,2,0,3.258,183
"1758",33,61,"low",1,1,1,1,0.73,184
"1759",33,50,"low",1,1,2,0,0.817,185
"1760",33,60,"low",1,1,2,1,1.39,186
"1761",33,53,"low",1,1,3,0,1.898,187
"1762",33,31,"low",1,1,4,0,0.851,188
"1763",33,15,"low",1,1,5,0,0.69,189
"1764",33,37,"low",1,1,2,1,0.723,190
"1765",36,10,"low",1,1,4,1,2.524,107
"1766",36,29,"low",1,1,5,1,5.429,108
"1767",36,58,"low",1,1,2,0,2.001,109
"1768",36,21,"low",1,1,3,0,2.426,110
"1769",36,57,"low",1,1,4,0,3.802,111
"1770",36,50,"low",1,1,2,1,0.96,112
"1771",36,11,"low",1,1,4,1,0.699,113
"1772",36,70,"low",1,1,3,0,1.814,114
"1773",36,65,"low",1,1,5,1,1.213,115
"1774",36,60,"low",1,1,5,0,2.418,116
"1775",36,56,"low",1,1,3,0,1.207,117
"1776",36,63,"low",1,1,4,0,5.556,118
"1777",36,31,"low",1,1,4,0,0.56,119
"1778",36,32,"low",1,1,3,1,1.391,120
"1779",36,36,"low",1,1,4,0,0.945,121
"1780",36,25,"low",1,1,3,0,0.514,122
"1781",36,5,"low",1,1,4,0,1.957,123
"1782",36,17,"low",1,1,4,0,1.195,124
"1783",36,30,"low",1,1,5,1,2.077,125
"1784",36,84,"low",1,1,3,0,1.618,126
"1785",36,62,"low",1,1,2,0,2.146,127
"1786",36,3,"low",1,1,3,0,1.996,128
"1787",36,51,"low",1,1,3,0,1.441,129
"1788",36,83,"low",1,1,3,0,1.104,130
"1789",36,77,"low",1,1,5,1,1.005,131
"1790",36,15,"low",1,1,4,0,1.356,132
"1791",36,33,"low",1,1,5,0,1.223,133
"1792",36,61,"low",1,1,3,0,1.012,134
"1793",36,34,"low",1,1,4,0,6.28,135
"1794",36,19,"low",1,1,4,1,1.094,136
"1795",36,48,"low",1,1,4,0,1.661,137
"1796",36,9,"low",1,1,3,0,3.952,138
"1797",36,4,"low",1,1,3,0,7.45,139
"1798",36,55,"low",1,1,1,1,4.225,140
"1799",36,16,"low",1,1,2,0,3.214,141
"1800",36,76,"low",1,1,4,0,7.553,142
"1801",36,6,"low",1,1,3,0,1.984,143
"1802",36,52,"low",1,1,5,0,5.751,144
"1803",36,38,"low",1,1,4,0,1.17,145
"1804",36,54,"low",1,1,3,0,2.971,146
"1805",36,40,"low",1,1,3,0,0.666,147
"1806",36,35,"low",1,1,5,1,0.802,148
"1807",36,66,"low",1,1,4,0,2.407,149
"1808",36,27,"low",1,1,3,0,0.595,150
"1809",36,37,"low",1,1,3,0,2.558,151
"1810",36,24,"low",1,1,3,1,1.874,152
"1811",36,23,"low",1,1,4,0,1.589,153
"1812",36,41,"low",1,1,4,0,1.331,154
"1813",36,68,"low",1,1,4,1,0.587,155
"1814",36,47,"low",1,1,4,1,1.403,156
"1815",36,73,"low",1,1,3,0,3.862,157
"1816",36,14,"low",1,1,4,0,0.723,158
"1817",36,71,"low",1,1,4,0,1.049,159
"1818",36,79,"low",1,1,4,1,0.826,160
"1819",36,7,"low",1,1,6,0,0.999,161
"1820",36,75,"low",1,1,4,1,1.114,162
"1821",36,12,"low",1,1,4,0,0.541,163
"1822",36,2,"low",1,1,3,1,0.556,164
"1823",36,45,"low",1,1,4,1,0.771,165
"1824",36,43,"low",1,1,3,0,2.181,166
"1825",36,22,"low",1,1,3,0,0.806,167
"1826",36,42,"low",1,1,4,1,1.016,168
"1827",36,18,"low",1,1,4,0,0.578,169
"1828",36,82,"low",1,1,3,0,0.935,170
"1829",36,53,"low",1,1,3,1,4.53,171
"1830",36,46,"low",1,1,2,1,1.161,172
"1831",36,74,"low",1,1,3,0,0.636,173
"1832",36,44,"low",1,1,4,0,0.808,174
"1833",36,8,"low",1,1,3,0,0.798,175
"1834",36,80,"low",1,1,5,0,1.363,176
"1835",36,13,"low",1,1,4,1,0.504,177
"1836",36,20,"low",1,1,4,1,0.779,178
"1837",36,26,"low",1,1,2,0,1.97,179
"1838",36,69,"low",1,1,4,1,1.384,180
"1839",36,49,"low",1,1,4,1,0.705,181
"1840",36,78,"low",1,1,2,1,1.468,182
"1841",36,59,"low",1,1,3,0,1.683,183
"1842",36,67,"low",1,1,3,1,1.103,184
"1843",36,81,"low",1,1,4,0,2.579,185
"1844",36,28,"low",1,1,3,0,0.736,186
"1845",36,64,"low",1,1,5,0,0.774,187
"1846",36,72,"low",1,1,3,0,2.044,188
"1847",36,1,"low",1,1,3,0,1.314,189
"1848",36,39,"low",1,1,5,1,0.839,190
"1849",37,59,"low",1,1,4,1,9.243,107
"1850",37,58,"low",1,1,5,1,2.671,108
"1851",37,16,"low",1,1,5,0,4.511,109
"1852",37,76,"low",1,1,2,0,4.173,110
"1853",37,53,"low",1,1,5,0,6.193,111
"1854",37,19,"low",1,1,1,0,3.989,112
"1855",37,68,"low",1,1,4,0,6.677,113
"1856",37,84,"low",1,1,6,0,10.561,114
"1857",37,52,"low",1,1,3,1,8.451,115
"1858",37,1,"low",1,1,3,1,12.383,116
"1859",37,8,"low",1,1,3,0,12.491,117
"1860",37,79,"low",1,1,4,0,8.103,118
"1861",37,9,"low",1,1,5,1,1.751,119
"1862",37,28,"low",1,1,1,0,5.013,120
"1863",37,6,"low",1,1,3,0,6.626,121
"1864",37,63,"low",1,1,4,1,6.534,122
"1865",37,5,"low",1,1,6,0,0.968,123
"1866",37,29,"low",1,1,1,0,5.613,124
"1867",37,46,"low",1,1,3,0,3.187,125
"1868",37,66,"low",1,1,4,0,6.742,126
"1869",37,25,"low",1,1,4,1,8.099,127
"1870",37,32,"low",1,1,3,0,7.607,128
"1871",37,81,"low",1,1,5,1,3.211,129
"1872",37,36,"low",1,1,1,0,2.148,130
"1873",37,62,"low",1,1,3,0,2.35,131
"1874",37,56,"low",1,1,2,1,12.486,132
"1875",37,11,"low",1,1,5,0,3.58,133
"1876",37,24,"low",1,1,2,0,6.492,134
"1877",37,15,"low",1,1,3,0,5.307,135
"1878",37,14,"low",1,1,2,1,12.192,136
"1879",37,55,"low",1,1,3,0,8.047,137
"1880",37,80,"low",1,1,4,1,15.479,138
"1881",37,54,"low",1,1,1,0,4.089,139
"1882",37,49,"low",1,1,3,0,1.903,140
"1883",37,26,"low",1,1,1,0,1.488,141
"1884",37,12,"low",1,1,3,1,16.682,142
"1885",37,78,"low",1,1,4,0,9.633,143
"1886",37,69,"low",1,1,4,0,6.255,144
"1887",37,3,"low",1,1,6,0,1.631,145
"1888",37,21,"low",1,1,3,1,8.911,146
"1889",37,67,"low",1,1,4,0,8.607,147
"1890",37,38,"low",1,1,5,0,12.106,148
"1891",37,41,"low",1,1,5,0,5.825,149
"1892",37,40,"low",1,1,2,0,2.724,150
"1893",37,82,"low",1,1,2,1,0.869,151
"1894",37,31,"low",1,1,3,0,1.746,152
"1895",37,77,"low",1,1,1,0,1.774,153
"1896",37,17,"low",1,1,1,1,11.357,154
"1897",37,71,"low",1,1,3,1,5.771,155
"1898",37,73,"low",1,1,3,0,10.192,156
"1899",37,10,"low",1,1,3,0,7.757,157
"1900",37,83,"low",1,1,4,1,1.989,158
"1901",37,60,"low",1,1,4,1,9.729,159
"1902",37,48,"low",1,1,4,0,4.895,160
"1903",37,45,"low",1,1,3,0,0.937,161
"1904",37,22,"low",1,1,6,1,1.53,162
"1905",37,30,"low",1,1,1,0,2.861,163
"1906",37,72,"low",1,1,4,1,4.904,164
"1907",37,47,"low",1,1,4,0,11.76,165
"1908",37,13,"low",1,1,3,0,1.58,166
"1909",37,35,"low",1,1,2,0,2.009,167
"1910",37,2,"low",1,1,4,0,1.671,168
"1911",37,61,"low",1,1,3,1,4.656,169
"1912",37,42,"low",1,1,6,0,0.856,170
"1913",37,20,"low",1,1,4,0,2.981,171
"1914",37,37,"low",1,1,4,1,3.667,172
"1915",37,65,"low",1,1,2,0,2.299,173
"1916",37,51,"low",1,1,2,1,12.001,174
"1917",37,50,"low",1,1,3,0,1.622,175
"1918",37,4,"low",1,1,2,1,0.755,176
"1919",37,23,"low",1,1,5,1,4.543,177
"1920",37,75,"low",1,1,3,0,4.542,178
"1921",37,44,"low",1,1,4,0,1.989,179
"1922",37,39,"low",1,1,4,0,1.649,180
"1923",37,33,"low",1,1,2,0,3.631,181
"1924",37,64,"low",1,1,3,0,5.552,182
"1925",37,57,"low",1,1,4,0,1.413,183
"1926",37,27,"low",1,1,4,1,1.463,184
"1927",37,34,"low",1,1,4,0,4.252,185
"1928",37,18,"low",1,1,3,0,2.628,186
"1929",37,43,"low",1,1,3,0,3.282,187
"1930",37,74,"low",1,1,2,0,6.133,188
"1931",37,70,"low",1,1,3,1,4.772,189
"1932",37,7,"low",1,1,5,1,2.708,190
"1933",38,20,"high",1,1,4,0,3.37,107
"1934",38,42,"high",1,1,3,0,5.722,108
"1935",38,27,"high",1,1,5,1,1.652,109
"1936",38,64,"high",1,1,4,1,5.946,110
"1937",38,18,"high",1,1,3,1,4.226,111
"1938",38,53,"high",1,1,4,0,1.656,112
"1939",38,16,"high",1,1,5,1,1.123,113
"1940",38,67,"high",1,1,5,0,2.663,114
"1941",38,52,"high",1,1,5,1,1.203,115
"1942",38,21,"high",1,1,5,1,8.087,116
"1943",38,75,"high",1,1,4,0,2.347,117
"1944",38,1,"high",1,1,2,1,1.173,118
"1945",38,25,"high",1,1,3,1,2.561,119
"1946",38,34,"high",1,1,4,1,2.273,120
"1947",38,68,"high",1,1,3,0,1.937,121
"1948",38,71,"high",1,1,4,1,1.771,122
"1949",38,6,"high",1,1,2,1,0.677,123
"1950",38,3,"high",1,1,5,1,1.258,124
"1951",38,78,"high",1,1,4,0,2.834,125
"1952",38,66,"high",1,1,2,1,2.614,126
"1953",38,61,"high",1,1,2,1,2.93,127
"1954",38,23,"high",1,1,1,1,0.904,128
"1955",38,14,"high",1,1,4,1,1.547,129
"1956",38,13,"high",1,1,1,0,0.971,130
"1957",38,35,"high",1,1,5,0,2.554,131
"1958",38,15,"high",1,1,2,1,1.141,132
"1959",38,39,"high",1,1,2,0,3.841,133
"1960",38,40,"high",1,1,3,1,1.567,134
"1961",38,31,"high",1,1,3,1,1.914,135
"1962",38,79,"high",1,1,2,0,1.115,136
"1963",38,29,"high",1,1,3,0,1.057,137
"1964",38,36,"high",1,1,2,1,1.703,138
"1965",38,10,"high",1,1,4,0,0.739,139
"1966",38,62,"high",1,1,4,1,1.203,140
"1967",38,45,"high",1,1,4,0,4.72,141
"1968",38,80,"high",1,1,2,1,1.277,142
"1969",38,30,"high",1,1,3,0,1.653,143
"1970",38,70,"high",1,1,4,1,1.067,144
"1971",38,19,"high",1,1,3,0,0.691,145
"1972",38,63,"high",1,1,4,1,0.711,146
"1973",38,69,"high",1,1,4,0,2.849,147
"1974",38,51,"high",1,1,3,1,1.212,148
"1975",38,58,"high",1,1,2,1,0.831,149
"1976",38,32,"high",1,1,4,0,1.943,150
"1977",38,47,"high",1,1,4,0,1.879,151
"1978",38,46,"high",1,1,2,0,2.202,152
"1979",38,56,"high",1,1,3,1,1.183,153
"1980",38,17,"high",1,1,3,1,0.994,154
"1981",38,84,"high",1,1,4,1,0.576,155
"1982",38,54,"high",1,1,3,1,1.511,156
"1983",38,60,"high",1,1,3,1,0.98,157
"1984",38,7,"high",1,1,4,1,3.857,158
"1985",38,43,"high",1,1,3,1,1.525,159
"1986",38,82,"high",1,1,2,1,1.138,160
"1987",38,59,"high",1,1,3,1,1.357,161
"1988",38,12,"high",1,1,2,1,2.353,162
"1989",38,81,"high",1,1,4,1,1.347,163
"1990",38,11,"high",1,1,4,0,1.965,164
"1991",38,28,"high",1,1,5,1,0.859,165
"1992",38,73,"high",1,1,3,1,5.071,166
"1993",38,83,"high",1,1,2,1,0.708,167
"1994",38,38,"high",1,1,5,1,1.552,168
"1995",38,5,"high",1,1,4,1,0.633,169
"1996",38,33,"high",1,1,3,1,3.158,170
"1997",38,74,"high",1,1,3,1,1.27,171
"1998",38,57,"high",1,1,4,1,1.613,172
"1999",38,24,"high",1,1,4,0,2.096,173
"2000",38,8,"high",1,1,3,1,0.942,174
"2001",38,72,"high",1,1,2,1,0.821,175
"2002",38,22,"high",1,1,4,1,1.959,176
"2003",38,48,"high",1,1,4,1,0.695,177
"2004",38,41,"high",1,1,4,1,0.514,178
"2005",38,49,"high",1,1,3,0,1.272,179
"2006",38,65,"high",1,1,3,0,6.485,180
"2007",38,9,"high",1,1,3,1,1.365,181
"2008",38,50,"high",1,1,3,0,0.751,182
"2009",38,26,"high",1,1,4,1,2.198,183
"2010",38,55,"high",1,1,4,0,1.293,184
"2011",38,76,"high",1,1,3,1,1.772,185
"2012",38,4,"high",1,1,3,1,1.135,186
"2013",38,37,"high",1,1,1,1,1.198,187
"2014",38,2,"high",1,1,2,0,1.586,188
"2015",38,44,"high",1,1,2,1,1.05,189
"2016",38,77,"high",1,1,3,0,3.221,190
"2017",39,46,"high",1,1,2,1,3.946,107
"2018",39,77,"high",1,1,4,1,1.254,108
"2019",39,11,"high",1,1,4,1,1.894,109
"2020",39,5,"high",1,1,4,0,1.933,110
"2021",39,17,"high",1,1,3,1,2.745,111
"2022",39,38,"high",1,1,4,0,1.107,112
"2023",39,20,"high",1,1,5,1,1.497,113
"2024",39,80,"high",1,1,3,1,0.932,114
"2025",39,1,"high",1,1,2,1,1.05,115
"2026",39,30,"high",1,1,5,1,1.301,116
"2027",39,49,"high",1,1,3,1,0.921,117
"2028",39,81,"high",1,1,3,1,0.82,118
"2029",39,34,"high",1,1,4,0,1.064,119
"2030",39,39,"high",1,1,3,1,1.363,120
"2031",39,54,"high",1,1,4,0,0.847,121
"2032",39,24,"high",1,1,3,1,0.904,122
"2033",39,2,"high",1,1,5,1,1.019,123
"2034",39,35,"high",1,1,5,1,0.847,124
"2035",39,42,"high",1,1,5,1,0.699,125
"2036",39,69,"high",1,1,5,1,2.464,126
"2037",39,83,"high",1,1,3,1,0.997,127
"2038",39,78,"high",1,1,4,1,1.573,128
"2039",39,70,"high",1,1,4,1,0.738,129
"2040",39,71,"high",1,1,4,1,1.234,130
"2041",39,22,"high",1,1,3,1,0.626,131
"2042",39,48,"high",1,1,4,0,0.698,132
"2043",39,16,"high",1,1,4,0,1.894,133
"2044",39,36,"high",1,1,5,0,1.202,134
"2045",39,33,"high",1,1,5,0,0.779,135
"2046",39,4,"high",1,1,4,1,0.623,136
"2047",39,56,"high",1,1,3,1,0.772,137
"2048",39,84,"high",1,1,3,0,4.302,138
"2049",39,72,"high",1,1,3,1,1.164,139
"2050",39,64,"high",1,1,2,0,1.001,140
"2051",39,12,"high",1,1,2,1,1.272,141
"2052",39,75,"high",1,1,4,1,1.401,142
"2053",39,63,"high",1,1,4,1,1.154,143
"2054",39,76,"high",1,1,3,0,0.697,144
"2055",39,23,"high",1,1,3,1,1.45,145
"2056",39,61,"high",1,1,4,1,0.798,146
"2057",39,58,"high",1,1,4,1,2.461,147
"2058",39,32,"high",1,1,4,1,0.797,148
"2059",39,53,"high",1,1,4,1,1.823,149
"2060",39,27,"high",1,1,3,1,2.831,150
"2061",39,57,"high",1,1,4,0,0.993,151
"2062",39,18,"high",1,1,3,0,0.981,152
"2063",39,45,"high",1,1,5,1,1.014,153
"2064",39,26,"high",1,1,4,0,2.61,154
"2065",39,14,"high",1,1,4,1,1.073,155
"2066",39,31,"high",1,1,3,0,0.614,156
"2067",39,28,"high",1,1,3,0,2.183,157
"2068",39,47,"high",1,1,3,1,1.896,158
"2069",39,13,"high",1,1,2,1,0.817,159
"2070",39,29,"high",1,1,4,1,0.672,160
"2071",39,43,"high",1,1,3,0,0.668,161
"2072",39,37,"high",1,1,4,1,1.02,162
"2073",39,68,"high",1,1,5,1,0.869,163
"2074",39,21,"high",1,1,3,1,0.535,164
"2075",39,73,"high",1,1,2,0,0.721,165
"2076",39,50,"high",1,1,3,1,0.752,166
"2077",39,60,"high",1,1,4,1,0.955,167
"2078",39,25,"high",1,1,4,1,0.807,168
"2079",39,67,"high",1,1,4,1,0.692,169
"2080",39,55,"high",1,1,2,1,0.895,170
"2081",39,79,"high",1,1,3,1,1.417,171
"2082",39,7,"high",1,1,3,1,1.537,172
"2083",39,8,"high",1,1,4,0,0.758,173
"2084",39,74,"high",1,1,3,0,0.594,174
"2085",39,66,"high",1,1,4,0,2.36,175
"2086",39,82,"high",1,1,4,1,0.615,176
"2087",39,3,"high",1,1,4,0,3.642,177
"2088",39,52,"high",1,1,4,1,0.966,178
"2089",39,44,"high",1,1,2,0,0.821,179
"2090",39,40,"high",1,1,4,0,0.616,180
"2091",39,51,"high",1,1,4,1,1.229,181
"2092",39,41,"high",1,1,5,0,0.748,182
"2093",39,62,"high",1,1,3,0,4.37,183
"2094",39,19,"high",1,1,5,1,0.586,184
"2095",39,9,"high",1,1,3,1,0.6,185
"2096",39,59,"high",1,1,2,1,0.754,186
"2097",39,65,"high",1,1,4,1,1.273,187
"2098",39,10,"high",1,1,3,1,0.982,188
"2099",39,15,"high",1,1,3,0,0.643,189
"2100",39,6,"high",1,1,3,0,1.102,190
"2101",41,31,"high",1,1,4,1,4.673,107
"2102",41,57,"high",1,1,4,1,4.408,108
"2103",41,36,"high",1,1,3,1,4.447,109
"2104",41,35,"high",1,1,5,1,0.547,110
"2105",41,52,"high",1,1,5,0,6.239,111
"2106",41,63,"high",1,1,3,0,4.189,112
"2107",41,56,"high",1,1,4,0,2.522,113
"2108",41,27,"high",1,1,5,0,2.986,114
"2109",41,41,"high",1,1,6,1,0.921,115
"2110",41,50,"high",1,1,2,1,6.212,116
"2111",41,25,"high",1,1,4,0,2.679,117
"2112",41,10,"high",1,1,2,1,0.843,118
"2113",41,23,"high",1,1,3,0,1.59,119
"2114",41,78,"high",1,1,3,1,0.859,120
"2115",41,82,"high",1,1,2,0,4.223,121
"2116",41,38,"high",1,1,5,1,1.198,122
"2117",41,42,"high",1,1,5,1,2.295,123
"2118",41,67,"high",1,1,4,1,3.606,124
"2119",41,17,"high",1,1,5,0,0.667,125
"2120",41,65,"high",1,1,2,1,7.382,126
"2121",41,26,"high",1,1,6,1,1.057,127
"2122",41,28,"high",1,1,3,1,3.598,128
"2123",41,19,"high",1,1,2,1,0.862,129
"2124",41,1,"high",1,1,2,0,0.888,130
"2125",41,74,"high",1,1,2,1,1.662,131
"2126",41,12,"high",1,1,3,0,1.227,132
"2127",41,20,"high",1,1,5,1,5.205,133
"2128",41,44,"high",1,1,3,1,1.258,134
"2129",41,75,"high",1,1,3,1,8.369,135
"2130",41,68,"high",1,1,4,1,2.518,136
"2131",41,11,"high",1,1,5,1,4.33,137
"2132",41,21,"high",1,1,3,0,0.53,138
"2133",41,5,"high",1,1,5,1,1.116,139
"2134",41,73,"high",1,1,5,1,0.808,140
"2135",41,81,"high",1,1,2,0,0.64,141
"2136",41,59,"high",1,1,4,0,1.552,142
"2137",41,48,"high",1,1,4,1,3.94,143
"2138",41,77,"high",1,1,1,1,1.525,144
"2139",41,8,"high",1,1,4,1,6.046,145
"2140",41,43,"high",1,1,2,1,0.667,146
"2141",41,33,"high",1,1,5,1,2.4,147
"2142",41,61,"high",1,1,2,0,3.276,148
"2143",41,7,"high",1,1,6,0,1.172,149
"2144",41,69,"high",1,1,4,1,2.61,150
"2145",41,66,"high",1,1,5,1,1.179,151
"2146",41,79,"high",1,1,3,1,1.74,152
"2147",41,45,"high",1,1,3,1,1.903,153
"2148",41,29,"high",1,1,5,1,1.412,154
"2149",41,71,"high",1,1,2,0,2.341,155
"2150",41,9,"high",1,1,4,0,2.76,156
"2151",41,14,"high",1,1,5,0,0.946,157
"2152",41,18,"high",1,1,6,1,0.912,158
"2153",41,54,"high",1,1,3,1,3.985,159
"2154",41,84,"high",1,1,5,1,3.37,160
"2155",41,37,"high",1,1,2,0,3.481,161
"2156",41,13,"high",1,1,6,1,0.842,162
"2157",41,30,"high",1,1,5,1,1.193,163
"2158",41,72,"high",1,1,2,0,1.333,164
"2159",41,34,"high",1,1,4,1,2.868,165
"2160",41,62,"high",1,1,3,1,1.889,166
"2161",41,80,"high",1,1,2,0,2.775,167
"2162",41,24,"high",1,1,5,1,1.708,168
"2163",41,39,"high",1,1,2,1,0.825,169
"2164",41,15,"high",1,1,4,1,1.346,170
"2165",41,49,"high",1,1,5,1,0.597,171
"2166",41,2,"high",1,1,2,1,1.136,172
"2167",41,55,"high",1,1,3,1,6.889,173
"2168",41,58,"high",1,1,2,0,2.293,174
"2169",41,53,"high",1,1,4,1,0.65,175
"2170",41,51,"high",1,1,5,0,1.277,176
"2171",41,60,"high",1,1,2,0,3.987,177
"2172",41,3,"high",1,1,5,1,7.338,178
"2173",41,32,"high",1,1,5,1,0.653,179
"2174",41,47,"high",1,1,3,1,1.821,180
"2175",41,6,"high",1,1,3,1,2.231,181
"2176",41,83,"high",1,1,2,0,0.663,182
"2177",41,70,"high",1,1,2,0,0.82,183
"2178",41,46,"high",1,1,4,1,4.812,184
"2179",41,22,"high",1,1,5,0,0.838,185
"2180",41,76,"high",1,1,2,1,1.083,186
"2181",41,16,"high",1,1,5,1,1.198,187
"2182",41,40,"high",1,1,5,1,1.074,188
"2183",41,64,"high",1,1,3,1,4.624,189
"2184",41,4,"high",1,1,1,0,1.391,190
"2185",42,16,"low",1,1,2,0,3.507,107
"2186",42,49,"low",1,1,3,0,2.122,108
"2187",42,72,"low",1,1,5,1,1.194,109
"2188",42,65,"low",1,1,1,0,1.857,110
"2189",42,28,"low",1,1,5,0,1.594,111
"2190",42,27,"low",1,1,6,1,1.802,112
"2191",42,69,"low",1,1,5,0,2.091,113
"2192",42,82,"low",1,1,4,1,1.059,114
"2193",42,43,"low",1,1,2,0,2.22,115
"2194",42,26,"low",1,1,5,0,0.786,116
"2195",42,5,"low",1,1,2,0,1.464,117
"2196",42,58,"low",1,1,5,1,2.18,118
"2197",42,30,"low",1,1,6,0,1.602,119
"2198",42,38,"low",1,1,5,0,1.251,120
"2199",42,12,"low",1,1,6,1,0.962,121
"2200",42,31,"low",1,1,1,0,2.223,122
"2201",42,83,"low",1,1,5,1,1.551,123
"2202",42,29,"low",1,1,2,0,1.429,124
"2203",42,37,"low",1,1,1,1,2.159,125
"2204",42,17,"low",1,1,4,1,2.358,126
"2205",42,13,"low",1,1,1,0,0.696,127
"2206",42,63,"low",1,1,6,1,1.214,128
"2207",42,3,"low",1,1,3,0,1.192,129
"2208",42,15,"low",1,1,5,0,1.889,130
"2209",42,74,"low",1,1,1,0,0.89,131
"2210",42,41,"low",1,1,6,0,0.855,132
"2211",42,71,"low",1,1,4,1,1.279,133
"2212",42,51,"low",1,1,1,1,1.229,134
"2213",42,22,"low",1,1,2,1,0.748,135
"2214",42,45,"low",1,1,1,0,1.096,136
"2215",42,84,"low",1,1,6,0,0.749,137
"2216",42,68,"low",1,1,5,0,1.85,138
"2217",42,81,"low",1,1,5,1,0.858,139
"2218",42,59,"low",1,1,5,1,0.662,140
"2219",42,9,"low",1,1,2,1,1.634,141
"2220",42,62,"low",1,1,6,0,1.775,142
"2221",42,32,"low",1,1,1,0,1.652,143
"2222",42,48,"low",1,1,4,0,1.354,144
"2223",42,46,"low",1,1,3,0,0.767,145
"2224",42,19,"low",1,1,2,0,1.489,146
"2225",42,73,"low",1,1,5,0,1.059,147
"2226",42,6,"low",1,1,3,0,1.422,148
"2227",42,56,"low",1,1,4,1,1.401,149
"2228",42,20,"low",1,1,4,0,2.621,150
"2229",42,80,"low",1,1,6,1,1.292,151
"2230",42,42,"low",1,1,4,0,1.327,152
"2231",42,24,"low",1,1,2,0,1.032,153
"2232",42,34,"low",1,1,6,0,0.758,154
"2233",42,79,"low",1,1,2,0,0.852,155
"2234",42,67,"low",1,1,2,0,1.055,156
"2235",42,55,"low",1,1,5,0,0.962,157
"2236",42,78,"low",1,1,1,0,2.605,158
"2237",42,50,"low",1,1,3,0,1.321,159
"2238",42,25,"low",1,1,5,1,1.046,160
"2239",42,33,"low",1,1,3,0,1.322,161
"2240",42,61,"low",1,1,5,1,1.211,162
"2241",42,76,"low",1,1,3,0,1.937,163
"2242",42,39,"low",1,1,6,0,0.701,164
"2243",42,7,"low",1,1,4,1,2.433,165
"2244",42,77,"low",1,1,1,0,0.799,166
"2245",42,57,"low",1,1,4,0,1.161,167
"2246",42,14,"low",1,1,5,1,1.208,168
"2247",42,11,"low",1,1,4,0,1.245,169
"2248",42,64,"low",1,1,5,0,0.822,170
"2249",42,2,"low",1,1,6,0,1.058,171
"2250",42,4,"low",1,1,2,1,1.307,172
"2251",42,47,"low",1,1,1,0,1.954,173
"2252",42,54,"low",1,1,5,0,1.191,174
"2253",42,21,"low",1,1,5,1,1.301,175
"2254",42,66,"low",1,1,5,0,1.607,176
"2255",42,35,"low",1,1,3,0,0.592,177
"2256",42,40,"low",1,1,2,0,0.984,178
"2257",42,53,"low",1,1,6,0,1.237,179
"2258",42,70,"low",1,1,3,1,1.196,180
"2259",42,36,"low",1,1,3,0,1.847,181
"2260",42,44,"low",1,1,2,0,1.492,182
"2261",42,1,"low",1,1,3,1,1.821,183
"2262",42,10,"low",1,1,1,0,0.837,184
"2263",42,60,"low",1,1,6,1,0.673,185
"2264",42,8,"low",1,1,6,0,2.688,186
"2265",42,23,"low",1,1,6,1,0.735,187
"2266",42,18,"low",1,1,5,0,0.659,188
"2267",42,75,"low",1,1,5,0,1.049,189
"2268",42,52,"low",1,1,5,1,0.754,190
"2269",43,81,"high",1,1,5,0,7.057,107
"2270",43,30,"high",1,1,4,1,6.864,108
"2271",43,84,"high",1,1,4,1,0.83,109
"2272",43,38,"high",1,1,2,1,10.112,110
"2273",43,71,"high",1,1,1,0,9.603,111
"2274",43,34,"high",1,1,5,1,1.109,112
"2275",43,11,"high",1,1,5,1,8.383,113
"2276",43,43,"high",1,1,3,1,3.236,114
"2277",43,52,"high",1,1,5,0,2.035,115
"2278",43,45,"high",1,1,3,1,7.392,116
"2279",43,60,"high",1,1,4,0,10.634,117
"2280",43,18,"high",1,1,5,1,2.978,118
"2281",43,54,"high",1,1,3,1,9.667,119
"2282",43,20,"high",1,1,5,1,9.848,120
"2283",43,47,"high",1,1,2,1,5.692,121
"2284",43,64,"high",1,1,5,1,1.031,122
"2285",43,68,"high",1,1,5,1,0.806,123
"2286",43,4,"high",1,1,4,0,2.841,124
"2287",43,39,"high",1,1,5,1,2.465,125
"2288",43,21,"high",1,1,5,0,8.777,126
"2289",43,32,"high",1,1,2,1,1.177,127
"2290",43,44,"high",1,1,3,1,5.713,128
"2291",43,41,"high",1,1,5,1,0.814,129
"2292",43,67,"high",1,1,4,1,7.022,130
"2293",43,66,"high",1,1,4,1,3.521,131
"2294",43,55,"high",1,1,4,1,1.383,132
"2295",43,33,"high",1,1,3,1,0.943,133
"2296",43,72,"high",1,1,2,0,4,134
"2297",43,27,"high",1,1,5,0,4.019,135
"2298",43,50,"high",1,1,1,1,2.318,136
"2299",43,17,"high",1,1,5,0,1.014,137
"2300",43,3,"high",1,1,3,1,2.316,138
"2301",43,65,"high",1,1,2,1,3.041,139
"2302",43,69,"high",1,1,5,1,2.168,140
"2303",43,61,"high",1,1,4,0,10.488,141
"2304",43,79,"high",1,1,5,1,0.91,142
"2305",43,42,"high",1,1,5,1,0.957,143
"2306",43,13,"high",1,1,2,1,0.866,144
"2307",43,10,"high",1,1,3,1,0.66,145
"2308",43,2,"high",1,1,4,1,4.965,146
"2309",43,22,"high",1,1,5,0,1.336,147
"2310",43,37,"high",1,1,3,0,2.293,148
"2311",43,73,"high",1,1,3,1,8.545,149
"2312",43,75,"high",1,1,4,1,1.853,150
"2313",43,77,"high",1,1,1,1,1.835,151
"2314",43,9,"high",1,1,3,0,3.118,152
"2315",43,29,"high",1,1,4,1,1.946,153
"2316",43,1,"high",1,1,5,0,3.728,154
"2317",43,56,"high",1,1,5,0,1.033,155
"2318",43,19,"high",1,1,2,1,0.665,156
"2319",43,53,"high",1,1,4,1,3.607,157
"2320",43,16,"high",1,1,5,1,1.818,158
"2321",43,62,"high",1,1,5,1,0.806,159
"2322",43,46,"high",1,1,3,1,2.888,160
"2323",43,26,"high",1,1,4,1,3.348,161
"2324",43,12,"high",1,1,5,0,3.157,162
"2325",43,78,"high",1,1,5,1,1.93,163
"2326",43,15,"high",1,1,3,1,3.438,164
"2327",43,57,"high",1,1,2,1,2.369,165
"2328",43,25,"high",1,1,4,0,1.161,166
"2329",43,5,"high",1,1,5,1,5.309,167
"2330",43,59,"high",1,1,3,0,1.098,168
"2331",43,58,"high",1,1,2,0,2.8,169
"2332",43,7,"high",1,1,5,0,7.961,170
"2333",43,70,"high",1,1,5,0,2.248,171
"2334",43,8,"high",1,1,5,1,5.276,172
"2335",43,82,"high",1,1,4,0,3.37,173
"2336",43,74,"high",1,1,4,1,0.643,174
"2337",43,83,"high",1,1,3,0,0.63,175
"2338",43,23,"high",1,1,3,0,3.91,176
"2339",43,40,"high",1,1,3,1,1.644,177
"2340",43,36,"high",1,1,4,1,0.471,178
"2341",43,6,"high",1,1,4,1,1,179
"2342",43,51,"high",1,1,6,0,2.391,180
"2343",43,80,"high",1,1,2,0,2.7,181
"2344",43,63,"high",1,1,4,0,4.381,182
"2345",43,28,"high",1,1,5,1,1.615,183
"2346",43,35,"high",1,1,4,1,0.962,184
"2347",43,49,"high",1,1,4,1,2.471,185
"2348",43,14,"high",1,1,4,0,1.124,186
"2349",43,48,"high",1,1,4,1,0.628,187
"2350",43,31,"high",1,1,3,1,2.265,188
"2351",43,24,"high",1,1,3,1,2.727,189
"2352",43,76,"high",1,1,2,1,0.645,190
"2353",44,10,"high",1,1,4,1,5.448,107
"2354",44,24,"high",1,1,4,1,1.109,108
"2355",44,38,"high",1,1,3,0,1.495,109
"2356",44,53,"high",1,1,4,1,0.803,110
"2357",44,14,"high",1,1,3,1,0.59,111
"2358",44,26,"high",1,1,4,0,1.623,112
"2359",44,47,"high",1,1,4,1,2.435,113
"2360",44,52,"high",1,1,4,1,0.628,114
"2361",44,5,"high",1,1,4,0,1.999,115
"2362",44,69,"high",1,1,5,1,3.187,116
"2363",44,76,"high",1,1,4,0,0.878,117
"2364",44,37,"high",1,1,4,1,2.066,118
"2365",44,41,"high",1,1,5,0,0.77,119
"2366",44,22,"high",1,1,4,1,1.215,120
"2367",44,73,"high",1,1,3,0,0.802,121
"2368",44,64,"high",1,1,3,0,0.497,122
"2369",44,23,"high",1,1,3,1,0.917,123
"2370",44,36,"high",1,1,4,0,1.61,124
"2371",44,11,"high",1,1,5,1,1.276,125
"2372",44,27,"high",1,1,3,1,0.791,126
"2373",44,18,"high",1,1,4,0,0.521,127
"2374",44,65,"high",1,1,3,1,0.51,128
"2375",44,62,"high",1,1,3,0,3.015,129
"2376",44,13,"high",1,1,2,1,1.051,130
"2377",44,82,"high",1,1,4,1,0.853,131
"2378",44,8,"high",1,1,2,0,1.045,132
"2379",44,32,"high",1,1,4,1,0.579,133
"2380",44,39,"high",1,1,4,1,3.311,134
"2381",44,45,"high",1,1,5,1,1.01,135
"2382",44,66,"high",1,1,5,0,0.703,136
"2383",44,48,"high",1,1,5,0,1.384,137
"2384",44,42,"high",1,1,5,1,0.817,138
"2385",44,40,"high",1,1,4,0,1.01,139
"2386",44,74,"high",1,1,2,0,0.961,140
"2387",44,72,"high",1,1,3,1,0.754,141
"2388",44,61,"high",1,1,3,1,2.256,142
"2389",44,15,"high",1,1,4,0,1.949,143
"2390",44,63,"high",1,1,6,1,2.1,144
"2391",44,80,"high",1,1,1,1,1.275,145
"2392",44,28,"high",1,1,3,0,1.684,146
"2393",44,34,"high",1,1,3,0,0.716,147
"2394",44,50,"high",1,1,4,1,1.082,148
"2395",44,54,"high",1,1,3,0,0.774,149
"2396",44,31,"high",1,1,3,0,3.307,150
"2397",44,49,"high",1,1,3,1,0.659,151
"2398",44,55,"high",1,1,3,1,0.61,152
"2399",44,77,"high",1,1,3,1,0.499,153
"2400",44,12,"high",1,1,3,1,0.505,154
"2401",44,21,"high",1,1,2,1,0.665,155
"2402",44,4,"high",1,1,4,1,0.549,156
"2403",44,57,"high",1,1,4,0,0.794,157
"2404",44,9,"high",1,1,4,1,0.722,158
"2405",44,1,"high",1,1,3,1,0.898,159
"2406",44,6,"high",1,1,3,0,0.54,160
"2407",44,59,"high",1,1,3,1,0.5,161
"2408",44,79,"high",1,1,4,1,1.708,162
"2409",44,16,"high",1,1,3,0,0.742,163
"2410",44,78,"high",1,1,2,1,2.327,164
"2411",44,67,"high",1,1,4,1,0.76,165
"2412",44,83,"high",1,1,3,1,0.555,166
"2413",44,68,"high",1,1,3,1,0.895,167
"2414",44,19,"high",1,1,4,1,0.511,168
"2415",44,70,"high",1,1,4,1,0.643,169
"2416",44,71,"high",1,1,4,1,0.488,170
"2417",44,44,"high",1,1,3,0,0.583,171
"2418",44,29,"high",1,1,4,1,0.523,172
"2419",44,46,"high",1,1,3,1,0.507,173
"2420",44,35,"high",1,1,3,1,0.522,174
"2421",44,58,"high",1,1,4,1,2.065,175
"2422",44,81,"high",1,1,3,1,0.708,176
"2423",44,17,"high",1,1,3,1,3.741,177
"2424",44,7,"high",1,1,4,1,0.506,178
"2425",44,84,"high",1,1,1,0,3.27,179
"2426",44,56,"high",1,1,4,1,0.546,180
"2427",44,30,"high",1,1,4,1,0.534,181
"2428",44,2,"high",1,1,1,1,5.417,182
"2429",44,60,"high",1,1,5,1,5.933,183
"2430",44,75,"high",1,1,4,1,2.853,184
"2431",44,51,"high",1,1,6,1,1.554,185
"2432",44,3,"high",1,1,3,0,0.947,186
"2433",44,20,"high",1,1,4,1,0.842,187
"2434",44,43,"high",1,1,4,0,0.53,188
"2435",44,33,"high",1,1,4,0,3.316,189
"2436",44,25,"high",1,1,3,1,1.16,190
"2437",46,22,"low",1,1,5,1,3.812,107
"2438",46,44,"low",1,1,2,0,8.378,108
"2439",46,37,"low",1,1,4,1,2.747,109
"2440",46,29,"low",1,1,4,0,9.557,110
"2441",46,81,"low",1,1,5,1,1.568,111
"2442",46,67,"low",1,1,3,0,16.017,112
"2443",46,63,"low",1,1,5,1,4.847,113
"2444",46,15,"low",1,1,4,0,15.242,114
"2445",46,31,"low",1,1,3,0,5.649,115
"2446",46,38,"low",1,1,5,0,7.736,116
"2447",46,69,"low",1,1,5,0,18.847,117
"2448",46,78,"low",1,1,4,0,2.51,118
"2449",46,40,"low",1,1,3,0,2.314,119
"2450",46,12,"low",1,1,6,1,2.415,120
"2451",46,30,"low",1,1,4,0,3.467,121
"2452",46,62,"low",1,1,2,0,2.975,122
"2453",46,28,"low",1,1,4,0,7.964,123
"2454",46,59,"low",1,1,5,1,7.424,124
"2455",46,76,"low",1,1,3,0,3.93,125
"2456",46,43,"low",1,1,3,0,6.954,126
"2457",46,7,"low",1,1,2,1,1.436,127
"2458",46,39,"low",1,1,5,0,7.542,128
"2459",46,36,"low",1,1,5,0,2.569,129
"2460",46,48,"low",1,1,3,0,3.66,130
"2461",46,52,"low",1,1,4,1,2.905,131
"2462",46,56,"low",1,1,4,1,3.593,132
"2463",46,42,"low",1,1,6,0,3.576,133
"2464",46,73,"low",1,1,4,0,8.562,134
"2465",46,60,"low",1,1,5,1,2.282,135
"2466",46,53,"low",1,1,5,0,3.397,136
"2467",46,9,"low",1,1,5,1,2.357,137
"2468",46,14,"low",1,1,4,1,6.54,138
"2469",46,77,"low",1,1,1,0,4.614,139
"2470",46,8,"low",1,1,4,0,1.766,140
"2471",46,27,"low",1,1,4,1,3.503,141
"2472",46,46,"low",1,1,1,0,4.298,142
"2473",46,41,"low",1,1,5,0,5.999,143
"2474",46,71,"low",1,1,4,1,7.142,144
"2475",46,10,"low",1,1,4,0,0.894,145
"2476",46,6,"low",1,1,3,0,4.337,146
"2477",46,34,"low",1,1,4,0,3.452,147
"2478",46,5,"low",1,1,3,0,6.657,148
"2479",46,11,"low",1,1,5,0,1.037,149
"2480",46,50,"low",1,1,4,0,2.746,150
"2481",46,68,"low",1,1,5,0,2.818,151
"2482",46,2,"low",1,1,4,0,1.088,152
"2483",46,82,"low",1,1,3,1,4.018,153
"2484",46,19,"low",1,1,5,0,1.351,154
"2485",46,51,"low",1,1,3,1,10.365,155
"2486",46,54,"low",1,1,2,0,5.729,156
"2487",46,24,"low",1,1,4,0,0.716,157
"2488",46,70,"low",1,1,3,1,2.073,158
"2489",46,1,"low",1,1,3,1,8.112,159
"2490",46,18,"low",1,1,2,0,1.312,160
"2491",46,4,"low",1,1,4,1,2.266,161
"2492",46,55,"low",1,1,3,0,3.604,162
"2493",46,21,"low",1,1,4,1,14.771,163
"2494",46,35,"low",1,1,2,0,1.623,164
"2495",46,17,"low",1,1,5,1,7.03,165
"2496",46,25,"low",1,1,4,1,4.139,166
"2497",46,65,"low",1,1,5,0,2.529,167
"2498",46,49,"low",1,1,3,0,6.106,168
"2499",46,45,"low",1,1,5,0,1.144,169
"2500",46,3,"low",1,1,6,0,0.807,170
"2501",46,23,"low",1,1,5,1,3.23,171
"2502",46,20,"low",1,1,4,0,1.23,172
"2503",46,32,"low",1,1,4,0,4.233,173
"2504",46,72,"low",1,1,3,1,2.465,174
"2505",46,58,"low",1,1,4,1,3.572,175
"2506",46,57,"low",1,1,4,0,3.719,176
"2507",46,61,"low",1,1,4,1,3.865,177
"2508",46,33,"low",1,1,2,0,5.217,178
"2509",46,74,"low",1,1,4,0,0.695,179
"2510",46,80,"low",1,1,4,1,3.873,180
"2511",46,64,"low",1,1,1,0,5.672,181
"2512",46,84,"low",1,1,5,0,0.888,182
"2513",46,75,"low",1,1,3,0,4.624,183
"2514",46,26,"low",1,1,3,0,3.65,184
"2515",46,79,"low",1,1,3,0,4.745,185
"2516",46,47,"low",1,1,2,0,4.244,186
"2517",46,83,"low",1,1,4,1,4.014,187
"2518",46,13,"low",1,1,1,0,1.042,188
"2519",46,16,"low",1,1,4,0,1.016,189
"2520",46,66,"low",1,1,2,0,3.85,190
"2521",47,38,"high",1,1,4,1,3.856,107
"2522",47,71,"high",1,1,4,1,4.036,108
"2523",47,32,"high",1,1,4,0,3.458,109
"2524",47,8,"high",1,1,3,1,2.696,110
"2525",47,42,"high",1,1,3,0,3.137,111
"2526",47,62,"high",1,1,4,1,2.594,112
"2527",47,68,"high",1,1,5,0,1.546,113
"2528",47,34,"high",1,1,5,1,1.979,114
"2529",47,51,"high",1,1,2,1,1.612,115
"2530",47,37,"high",1,1,4,1,1.363,116
"2531",47,45,"high",1,1,4,0,1.171,117
"2532",47,35,"high",1,1,3,0,1.778,118
"2533",47,11,"high",1,1,4,0,0.801,119
"2534",47,5,"high",1,1,2,1,2.445,120
"2535",47,36,"high",1,1,5,1,1.734,121
"2536",47,4,"high",1,1,4,1,3.234,122
"2537",47,80,"high",1,1,2,1,5.589,123
"2538",47,44,"high",1,1,3,1,0.674,124
"2539",47,66,"high",1,1,4,1,1.512,125
"2540",47,28,"high",1,1,4,1,1.911,126
"2541",47,65,"high",1,1,2,0,0.981,127
"2542",47,18,"high",1,1,5,1,0.964,128
"2543",47,9,"high",1,1,5,1,1.09,129
"2544",47,56,"high",1,1,3,1,0.511,130
"2545",47,20,"high",1,1,4,0,2.613,131
"2546",47,39,"high",1,1,5,0,2.344,132
"2547",47,24,"high",1,1,3,0,0.524,133
"2548",47,46,"high",1,1,4,0,0.631,134
"2549",47,61,"high",1,1,4,1,1.662,135
"2550",47,82,"high",1,1,2,1,0.809,136
"2551",47,77,"high",1,1,2,0,1.204,137
"2552",47,6,"high",1,1,4,1,1.613,138
"2553",47,10,"high",1,1,5,0,2.468,139
"2554",47,40,"high",1,1,4,1,2.162,140
"2555",47,58,"high",1,1,2,1,1.743,141
"2556",47,48,"high",1,1,4,1,0.781,142
"2557",47,33,"high",1,1,2,1,2.219,143
"2558",47,72,"high",1,1,2,1,1.229,144
"2559",47,14,"high",1,1,4,1,2.028,145
"2560",47,16,"high",1,1,3,1,1.771,146
"2561",47,55,"high",1,1,4,0,2.066,147
"2562",47,75,"high",1,1,3,0,0.671,148
"2563",47,63,"high",1,1,5,1,5.019,149
"2564",47,57,"high",1,1,4,1,1.135,150
"2565",47,29,"high",1,1,3,0,1.075,151
"2566",47,53,"high",1,1,3,0,1.324,152
"2567",47,60,"high",1,1,5,1,1.616,153
"2568",47,70,"high",1,1,2,1,1.399,154
"2569",47,19,"high",1,1,4,0,1.848,155
"2570",47,83,"high",1,1,2,1,0.725,156
"2571",47,7,"high",1,1,5,1,0.866,157
"2572",47,79,"high",1,1,4,0,0.966,158
"2573",47,76,"high",1,1,4,1,1.688,159
"2574",47,41,"high",1,1,5,1,0.785,160
"2575",47,52,"high",1,1,4,1,0.816,161
"2576",47,12,"high",1,1,4,1,3.656,162
"2577",47,73,"high",1,1,2,1,2.17,163
"2578",47,17,"high",1,1,4,1,0.621,164
"2579",47,64,"high",1,1,3,1,1.494,165
"2580",47,31,"high",1,1,3,1,0.977,166
"2581",47,3,"high",1,1,3,1,1.46,167
"2582",47,25,"high",1,1,3,1,1.221,168
"2583",47,21,"high",1,1,4,1,3.442,169
"2584",47,50,"high",1,1,3,0,0.906,170
"2585",47,30,"high",1,1,5,0,0.634,171
"2586",47,74,"high",1,1,2,1,0.64,172
"2587",47,69,"high",1,1,4,0,0.548,173
"2588",47,27,"high",1,1,6,1,1.269,174
"2589",47,81,"high",1,1,5,1,0.613,175
"2590",47,13,"high",1,1,3,0,1.07,176
"2591",47,59,"high",1,1,3,1,0.549,177
"2592",47,15,"high",1,1,2,1,0.793,178
"2593",47,23,"high",1,1,4,1,3.438,179
"2594",47,1,"high",1,1,3,1,0.94,180
"2595",47,2,"high",1,1,2,0,0.712,181
"2596",47,67,"high",1,1,3,0,1.634,182
"2597",47,84,"high",1,1,3,1,0.566,183
"2598",47,26,"high",1,1,4,1,1.342,184
"2599",47,47,"high",1,1,2,0,1.455,185
"2600",47,49,"high",1,1,3,0,0.908,186
"2601",47,43,"high",1,1,4,1,0.54,187
"2602",47,22,"high",1,1,3,1,0.911,188
"2603",47,78,"high",1,1,2,0,0.989,189
"2604",47,54,"high",1,1,3,1,0.936,190
"2605",50,61,"low",1,1,4,0,5.056,107
"2606",50,24,"low",1,1,2,1,3.114,108
"2607",50,42,"low",1,1,5,1,2.658,109
"2608",50,83,"low",1,1,3,0,4.382,110
"2609",50,59,"low",1,1,5,0,3.868,111
"2610",50,9,"low",1,1,5,0,3.304,112
"2611",50,13,"low",1,1,1,1,6.051,113
"2612",50,67,"low",1,1,3,1,5.471,114
"2613",50,40,"low",1,1,2,0,1.272,115
"2614",50,30,"low",1,1,5,1,0.924,116
"2615",50,14,"low",1,1,2,0,3.121,117
"2616",50,23,"low",1,1,3,0,4.441,118
"2617",50,72,"low",1,1,5,0,6.715,119
"2618",50,29,"low",1,1,2,1,2.612,120
"2619",50,19,"low",1,1,4,1,4.19,121
"2620",50,12,"low",1,1,1,0,3.523,122
"2621",50,28,"low",1,1,4,0,3.675,123
"2622",50,69,"low",1,1,5,1,0.961,124
"2623",50,38,"low",1,1,5,0,2.605,125
"2624",50,15,"low",1,1,1,0,1.353,126
"2625",50,68,"low",1,1,4,1,1.754,127
"2626",50,41,"low",1,1,5,0,2.999,128
"2627",50,63,"low",1,1,3,0,4.174,129
"2628",50,43,"low",1,1,2,0,1.285,130
"2629",50,20,"low",1,1,2,1,3.615,131
"2630",50,78,"low",1,1,1,1,1.6,132
"2631",50,8,"low",1,1,4,0,2.585,133
"2632",50,70,"low",1,1,2,0,4.765,134
"2633",50,7,"low",1,1,3,0,4.117,135
"2634",50,64,"low",1,1,2,0,1.507,136
"2635",50,60,"low",1,1,4,0,3.827,137
"2636",50,1,"low",1,1,4,0,2.407,138
"2637",50,65,"low",1,1,5,1,1.411,139
"2638",50,45,"low",1,1,2,1,0.867,140
"2639",50,77,"low",1,1,2,1,1.655,141
"2640",50,35,"low",1,1,3,1,2.841,142
"2641",50,79,"low",1,1,2,1,0.99,143
"2642",50,55,"low",1,1,4,1,1.686,144
"2643",50,44,"low",1,1,3,0,4.162,145
"2644",50,52,"low",1,1,5,0,1.64,146
"2645",50,76,"low",1,1,2,0,3.814,147
"2646",50,31,"low",1,1,4,0,1.362,148
"2647",50,4,"low",1,1,2,0,0.866,149
"2648",50,10,"low",1,1,2,1,2.327,150
"2649",50,46,"low",1,1,4,1,0.888,151
"2650",50,48,"low",1,1,3,0,4.5,152
"2651",50,81,"low",1,1,2,0,3.194,153
"2652",50,17,"low",1,1,5,0,1.273,154
"2653",50,51,"low",1,1,5,0,2.091,155
"2654",50,84,"low",1,1,4,0,1.123,156
"2655",50,54,"low",1,1,3,0,2.323,157
"2656",50,27,"low",1,1,2,0,2.382,158
"2657",50,18,"low",1,1,5,0,4.584,159
"2658",50,82,"low",1,1,5,0,1.018,160
"2659",50,71,"low",1,1,3,0,2.179,161
"2660",50,66,"low",1,1,3,0,5.317,162
"2661",50,49,"low",1,1,4,1,0.714,163
"2662",50,3,"low",1,1,5,0,1.231,164
"2663",50,36,"low",1,1,4,0,1.184,165
"2664",50,37,"low",1,1,5,0,3.398,166
"2665",50,50,"low",1,1,2,1,1.092,167
"2666",50,5,"low",1,1,5,0,1.314,168
"2667",50,74,"low",1,1,3,0,0.958,169
"2668",50,56,"low",1,1,3,0,1.98,170
"2669",50,47,"low",1,1,2,1,3.029,171
"2670",50,25,"low",1,1,3,0,2.827,172
"2671",50,32,"low",1,1,4,1,1.736,173
"2672",50,2,"low",1,1,5,1,0.876,174
"2673",50,80,"low",1,1,3,0,3.97,175
"2674",50,33,"low",1,1,2,0,1.689,176
"2675",50,22,"low",1,1,4,0,0.628,177
"2676",50,57,"low",1,1,5,0,1.682,178
"2677",50,53,"low",1,1,5,1,1.38,179
"2678",50,39,"low",1,1,4,1,3.279,180
"2679",50,16,"low",1,1,3,0,1.201,181
"2680",50,26,"low",1,1,4,0,0.511,182
"2681",50,6,"low",1,1,2,0,1.331,183
"2682",50,11,"low",1,1,3,1,1.468,184
"2683",50,21,"low",1,1,5,0,0.96,185
"2684",50,62,"low",1,1,5,0,0.909,186
"2685",50,34,"low",1,1,3,0,2.948,187
"2686",50,75,"low",1,1,3,1,1.039,188
"2687",50,73,"low",1,1,4,0,0.494,189
"2688",50,58,"low",1,1,3,0,1.258,190
"2689",51,73,"low",1,1,4,0,3.267,107
"2690",51,57,"low",1,1,3,0,2.335,108
"2691",51,11,"low",1,1,5,1,3.131,109
"2692",51,7,"low",1,1,5,0,3.242,110
"2693",51,17,"low",1,1,2,0,6.685,111
"2694",51,33,"low",1,1,2,0,1.431,112
"2695",51,78,"low",1,1,3,1,1.794,113
"2696",51,4,"low",1,1,4,0,3.872,114
"2697",51,20,"low",1,1,5,1,1.994,115
"2698",51,42,"low",1,1,2,1,3.445,116
"2699",51,84,"low",1,1,4,0,2.642,117
"2700",51,15,"low",1,1,2,0,3.833,118
"2701",51,70,"low",1,1,3,0,5.373,119
"2702",51,35,"low",1,1,2,1,1.171,120
"2703",51,83,"low",1,1,4,0,4.663,121
"2704",51,67,"low",1,1,4,1,6.424,122
"2705",51,40,"low",1,1,5,0,1.074,123
"2706",51,25,"low",1,1,4,0,1.98,124
"2707",51,81,"low",1,1,5,0,1.947,125
"2708",51,16,"low",1,1,5,0,2.964,126
"2709",51,6,"low",1,1,3,0,1.899,127
"2710",51,29,"low",1,1,4,1,0.59,128
"2711",51,10,"low",1,1,4,1,1.814,129
"2712",51,65,"low",1,1,5,1,2.674,130
"2713",51,27,"low",1,1,4,0,0.917,131
"2714",51,24,"low",1,1,5,1,1.941,132
"2715",51,45,"low",1,1,3,1,0.943,133
"2716",51,60,"low",1,1,3,0,2.41,134
"2717",51,61,"low",1,1,3,0,1.603,135
"2718",51,64,"low",1,1,4,0,1.002,136
"2719",51,72,"low",1,1,4,0,0.706,137
