"","subject","statement_identifier","presentation_identifier","within_identifier","between_identifier","response","repeated","rt","trial"
"1",3,49,1,1,1,3,0,2.479,5
"2",3,70,1,1,1,1,1,1.935,6
"3",3,13,1,1,1,1,0,1.067,7
"4",3,73,1,1,1,2,1,1.265,8
"5",3,81,1,1,1,5,1,0.909,9
"6",3,47,1,1,1,1,0,0.984,10
"7",3,9,1,1,1,4,1,1.748,11
"8",3,77,1,1,1,4,0,0.712,12
"9",3,57,1,1,1,4,1,0.826,13
"10",3,8,1,1,1,4,1,0.691,14
"11",3,46,1,1,1,2,0,9.086,15
"12",3,66,1,1,1,4,1,1.068,16
"13",3,22,1,1,1,5,1,0.941,17
"14",3,42,1,1,1,4,0,1.159,18
"15",3,15,1,1,1,3,1,1.203,19
"16",3,25,1,1,1,4,1,0.799,20
"17",3,74,1,1,1,3,1,1.804,21
"18",3,26,1,1,1,2,1,2.813,22
"19",3,68,1,1,1,5,0,0.723,23
"20",3,40,1,1,1,4,1,0.797,24
"21",3,35,1,1,1,2,0,0.959,25
"22",3,48,1,1,1,4,1,0.795,26
"23",3,33,1,1,1,4,1,0.888,27
"24",3,61,1,1,1,1,1,1.446,28
"25",3,20,1,1,1,2,0,1.285,29
"26",3,51,1,1,1,6,1,1,30
"27",3,67,1,1,1,2,0,0.63,31
"28",3,1,1,1,1,2,1,0.691,32
"29",3,5,1,1,1,1,1,2.776,33
"30",3,75,1,1,1,4,0,0.623,34
"31",3,16,1,1,1,4,1,1.026,35
"32",3,11,1,1,1,4,0,0.524,36
"33",3,32,1,1,1,2,0,0.936,37
"34",3,44,1,1,1,4,1,0.6,38
"35",3,62,1,1,1,4,1,1.859,39
"36",3,38,1,1,1,3,1,0.832,40
"37",3,59,1,1,1,2,1,1.564,41
"38",3,71,1,1,1,4,1,0.89,42
"39",3,45,1,1,1,4,0,0.658,43
"40",3,2,1,1,1,4,0,0.793,44
"41",3,24,1,1,1,4,0,0.724,45
"42",3,69,1,1,1,3,0,1.751,46
"43",3,6,1,1,1,4,1,0.938,47
"44",3,83,1,1,1,3,1,1.495,48
"45",3,54,1,1,1,4,1,0.793,49
"46",3,4,1,1,1,4,1,1.05,50
"47",3,27,1,1,1,5,1,0.658,51
"48",3,21,1,1,1,4,1,0.657,52
"49",3,53,1,1,1,5,0,0.661,53
"50",3,28,1,1,1,5,1,1.152,54
"51",3,84,1,1,1,4,1,0.795,55
"52",3,3,1,1,1,5,1,4.142,56
"53",3,19,1,1,1,4,0,0.829,57
"54",3,58,1,1,1,4,1,0.792,58
"55",3,10,1,1,1,1,0,0.798,59
"56",3,60,1,1,1,4,1,4.155,60
"57",3,55,1,1,1,4,0,0.78,61
"58",3,80,1,1,1,5,1,1.269,62
"59",3,41,1,1,1,6,1,3.21,63
"60",3,79,1,1,1,4,0,0.809,64
"61",3,14,1,1,1,3,1,4.835,65
"62",3,18,1,1,1,1,1,1.392,66
"63",3,23,1,1,1,2,1,1.105,67
"64",3,7,1,1,1,2,1,1.124,68
"65",3,34,1,1,1,4,1,0.757,69
"66",3,76,1,1,1,1,1,0.893,70
"67",3,17,1,1,1,1,1,2.49,71
"68",3,52,1,1,1,4,1,1.488,72
"69",3,12,1,1,1,4,1,1.394,73
"70",3,63,1,1,1,4,1,0.569,74
"71",3,39,1,1,1,5,0,1.141,75
"72",3,43,1,1,1,4,1,0.708,76
"73",3,50,1,1,1,4,0,0.936,77
"74",3,36,1,1,1,5,1,0.636,78
"75",3,56,1,1,1,4,1,0.696,79
"76",3,64,1,1,1,6,1,0.9,80
"77",3,65,1,1,1,1,0,0.904,81
"78",3,29,1,1,1,4,0,1.21,82
"79",3,82,1,1,1,4,1,0.773,83
"80",3,78,1,1,1,3,0,0.532,84
"81",3,72,1,1,1,1,1,0.688,85
"82",3,30,1,1,1,4,0,1.997,86
"83",3,31,1,1,1,3,1,0.593,87
"84",3,37,1,1,1,5,1,1.367,88
"85",4,35,1,1,1,4,0,1.493,5
"86",4,65,1,1,1,4,0,3.966,6
"87",4,2,1,1,1,5,0,1.3,7
"88",4,13,1,1,1,4,0,3.478,8
"89",4,6,1,1,1,4,1,1.053,9
"90",4,22,1,1,1,3,1,2.63,10
"91",4,7,1,1,1,4,1,1.039,11
"92",4,1,1,1,1,3,1,2.468,12
"93",4,31,1,1,1,3,1,1.576,13
"94",4,44,1,1,1,2,1,0.721,14
"95",4,32,1,1,1,4,0,3.689,15
"96",4,25,1,1,1,4,1,0.85,16
"97",4,21,1,1,1,5,1,13.839,17
"98",4,56,1,1,1,3,1,3.25,18
"99",4,54,1,1,1,5,1,3.486,19
"100",4,58,1,1,1,4,1,2.445,20
"101",4,41,1,1,1,4,1,7.451,21
"102",4,23,1,1,1,4,1,1.506,22
"103",4,14,1,1,1,4,1,1.782,23
"104",4,78,1,1,1,3,0,2.657,24
"105",4,69,1,1,1,4,0,7.544,25
"106",4,66,1,1,1,5,1,2.036,26
"107",4,84,1,1,1,3,1,7.204,27
"108",4,46,1,1,1,4,0,1.575,28
"109",4,26,1,1,1,3,1,1.528,29
"110",4,5,1,1,1,3,1,1.982,30
"111",4,63,1,1,1,3,1,4.904,31
"112",4,4,1,1,1,5,1,0.819,32
"113",4,29,1,1,1,2,0,1.712,33
"114",4,68,1,1,1,3,0,1.766,34
"115",4,30,1,1,1,4,0,1.925,35
"116",4,59,1,1,1,4,1,0.649,36
"117",4,10,1,1,1,4,0,1.144,37
"118",4,55,1,1,1,2,0,0.72,38
"119",4,34,1,1,1,2,1,3.439,39
"120",4,52,1,1,1,5,1,1.516,40
"121",4,61,1,1,1,3,1,2.033,41
"122",4,33,1,1,1,2,1,2.634,42
"123",4,50,1,1,1,4,0,2.847,43
"124",4,24,1,1,1,3,0,0.635,44
"125",4,15,1,1,1,4,1,2.266,45
"126",4,18,1,1,1,2,1,3.648,46
"127",4,20,1,1,1,5,0,0.766,47
"128",4,67,1,1,1,4,0,1.26,48
"129",4,71,1,1,1,3,1,5.516,49
"130",4,38,1,1,1,4,1,2.99,50
"131",4,75,1,1,1,3,0,1.839,51
"132",4,74,1,1,1,4,1,0.639,52
"133",4,16,1,1,1,4,1,2.402,53
"134",4,48,1,1,1,4,1,10.798,54
"135",4,40,1,1,1,4,1,2.465,55
"136",4,60,1,1,1,3,1,1.564,56
"137",4,28,1,1,1,2,1,0.859,57
"138",4,51,1,1,1,2,1,1.844,58
"139",4,77,1,1,1,3,0,1.619,59
"140",4,8,1,1,1,3,1,0.79,60
"141",4,53,1,1,1,3,0,0.621,61
"142",4,17,1,1,1,3,1,1.068,62
"143",4,36,1,1,1,4,1,21.403,63
"144",4,62,1,1,1,3,1,0.674,64
"145",4,3,1,1,1,3,1,1.823,65
"146",4,12,1,1,1,4,1,1.197,66
"147",4,9,1,1,1,3,1,0.629,67
"148",4,45,1,1,1,4,0,1.11,68
"149",4,70,1,1,1,3,1,2.329,69
"150",4,47,1,1,1,6,0,1.561,70
"151",4,37,1,1,1,3,1,0.503,71
"152",4,72,1,1,1,3,1,3.867,72
"153",4,81,1,1,1,4,1,1.325,73
"154",4,64,1,1,1,3,1,7.637,74
"155",4,79,1,1,1,4,0,2.494,75
"156",4,11,1,1,1,4,0,0.549,76
"157",4,80,1,1,1,4,1,1.177,77
"158",4,73,1,1,1,1,1,0.717,78
"159",4,83,1,1,1,3,1,2.314,79
"160",4,19,1,1,1,5,0,2.223,80
"161",4,27,1,1,1,3,1,15.966,81
"162",4,39,1,1,1,5,0,8.298,82
"163",4,76,1,1,1,2,1,8.864,83
"164",4,82,1,1,1,2,1,33.091,84
"165",4,42,1,1,1,3,0,0.834,85
"166",4,43,1,1,1,1,1,16.334,86
"167",4,49,1,1,1,2,0,1.083,87
"168",4,57,1,1,1,3,1,1.321,88
"169",5,79,1,1,1,6,1,1.932,5
"170",5,41,1,1,1,5,1,1.706,6
"171",5,19,1,1,1,6,1,0.875,7
"172",5,50,1,1,1,4,1,1.998,8
"173",5,61,1,1,1,4,0,1.704,9
"174",5,56,1,1,1,4,0,1.584,10
"175",5,68,1,1,1,4,1,1.727,11
"176",5,6,1,1,1,4,1,2.456,12
"177",5,77,1,1,1,5,1,5.653,13
"178",5,64,1,1,1,6,1,2.802,14
"179",5,35,1,1,1,6,1,1.772,15
"180",5,33,1,1,1,4,1,0.834,16
"181",5,28,1,1,1,4,1,1.922,17
"182",5,43,1,1,1,6,1,0.777,18
"183",5,62,1,1,1,4,1,1.172,19
"184",5,29,1,1,1,4,1,0.64,20
"185",5,42,1,1,1,4,1,2.825,21
"186",5,75,1,1,1,4,1,1.132,22
"187",5,76,1,1,1,5,1,1.996,23
"188",5,25,1,1,1,3,0,4.722,24
"189",5,82,1,1,1,4,0,4.977,25
"190",5,4,1,1,1,4,0,0.441,26
"191",5,53,1,1,1,3,1,2.723,27
"192",5,23,1,1,1,5,0,1.162,28
"193",5,45,1,1,1,3,1,0.862,29
"194",5,74,1,1,1,6,1,4.298,30
"195",5,83,1,1,1,3,0,2.138,31
"196",5,12,1,1,1,3,0,0.57,32
"197",5,14,1,1,1,4,0,4.167,33
"198",5,49,1,1,1,4,1,0.754,34
"199",5,81,1,1,1,3,0,2.741,35
"200",5,63,1,1,1,2,0,6.816,36
"201",5,7,1,1,1,3,0,1.91,37
"202",5,57,1,1,1,4,1,1.455,38
"203",5,11,1,1,1,4,1,2.976,39
"204",5,39,1,1,1,4,1,1.298,40
"205",5,30,1,1,1,4,1,2.117,41
"206",5,70,1,1,1,3,0,3.331,42
"207",5,52,1,1,1,4,0,4.146,43
"208",5,73,1,1,1,4,1,0.491,44
"209",5,10,1,1,1,3,1,2.183,45
"210",5,27,1,1,1,3,0,1.848,46
"211",5,46,1,1,1,4,1,1.38,47
"212",5,78,1,1,1,4,1,1.491,48
"213",5,24,1,1,1,4,1,0.896,49
"214",5,31,1,1,1,4,1,0.891,50
"215",5,40,1,1,1,3,1,0.516,51
"216",5,32,1,1,1,4,1,1.003,52
"217",5,3,1,1,1,4,1,0.809,53
"218",5,84,1,1,1,4,1,0.623,54
"219",5,44,1,1,1,4,1,2.254,55
"220",5,18,1,1,1,2,1,1.433,56
"221",5,47,1,1,1,5,1,0.658,57
"222",5,2,1,1,1,2,1,0.753,58
"223",5,34,1,1,1,1,1,1.527,59
"224",5,20,1,1,1,5,1,0.773,60
"225",5,67,1,1,1,4,1,0.996,61
"226",5,60,1,1,1,4,0,0.597,62
"227",5,16,1,1,1,5,1,1.137,63
"228",5,48,1,1,1,4,1,0.901,64
"229",5,21,1,1,1,4,0,0.942,65
"230",5,80,1,1,1,3,0,2.065,66
"231",5,65,1,1,1,5,1,0.57,67
"232",5,22,1,1,1,4,0,0.737,68
"233",5,71,1,1,1,3,0,2.651,69
"234",5,15,1,1,1,2,1,0.916,70
"235",5,59,1,1,1,4,0,0.637,71
"236",5,13,1,1,1,3,1,0.91,72
"237",5,54,1,1,1,4,1,1.329,73
"238",5,55,1,1,1,3,1,0.64,74
"239",5,69,1,1,1,4,1,0.882,75
"240",5,8,1,1,1,4,1,0.594,76
"241",5,17,1,1,1,4,0,1.291,77
"242",5,5,1,1,1,6,1,0.727,78
"243",5,58,1,1,1,3,0,1.385,79
"244",5,72,1,1,1,3,0,0.536,80
"245",5,26,1,1,1,5,1,1.869,81
"246",5,66,1,1,1,4,1,1.517,82
"247",5,37,1,1,1,3,0,1.508,83
"248",5,38,1,1,1,3,1,1.322,84
"249",5,9,1,1,1,5,0,0.645,85
"250",5,36,1,1,1,4,1,0.842,86
"251",5,51,1,1,1,4,0,1.69,87
"252",5,1,1,1,1,4,0,1.902,88
"253",6,42,1,1,1,4,0,5.701,5
"254",6,55,1,1,1,3,0,4.762,6
"255",6,7,1,1,1,5,1,1.169,7
"256",6,16,1,1,1,5,1,1.853,8
"257",6,6,1,1,1,4,1,1.338,9
"258",6,80,1,1,1,3,1,3.836,10
"259",6,76,1,1,1,4,1,1.553,11
"260",6,3,1,1,1,5,1,1.289,12
"261",6,21,1,1,1,5,1,1.588,13
"262",6,66,1,1,1,6,1,2.484,14
"263",6,46,1,1,1,4,0,2.545,15
"264",6,77,1,1,1,1,0,1.389,16
"265",6,81,1,1,1,6,1,1.562,17
"266",6,59,1,1,1,5,1,0.948,18
"267",6,29,1,1,1,4,0,2.132,19
"268",6,15,1,1,1,5,1,1.388,20
"269",6,25,1,1,1,2,1,5.344,21
"270",6,68,1,1,1,5,0,0.834,22
"271",6,13,1,1,1,1,0,1.326,23
"272",6,79,1,1,1,2,0,0.826,24
"273",6,62,1,1,1,5,1,1.233,25
"274",6,35,1,1,1,4,0,1.352,26
"275",6,56,1,1,1,6,1,1.276,27
"276",6,20,1,1,1,6,0,1.484,28
"277",6,36,1,1,1,6,1,1.574,29
"278",6,10,1,1,1,5,0,1.021,30
"279",6,32,1,1,1,4,0,1.427,31
"280",6,57,1,1,1,5,1,1.111,32
"281",6,5,1,1,1,1,1,1.082,33
"282",6,70,1,1,1,5,1,1.638,34
"283",6,83,1,1,1,4,1,1.026,35
"284",6,71,1,1,1,4,1,7.666,36
"285",6,18,1,1,1,6,1,1.41,37
"286",6,8,1,1,1,6,1,1.424,38
"287",6,1,1,1,1,3,1,1.091,39
"288",6,63,1,1,1,3,1,1.8,40
"289",6,67,1,1,1,5,0,0.972,41
"290",6,73,1,1,1,3,1,2.408,42
"291",6,48,1,1,1,4,1,1.136,43
"292",6,65,1,1,1,1,0,1.691,44
"293",6,75,1,1,1,5,0,1.327,45
"294",6,34,1,1,1,1,1,1.645,46
"295",6,11,1,1,1,5,0,1.962,47
"296",6,54,1,1,1,5,1,1.144,48
"297",6,51,1,1,1,6,1,1.909,49
"298",6,78,1,1,1,4,0,1.528,50
"299",6,33,1,1,1,4,1,1.26,51
"300",6,24,1,1,1,5,0,2.036,52
"301",6,9,1,1,1,5,1,0.747,53
"302",6,14,1,1,1,4,1,0.78,54
"303",6,39,1,1,1,5,0,2.046,55
"304",6,40,1,1,1,6,1,1.191,56
"305",6,17,1,1,1,4,1,1.224,57
"306",6,52,1,1,1,4,1,0.558,58
"307",6,19,1,1,1,4,0,1.071,59
"308",6,27,1,1,1,4,1,1.022,60
"309",6,23,1,1,1,6,1,1.181,61
"310",6,60,1,1,1,4,1,1.269,62
"311",6,47,1,1,1,6,0,1.282,63
"312",6,69,1,1,1,5,0,3.546,64
"313",6,30,1,1,1,6,0,0.682,65
"314",6,61,1,1,1,5,1,0.863,66
"315",6,82,1,1,1,4,1,1.641,67
"316",6,64,1,1,1,3,1,2.608,68
"317",6,31,1,1,1,5,1,0.562,69
"318",6,49,1,1,1,2,0,1.239,70
"319",6,28,1,1,1,5,1,0.762,71
"320",6,74,1,1,1,4,1,2.456,72
"321",6,38,1,1,1,6,1,0.764,73
"322",6,41,1,1,1,3,1,1.496,74
"323",6,37,1,1,1,5,1,1.693,75
"324",6,26,1,1,1,3,1,0.613,76
"325",6,12,1,1,1,6,1,1.575,77
"326",6,58,1,1,1,6,1,0.824,78
"327",6,4,1,1,1,1,1,1.263,79
"328",6,44,1,1,1,1,1,1.191,80
"329",6,50,1,1,1,6,0,0.777,81
"330",6,22,1,1,1,6,1,0.835,82
"331",6,84,1,1,1,6,1,0.908,83
"332",6,2,1,1,1,3,0,1.774,84
"333",6,43,1,1,1,5,1,1.846,85
"334",6,72,1,1,1,6,1,0.848,86
"335",6,45,1,1,1,6,0,1.015,87
"336",6,53,1,1,1,4,0,1.72,88
"337",7,51,1,1,1,3,1,2.125,5
"338",7,54,1,1,1,2,1,7.794,6
"339",7,44,1,1,1,5,1,6.855,7
"340",7,83,1,1,1,5,1,6.252,8
"341",7,76,1,1,1,5,1,0.924,9
"342",7,69,1,1,1,5,0,1.018,10
"343",7,9,1,1,1,5,1,6.911,11
"344",7,73,1,1,1,4,1,1.788,12
"345",7,49,1,1,1,5,0,1.323,13
"346",7,45,1,1,1,5,0,0.86,14
"347",7,66,1,1,1,4,1,6.928,15
"348",7,27,1,1,1,4,1,3.854,16
"349",7,59,1,1,1,6,1,2.358,17
"350",7,48,1,1,1,5,1,0.783,18
"351",7,79,1,1,1,3,0,8.363,19
"352",7,10,1,1,1,6,0,6.109,20
"353",7,40,1,1,1,6,1,1.717,21
"354",7,53,1,1,1,6,0,5.166,22
"355",7,64,1,1,1,5,1,2.305,23
"356",7,6,1,1,1,5,1,1.148,24
"357",7,34,1,1,1,1,1,1.562,25
"358",7,35,1,1,1,6,0,0.987,26
"359",7,18,1,1,1,5,1,3.015,27
"360",7,46,1,1,1,4,0,0.867,28
"361",7,47,1,1,1,6,0,1.342,29
"362",7,71,1,1,1,4,1,1.851,30
"363",7,50,1,1,1,5,0,6.237,31
"364",7,28,1,1,1,6,1,1.66,32
"365",7,1,1,1,1,6,1,5.242,33
"366",7,75,1,1,1,5,0,0.734,34
"367",7,57,1,1,1,4,1,0.866,35
"368",7,68,1,1,1,1,0,1.628,36
"369",7,36,1,1,1,5,1,1.035,37
"370",7,52,1,1,1,5,1,2.149,38
"371",7,80,1,1,1,6,1,2.287,39
"372",7,26,1,1,1,3,1,4.583,40
"373",7,19,1,1,1,3,0,6.375,41
"374",7,25,1,1,1,4,1,1.278,42
"375",7,81,1,1,1,4,1,0.992,43
"376",7,23,1,1,1,5,1,6.914,44
"377",7,38,1,1,1,6,1,0.873,45
"378",7,13,1,1,1,3,0,1.046,46
"379",7,84,1,1,1,5,1,1.972,47
"380",7,74,1,1,1,5,1,2.53,48
"381",7,67,1,1,1,6,0,4.312,49
"382",7,7,1,1,1,3,1,6.911,50
"383",7,78,1,1,1,4,0,2.76,51
"384",7,29,1,1,1,3,0,3.266,52
"385",7,17,1,1,1,3,1,0.707,53
"386",7,33,1,1,1,5,1,1.293,54
"387",7,72,1,1,1,5,1,1.246,55
"388",7,56,1,1,1,5,1,9.339,56
"389",7,43,1,1,1,5,1,1.325,57
"390",7,42,1,1,1,4,0,12.234,58
"391",7,70,1,1,1,5,1,1.622,59
"392",7,20,1,1,1,5,0,22.683,60
"393",7,62,1,1,1,6,1,10.913,61
"394",7,11,1,1,1,5,0,10.313,62
"395",7,24,1,1,1,5,0,9.623,63
"396",7,14,1,1,1,3,1,7.26,64
"397",7,39,1,1,1,2,0,6.746,65
"398",7,16,1,1,1,6,1,0.879,66
"399",7,37,1,1,1,6,1,20.851,67
"400",7,5,1,1,1,6,1,0.991,68
"401",7,4,1,1,1,5,1,18.16,69
"402",7,30,1,1,1,5,0,1.969,70
"403",7,21,1,1,1,3,1,1.657,71
"404",7,31,1,1,1,5,1,1.847,72
"405",7,12,1,1,1,6,1,3.412,73
"406",7,77,1,1,1,4,0,1.925,74
"407",7,8,1,1,1,6,1,8.138,75
"408",7,2,1,1,1,3,0,25.869,76
"409",7,60,1,1,1,4,1,1.035,77
"410",7,32,1,1,1,5,0,12.45,78
"411",7,55,1,1,1,2,0,1.02,79
"412",7,22,1,1,1,5,1,2.583,80
"413",7,61,1,1,1,6,1,1.06,81
"414",7,15,1,1,1,6,1,2.653,82
"415",7,41,1,1,1,6,1,1.013,83
"416",7,65,1,1,1,4,0,3.111,84
"417",7,58,1,1,1,5,1,2.433,85
"418",7,82,1,1,1,6,1,1.407,86
"419",7,3,1,1,1,6,1,1.037,87
"420",7,63,1,1,1,6,1,2.782,88
"421",8,12,1,1,1,2,1,7.474,5
"422",8,71,1,1,1,4,1,7.151,6
"423",8,34,1,1,1,3,0,3.09,7
"424",8,22,1,1,1,3,1,4.697,8
"425",8,46,1,1,1,2,1,4.105,9
"426",8,5,1,1,1,4,0,14.772,10
"427",8,24,1,1,1,2,1,4.462,11
"428",8,78,1,1,1,3,1,3.954,12
"429",8,38,1,1,1,5,0,2.446,13
"430",8,77,1,1,1,5,1,5.188,14
"431",8,80,1,1,1,2,1,17.966,15
"432",8,2,1,1,1,2,1,6.323,16
"433",8,68,1,1,1,2,1,7.738,17
"434",8,26,1,1,1,1,0,7.337,18
"435",8,11,1,1,1,3,1,23.668,19
"436",8,28,1,1,1,2,0,2.666,20
"437",8,55,1,1,1,2,1,1.361,21
"438",8,51,1,1,1,2,1,5.936,22
"439",8,7,1,1,1,3,1,5.542,23
"440",8,56,1,1,1,3,1,1.746,24
"441",8,84,1,1,1,4,0,1.182,25
"442",8,67,1,1,1,2,1,2.478,26
"443",8,10,1,1,1,2,1,9.799,27
"444",8,42,1,1,1,3,1,1.198,28
"445",8,32,1,1,1,4,1,1.709,29
"446",8,13,1,1,1,2,1,1.346,30
"447",8,74,1,1,1,3,0,1.822,31
"448",8,53,1,1,1,5,1,1.93,32
"449",8,49,1,1,1,4,1,2.168,33
"450",8,64,1,1,1,4,0,3.866,34
"451",8,1,1,1,1,2,1,0.858,35
"452",8,19,1,1,1,5,1,2.029,36
"453",8,52,1,1,1,3,1,1.767,37
"454",8,81,1,1,1,4,1,4.831,38
"455",8,9,1,1,1,4,1,1.195,39
"456",8,14,1,1,1,2,1,2.674,40
"457",8,63,1,1,1,4,1,1.997,41
"458",8,59,1,1,1,3,1,3.014,42
"459",8,4,1,1,1,4,1,1.363,43
"460",8,30,1,1,1,2,1,1.069,44
"461",8,43,1,1,1,2,0,2.936,45
"462",8,8,1,1,1,4,0,1.744,46
"463",8,45,1,1,1,2,1,3.27,47
"464",8,83,1,1,1,3,1,0.895,48
"465",8,27,1,1,1,4,1,1.763,49
"466",8,3,1,1,1,5,0,2.035,50
"467",8,20,1,1,1,4,1,3.631,51
"468",8,33,1,1,1,3,0,5.319,52
"469",8,37,1,1,1,3,1,0.784,53
"470",8,29,1,1,1,4,1,1.315,54
"471",8,79,1,1,1,4,1,0.927,55
"472",8,31,1,1,1,4,0,7.969,56
"473",8,62,1,1,1,3,0,2.083,57
"474",8,25,1,1,1,4,1,11.415,58
"475",8,57,1,1,1,2,0,1.286,59
"476",8,6,1,1,1,3,0,1.518,60
"477",8,50,1,1,1,4,1,3.138,61
"478",8,60,1,1,1,2,1,1.298,62
"479",8,54,1,1,1,2,0,2.143,63
"480",8,72,1,1,1,2,1,0.923,64
"481",8,73,1,1,1,3,0,1.041,65
"482",8,82,1,1,1,3,1,0.82,66
"483",8,69,1,1,1,3,1,1.419,67
"484",8,39,1,1,1,4,1,1.03,68
"485",8,41,1,1,1,3,0,0.914,69
"486",8,61,1,1,1,2,1,1.4,70
"487",8,15,1,1,1,3,0,1.044,71
"488",8,76,1,1,1,3,0,0.902,72
"489",8,48,1,1,1,4,0,1.061,73
"490",8,21,1,1,1,3,1,1.859,74
"491",8,35,1,1,1,2,1,4.365,75
"492",8,66,1,1,1,2,0,4.463,76
"493",8,16,1,1,1,2,0,0.823,77
"494",8,47,1,1,1,3,1,2.009,78
"495",8,23,1,1,1,4,1,4.303,79
"496",8,18,1,1,1,3,0,2.429,80
"497",8,58,1,1,1,3,1,1.413,81
"498",8,40,1,1,1,4,0,5.306,82
"499",8,65,1,1,1,3,1,2.675,83
"500",8,44,1,1,1,3,0,7.053,84
"501",8,17,1,1,1,3,1,0.997,85
"502",8,70,1,1,1,2,1,1.27,86
"503",8,36,1,1,1,3,0,2.521,87
"504",8,75,1,1,1,4,1,3.894,88
"505",9,70,1,1,1,3,1,3.591,5
"506",9,30,1,1,1,5,1,3.665,6
"507",9,12,1,1,1,1,1,4.202,7
"508",9,21,1,1,1,5,1,6.459,8
"509",9,8,1,1,1,4,0,5.147,9
"510",9,10,1,1,1,3,1,4.613,10
"511",9,67,1,1,1,4,1,3.382,11
"512",9,39,1,1,1,2,1,3.517,12
"513",9,71,1,1,1,5,1,1.628,13
"514",9,84,1,1,1,5,0,6.311,14
"515",9,77,1,1,1,3,1,3.67,15
"516",9,55,1,1,1,4,1,5.96,16
"517",9,49,1,1,1,3,1,2.679,17
"518",9,4,1,1,1,3,1,3.643,18
"519",9,47,1,1,1,1,1,3.749,19
"520",9,11,1,1,1,5,1,2.753,20
"521",9,37,1,1,1,3,1,3.49,21
"522",9,3,1,1,1,5,0,3.518,22
"523",9,23,1,1,1,6,1,4.073,23
"524",9,68,1,1,1,5,1,1.924,24
"525",9,75,1,1,1,5,1,2.443,25
"526",9,61,1,1,1,3,1,2.543,26
"527",9,28,1,1,1,3,0,1.735,27
"528",9,31,1,1,1,3,0,1.135,28
"529",9,51,1,1,1,3,1,3.682,29
"530",9,66,1,1,1,5,0,8.423,30
"531",9,81,1,1,1,5,1,1.149,31
"532",9,63,1,1,1,4,1,4.64,32
"533",9,78,1,1,1,3,1,2.429,33
"534",9,17,1,1,1,5,1,2.895,34
"535",9,13,1,1,1,2,1,1.455,35
"536",9,18,1,1,1,2,0,0.642,36
"537",9,38,1,1,1,3,0,4.649,37
"538",9,52,1,1,1,4,1,3.591,38
"539",9,32,1,1,1,3,1,2.998,39
"540",9,53,1,1,1,3,1,4.623,40
"541",9,41,1,1,1,3,0,3.186,41
"542",9,50,1,1,1,4,1,4.792,42
"543",9,57,1,1,1,4,0,6.996,43
"544",9,33,1,1,1,2,0,2.341,44
"545",9,5,1,1,1,5,0,5.097,45
"546",9,16,1,1,1,3,0,2.742,46
"547",9,69,1,1,1,3,1,15.655,47
"548",9,46,1,1,1,4,1,2.325,48
"549",9,1,1,1,1,4,1,1.798,49
"550",9,35,1,1,1,2,1,3.506,50
"551",9,54,1,1,1,3,0,3.767,51
"552",9,48,1,1,1,5,0,0.98,52
"553",9,82,1,1,1,3,1,3.054,53
"554",9,43,1,1,1,2,0,3.839,54
"555",9,26,1,1,1,5,0,4.272,55
"556",9,64,1,1,1,2,0,6.999,56
"557",9,45,1,1,1,2,1,3.224,57
"558",9,74,1,1,1,3,0,3.109,58
"559",9,22,1,1,1,4,1,1.057,59
"560",9,15,1,1,1,2,0,2.171,60
"561",9,76,1,1,1,4,0,3.45,61
"562",9,56,1,1,1,3,1,2.824,62
"563",9,14,1,1,1,3,1,4.258,63
"564",9,62,1,1,1,4,0,3.127,64
"565",9,65,1,1,1,2,1,6.041,65
"566",9,29,1,1,1,3,1,1.25,66
"567",9,7,1,1,1,4,1,8.843,67
"568",9,42,1,1,1,5,1,3.323,68
"569",9,19,1,1,1,6,1,1.186,69
"570",9,24,1,1,1,2,1,0.995,70
"571",9,60,1,1,1,5,1,2.171,71
"572",9,2,1,1,1,5,1,1.694,72
"573",9,6,1,1,1,3,0,0.745,73
"574",9,36,1,1,1,4,0,4.547,74
"575",9,79,1,1,1,5,1,1.428,75
"576",9,40,1,1,1,2,0,3.122,76
"577",9,72,1,1,1,5,1,3.892,77
"578",9,58,1,1,1,4,1,3.806,78
"579",9,73,1,1,1,5,0,3.425,79
"580",9,25,1,1,1,3,1,2.833,80
"581",9,80,1,1,1,2,1,1.227,81
"582",9,20,1,1,1,5,1,2.259,82
"583",9,59,1,1,1,3,1,0.575,83
"584",9,27,1,1,1,4,1,0.645,84
"585",9,34,1,1,1,4,0,2.215,85
"586",9,83,1,1,1,4,1,1.062,86
"587",9,44,1,1,1,4,0,2.49,87
"588",9,9,1,1,1,3,1,2.493,88
"589",10,72,1,1,1,5,0,1.748,5
"590",10,46,1,1,1,4,1,3.461,6
"591",10,70,1,1,1,2,0,1.242,7
"592",10,84,1,1,1,4,1,1.513,8
"593",10,61,1,1,1,3,0,2.27,9
"594",10,76,1,1,1,3,1,0.811,10
"595",10,49,1,1,1,5,1,0.804,11
"596",10,83,1,1,1,3,0,1.736,12
"597",10,29,1,1,1,4,1,1.602,13
"598",10,10,1,1,1,5,1,0.703,14
"599",10,77,1,1,1,2,1,1.516,15
"600",10,11,1,1,1,4,1,1.482,16
"601",10,82,1,1,1,4,0,0.689,17
"602",10,34,1,1,1,4,1,2.499,18
"603",10,79,1,1,1,5,1,1.472,19
"604",10,27,1,1,1,4,0,1.084,20
"605",10,39,1,1,1,6,1,4.987,21
"606",10,28,1,1,1,5,1,1.29,22
"607",10,50,1,1,1,4,1,1.432,23
"608",10,1,1,1,1,3,0,0.905,24
"609",10,7,1,1,1,1,0,1.447,25
"610",10,51,1,1,1,5,0,1.475,26
"611",10,47,1,1,1,3,1,2.183,27
"612",10,48,1,1,1,4,1,1.052,28
"613",10,5,1,1,1,4,1,2.701,29
"614",10,38,1,1,1,4,1,1.939,30
"615",10,31,1,1,1,3,1,1.548,31
"616",10,55,1,1,1,3,1,1.155,32
"617",10,53,1,1,1,5,1,1.263,33
"618",10,68,1,1,1,4,1,1.798,34
"619",10,57,1,1,1,4,1,0.696,35
"620",10,78,1,1,1,4,1,1.997,36
"621",10,80,1,1,1,2,0,3.156,37
"622",10,69,1,1,1,4,1,3.742,38
"623",10,2,1,1,1,5,1,0.96,39
"624",10,42,1,1,1,4,1,2.377,40
"625",10,15,1,1,1,5,1,0.793,41
"626",10,6,1,1,1,2,1,3.381,42
"627",10,19,1,1,1,2,1,2.267,43
"628",10,52,1,1,1,2,0,0.572,44
"629",10,35,1,1,1,4,1,0.961,45
"630",10,62,1,1,1,3,1,1.179,46
"631",10,45,1,1,1,3,1,1.638,47
"632",10,25,1,1,1,5,0,1.021,48
"633",10,23,1,1,1,6,0,18.339,49
"634",10,26,1,1,1,5,1,0.91,50
"635",10,32,1,1,1,5,1,0.722,51
"636",10,75,1,1,1,3,1,3.471,52
"637",10,33,1,1,1,5,1,0.827,53
"638",10,74,1,1,1,4,1,0.885,54
"639",10,60,1,1,1,3,0,3.879,55
"640",10,65,1,1,1,5,1,0.941,56
"641",10,30,1,1,1,5,1,0.873,57
"642",10,41,1,1,1,4,1,1.079,58
"643",10,21,1,1,1,2,0,0.572,59
"644",10,13,1,1,1,3,1,1.011,60
"645",10,44,1,1,1,3,1,1.123,61
"646",10,56,1,1,1,3,0,0.979,62
"647",10,14,1,1,1,3,0,1.509,63
"648",10,24,1,1,1,4,1,0.917,64
"649",10,40,1,1,1,3,1,0.639,65
"650",10,8,1,1,1,3,1,0.544,66
"651",10,64,1,1,1,2,1,22.753,67
"652",10,63,1,1,1,2,0,3.264,68
"653",10,9,1,1,1,3,0,1.505,69
"654",10,18,1,1,1,3,1,0.706,70
"655",10,16,1,1,1,3,1,0.99,71
"656",10,66,1,1,1,1,1,2.683,72
"657",10,58,1,1,1,2,0,4.472,73
"658",10,67,1,1,1,5,1,1.644,74
"659",10,12,1,1,1,2,0,3.267,75
"660",10,43,1,1,1,5,1,0.851,76
"661",10,22,1,1,1,3,0,1.252,77
"662",10,36,1,1,1,5,1,0.863,78
"663",10,20,1,1,1,4,1,3.506,79
"664",10,37,1,1,1,4,0,2.715,80
"665",10,73,1,1,1,2,1,0.825,81
"666",10,59,1,1,1,5,0,0.755,82
"667",10,17,1,1,1,3,0,2.814,83
"668",10,3,1,1,1,2,1,1.496,84
"669",10,71,1,1,1,4,0,1.348,85
"670",10,54,1,1,1,3,1,0.714,86
"671",10,81,1,1,1,3,0,0.991,87
"672",10,4,1,1,1,3,0,1.2,88
"673",11,55,1,1,1,5,0,1.463,5
"674",11,49,1,1,1,5,0,4.374,6
"675",11,37,1,1,1,5,1,1.199,7
"676",11,64,1,1,1,6,1,1.797,8
"677",11,5,1,1,1,3,1,2.266,9
"678",11,40,1,1,1,5,1,1.103,10
"679",11,19,1,1,1,6,0,3.448,11
"680",11,58,1,1,1,5,1,3.949,12
"681",11,61,1,1,1,3,1,5.512,13
"682",11,27,1,1,1,3,1,4.7,14
"683",11,63,1,1,1,5,1,1.91,15
"684",11,72,1,1,1,5,1,0.86,16
"685",11,6,1,1,1,5,1,1.52,17
"686",11,24,1,1,1,4,0,1.558,18
"687",11,7,1,1,1,4,1,1.015,19
"688",11,70,1,1,1,5,1,0.95,20
"689",11,42,1,1,1,4,0,3.521,21
"690",11,79,1,1,1,2,0,2.581,22
"691",11,23,1,1,1,6,1,14.733,23
"692",11,66,1,1,1,5,1,3.036,24
"693",11,81,1,1,1,4,1,2.515,25
"694",11,68,1,1,1,4,0,3.344,26
"695",11,47,1,1,1,3,0,2.756,27
"696",11,54,1,1,1,2,1,1.595,28
"697",11,46,1,1,1,1,0,2.221,29
"698",11,36,1,1,1,2,1,2.054,30
"699",11,60,1,1,1,5,1,1.284,31
"700",11,48,1,1,1,5,1,0.922,32
"701",11,17,1,1,1,4,1,1.939,33
"702",11,32,1,1,1,4,0,3.871,34
"703",11,39,1,1,1,6,0,2.558,35
"704",11,67,1,1,1,5,0,1.241,36
"705",11,76,1,1,1,5,1,0.964,37
"706",11,20,1,1,1,3,0,3.544,38
"707",11,4,1,1,1,5,1,0.775,39
"708",11,2,1,1,1,5,0,1.236,40
"709",11,30,1,1,1,2,0,3.133,41
"710",11,29,1,1,1,3,0,2.689,42
"711",11,31,1,1,1,5,1,0.994,43
"712",11,28,1,1,1,4,1,0.436,44
"713",11,15,1,1,1,5,1,0.886,45
"714",11,33,1,1,1,2,1,1.063,46
"715",11,1,1,1,1,4,1,1.197,47
"716",11,83,1,1,1,3,1,0.997,48
"717",11,26,1,1,1,5,1,0.82,49
"718",11,11,1,1,1,2,0,0.713,50
"719",11,3,1,1,1,5,1,0.967,51
"720",11,84,1,1,1,5,1,1.175,52
"721",11,62,1,1,1,5,1,1.179,53
"722",11,65,1,1,1,3,0,1.899,54
"723",11,50,1,1,1,4,0,3.713,55
"724",11,44,1,1,1,4,1,2.31,56
"725",11,10,1,1,1,5,0,0.721,57
"726",11,45,1,1,1,5,0,1.465,58
"727",11,57,1,1,1,5,1,0.633,59
"728",11,35,1,1,1,2,0,2.411,60
"729",11,43,1,1,1,6,1,1.124,61
"730",11,59,1,1,1,5,1,0.691,62
"731",11,9,1,1,1,6,1,2.077,63
"732",11,71,1,1,1,5,1,1.93,64
"733",11,13,1,1,1,6,0,0.697,65
"734",11,34,1,1,1,4,1,1.289,66
"735",11,41,1,1,1,5,1,0.738,67
"736",11,73,1,1,1,3,1,2.254,68
"737",11,69,1,1,1,5,0,5.35,69
"738",11,8,1,1,1,6,1,0.723,70
"739",11,12,1,1,1,5,1,0.623,71
"740",11,80,1,1,1,5,1,1.264,72
"741",11,51,1,1,1,6,1,0.838,73
"742",11,18,1,1,1,4,1,0.427,74
"743",11,38,1,1,1,5,1,0.614,75
"744",11,21,1,1,1,5,1,0.714,76
"745",11,22,1,1,1,4,1,1.381,77
"746",11,77,1,1,1,5,0,5.017,78
"747",11,53,1,1,1,2,0,0.595,79
"748",11,75,1,1,1,5,0,1.289,80
"749",11,16,1,1,1,4,1,0.42,81
"750",11,82,1,1,1,3,1,1.71,82
"751",11,78,1,1,1,4,0,2.505,83
"752",11,25,1,1,1,5,1,0.92,84
"753",11,56,1,1,1,5,1,0.935,85
"754",11,14,1,1,1,5,1,0.959,86
"755",11,74,1,1,1,5,1,1.801,87
"756",11,52,1,1,1,5,1,0.699,88
"757",12,32,1,1,1,5,1,2.389,5
"758",12,52,1,1,1,5,1,1.205,6
"759",12,21,1,1,1,4,1,6.434,7
"760",12,5,1,1,1,5,0,3.083,8
"761",12,55,1,1,1,3,1,1.267,9
"762",12,30,1,1,1,3,1,4.793,10
"763",12,51,1,1,1,4,1,22.506,11
"764",12,33,1,1,1,3,0,8.158,12
"765",12,79,1,1,1,3,1,0.638,13
"766",12,69,1,1,1,4,1,6.761,14
"767",12,6,1,1,1,3,0,6.15,15
"768",12,4,1,1,1,4,1,3.566,16
"769",12,35,1,1,1,4,1,2.336,17
"770",12,39,1,1,1,2,1,1.468,18
"771",12,18,1,1,1,2,0,1.354,19
"772",12,71,1,1,1,5,1,3.853,20
"773",12,41,1,1,1,5,0,3.574,21
"774",12,2,1,1,1,3,1,3.336,22
"775",12,48,1,1,1,4,0,3.255,23
"776",12,54,1,1,1,2,0,4.227,24
"777",12,82,1,1,1,3,1,4.366,25
"778",12,29,1,1,1,4,1,1.062,26
"779",12,44,1,1,1,2,0,1.09,27
"780",12,81,1,1,1,4,1,2.853,28
"781",12,10,1,1,1,2,1,0.736,29
"782",12,34,1,1,1,3,0,2.94,30
"783",12,66,1,1,1,4,0,3.982,31
"784",12,80,1,1,1,1,1,1.719,32
"785",12,15,1,1,1,3,0,1.566,33
"786",12,56,1,1,1,3,1,1.798,34
"787",12,53,1,1,1,4,1,3.704,35
"788",12,23,1,1,1,5,1,0.902,36
"789",12,58,1,1,1,4,1,1.869,37
"790",12,76,1,1,1,3,0,2.337,38
"791",12,77,1,1,1,4,1,0.688,39
"792",12,14,1,1,1,4,1,0.912,40
"793",12,59,1,1,1,3,1,1.203,41
"794",12,62,1,1,1,3,0,2.997,42
"795",12,28,1,1,1,4,0,0.766,43
"796",12,45,1,1,1,4,1,5.188,44
"797",12,47,1,1,1,3,1,2.204,45
"798",12,70,1,1,1,5,1,5.971,46
"799",12,3,1,1,1,3,0,2.075,47
"800",12,12,1,1,1,4,1,3.042,48
"801",12,8,1,1,1,2,0,4.792,49
"802",12,9,1,1,1,3,1,1.575,50
"803",12,31,1,1,1,3,0,4.235,51
"804",12,61,1,1,1,4,1,0.963,52
"805",12,1,1,1,1,4,1,0.662,53
"806",12,17,1,1,1,3,1,0.851,54
"807",12,37,1,1,1,3,1,1.417,55
"808",12,43,1,1,1,4,0,2.358,56
"809",12,57,1,1,1,3,0,8.517,57
"810",12,78,1,1,1,4,1,2.506,58
"811",12,7,1,1,1,2,1,1.405,59
"812",12,83,1,1,1,3,1,0.972,60
"813",12,20,1,1,1,4,1,1.566,61
"814",12,68,1,1,1,4,1,2.765,62
"815",12,72,1,1,1,2,1,0.783,63
"816",12,22,1,1,1,2,1,0.53,64
"817",12,40,1,1,1,3,0,2.473,65
"818",12,73,1,1,1,2,0,1.149,66
"819",12,24,1,1,1,3,1,1.233,67
"820",12,26,1,1,1,1,0,1.384,68
"821",12,16,1,1,1,2,0,0.551,69
"822",12,63,1,1,1,6,1,0.953,70
"823",12,25,1,1,1,2,1,1.609,71
"824",12,65,1,1,1,4,1,1.827,72
"825",12,64,1,1,1,5,0,1.357,73
"826",12,13,1,1,1,1,1,1.255,74
"827",12,36,1,1,1,2,0,1.828,75
"828",12,60,1,1,1,5,1,6.949,76
"829",12,74,1,1,1,2,0,1.266,77
"830",12,67,1,1,1,3,1,1.146,78
"831",12,84,1,1,1,2,0,0.708,79
"832",12,75,1,1,1,3,1,2.711,80
"833",12,19,1,1,1,4,1,3.076,81
"834",12,38,1,1,1,3,0,0.628,82
"835",12,49,1,1,1,3,1,1.313,83
"836",12,50,1,1,1,2,1,1.459,84
"837",12,11,1,1,1,4,1,0.61,85
"838",12,42,1,1,1,3,1,4.476,86
"839",12,46,1,1,1,3,1,0.703,87
"840",12,27,1,1,1,3,1,2.424,88
"841",13,74,1,1,1,4,1,3.25,5
"842",13,24,1,1,1,3,1,1.258,6
"843",13,23,1,1,1,5,0,0.894,7
"844",13,22,1,1,1,3,0,1.798,8
"845",13,29,1,1,1,4,1,1.02,9
"846",13,50,1,1,1,4,1,0.986,10
"847",13,61,1,1,1,2,0,0.735,11
"848",13,67,1,1,1,3,1,2.527,12
"849",13,13,1,1,1,2,1,5.105,13
"850",13,69,1,1,1,4,1,5.571,14
"851",13,53,1,1,1,2,1,0.705,15
"852",13,48,1,1,1,3,1,0.588,16
"853",13,5,1,1,1,3,1,2.723,17
"854",13,71,1,1,1,5,0,3.553,18
"855",13,83,1,1,1,3,0,14.246,19
"856",13,38,1,1,1,5,1,0.909,20
"857",13,6,1,1,1,2,1,0.918,21
"858",13,45,1,1,1,4,1,1.246,22
"859",13,72,1,1,1,3,0,1.751,23
"860",13,42,1,1,1,4,1,0.393,24
"861",13,47,1,1,1,4,1,2.284,25
"862",13,40,1,1,1,5,1,1.884,26
"863",13,82,1,1,1,4,0,0.796,27
"864",13,43,1,1,1,4,1,0.772,28
"865",13,62,1,1,1,4,1,1.075,29
"866",13,80,1,1,1,3,0,1.26,30
"867",13,26,1,1,1,4,1,1.028,31
"868",13,44,1,1,1,3,1,0.414,32
"869",13,28,1,1,1,3,1,1.954,33
"870",13,25,1,1,1,3,0,1.498,34
"871",13,9,1,1,1,4,0,3.29,35
"872",13,8,1,1,1,4,1,5.936,36
"873",13,54,1,1,1,3,1,5.082,37
"874",13,60,1,1,1,5,0,0.925,38
"875",13,11,1,1,1,4,1,0.63,39
"876",13,73,1,1,1,4,1,0.635,40
"877",13,65,1,1,1,3,1,0.72,41
"878",13,20,1,1,1,4,1,0.708,42
"879",13,52,1,1,1,4,0,0.886,43
"880",13,30,1,1,1,3,1,0.748,44
"881",13,84,1,1,1,4,1,0.564,45
"882",13,12,1,1,1,3,0,5.666,46
"883",13,78,1,1,1,5,1,0.856,47
"884",13,19,1,1,1,2,1,0.86,48
"885",13,77,1,1,1,1,1,0.81,49
"886",13,21,1,1,1,4,0,1.146,50
"887",13,59,1,1,1,3,0,0.641,51
"888",13,10,1,1,1,4,1,0.539,52
"889",13,81,1,1,1,4,0,0.862,53
"890",13,31,1,1,1,4,1,3.254,54
"891",13,68,1,1,1,4,1,1.064,55
"892",13,37,1,1,1,5,0,2.2,56
"893",13,33,1,1,1,3,1,1.8,57
"894",13,15,1,1,1,4,1,0.766,58
"895",13,76,1,1,1,3,1,1.497,59
"896",13,49,1,1,1,3,1,0.513,60
"897",13,57,1,1,1,2,1,2.673,61
"898",13,35,1,1,1,4,1,0.946,62
"899",13,70,1,1,1,5,0,1.01,63
"900",13,63,1,1,1,5,0,1.139,64
"901",13,32,1,1,1,5,1,0.751,65
"902",13,58,1,1,1,3,0,2.399,66
"903",13,36,1,1,1,3,1,0.995,67
"904",13,7,1,1,1,1,0,2.963,68
"905",13,75,1,1,1,3,1,1.489,69
"906",13,55,1,1,1,3,1,1.665,70
"907",13,79,1,1,1,3,1,1.439,71
"908",13,1,1,1,1,3,0,1.466,72
"909",13,39,1,1,1,6,1,3.27,73
"910",13,4,1,1,1,3,0,0.728,74
"911",13,64,1,1,1,5,1,0.692,75
"912",13,14,1,1,1,3,0,0.632,76
"913",13,56,1,1,1,3,0,1.764,77
"914",13,17,1,1,1,2,0,2.54,78
"915",13,51,1,1,1,6,0,2.538,79
"916",13,27,1,1,1,4,0,0.43,80
"917",13,46,1,1,1,2,1,0.762,81
"918",13,66,1,1,1,2,1,3.696,82
"919",13,41,1,1,1,5,1,0.468,83
"920",13,2,1,1,1,4,1,0.463,84
"921",13,34,1,1,1,4,1,0.433,85
"922",13,18,1,1,1,5,1,3.296,86
"923",13,16,1,1,1,3,1,0.552,87
"924",13,3,1,1,1,4,1,0.43,88
"925",14,71,1,1,1,3,1,7.014,5
"926",14,5,1,1,1,5,0,3.755,6
"927",14,44,1,1,1,4,0,2.545,7
"928",14,39,1,1,1,4,1,2.712,8
"929",14,40,1,1,1,4,0,2.69,9
"930",14,80,1,1,1,5,1,2.637,10
"931",14,22,1,1,1,3,1,3.302,11
"932",14,52,1,1,1,4,1,5.386,12
"933",14,66,1,1,1,4,0,4.101,13
"934",14,9,1,1,1,4,1,1.699,14
"935",14,29,1,1,1,5,1,1.255,15
"936",14,77,1,1,1,3,1,2.94,16
"937",14,3,1,1,1,2,0,1.478,17
"938",14,28,1,1,1,3,0,1.672,18
"939",14,38,1,1,1,4,0,1.286,19
"940",14,67,1,1,1,3,1,1.035,20
"941",14,2,1,1,1,4,1,1.946,21
"942",14,24,1,1,1,4,1,1.653,22
"943",14,49,1,1,1,3,1,1.315,23
"944",14,42,1,1,1,4,1,1.375,24
"945",14,16,1,1,1,2,0,2.349,25
"946",14,76,1,1,1,2,0,2.155,26
"947",14,64,1,1,1,4,0,3.577,27
"948",14,56,1,1,1,4,1,1.035,28
"949",14,33,1,1,1,4,0,5.311,29
"950",14,1,1,1,1,5,1,1.482,30
"951",14,43,1,1,1,3,0,1.272,31
"952",14,48,1,1,1,2,0,1.344,32
"953",14,63,1,1,1,4,1,1.44,33
"954",14,41,1,1,1,4,0,2.667,34
"955",14,53,1,1,1,5,1,2.261,35
"956",14,60,1,1,1,3,1,1.773,36
"957",14,13,1,1,1,4,1,1.425,37
"958",14,27,1,1,1,4,1,0.746,38
"959",14,10,1,1,1,4,1,1.517,39
"960",14,32,1,1,1,4,1,1.642,40
"961",14,65,1,1,1,5,1,1.921,41
"962",14,75,1,1,1,5,1,1.088,42
"963",14,78,1,1,1,3,1,2.018,43
"964",14,81,1,1,1,4,1,1.079,44
"965",14,82,1,1,1,5,1,0.935,45
"966",14,23,1,1,1,4,1,1.01,46
"967",14,58,1,1,1,4,1,1.257,47
"968",14,47,1,1,1,5,1,3.214,48
"969",14,59,1,1,1,4,1,2.314,49
"970",14,11,1,1,1,3,1,1.254,50
"971",14,21,1,1,1,4,1,3.465,51
"972",14,72,1,1,1,3,1,1.012,52
"973",14,51,1,1,1,5,1,0.665,53
"974",14,25,1,1,1,4,1,1.113,54
"975",14,79,1,1,1,3,1,1.181,55
"976",14,8,1,1,1,3,0,1.135,56
"977",14,19,1,1,1,4,1,1.022,57
"978",14,26,1,1,1,3,0,1.467,58
"979",14,35,1,1,1,4,1,1.15,59
"980",14,84,1,1,1,4,0,0.455,60
"981",14,50,1,1,1,4,1,0.595,61
"982",14,70,1,1,1,3,1,2.929,62
"983",14,17,1,1,1,4,1,1.7,63
"984",14,4,1,1,1,3,1,1.601,64
"985",14,31,1,1,1,3,0,1.801,65
"986",14,55,1,1,1,3,1,2.239,66
"987",14,30,1,1,1,4,1,1.236,67
"988",14,18,1,1,1,2,0,1.412,68
"989",14,45,1,1,1,3,1,1.021,69
"990",14,36,1,1,1,3,0,1.095,70
"991",14,57,1,1,1,3,0,1.415,71
"992",14,69,1,1,1,3,1,1.451,72
"993",14,61,1,1,1,4,1,2.211,73
"994",14,83,1,1,1,4,1,2.267,74
"995",14,6,1,1,1,3,0,1.779,75
"996",14,12,1,1,1,4,1,1.369,76
"997",14,34,1,1,1,4,0,1.616,77
"998",14,14,1,1,1,3,1,2.915,78
"999",14,54,1,1,1,3,0,8.636,79
"1000",14,7,1,1,1,3,1,3.072,80
"1001",14,62,1,1,1,4,0,1.274,81
"1002",14,73,1,1,1,3,0,0.976,82
"1003",14,46,1,1,1,4,1,1.074,83
"1004",14,37,1,1,1,3,1,2.093,84
"1005",14,15,1,1,1,3,0,0.794,85
"1006",14,20,1,1,1,4,1,2.418,86
"1007",14,74,1,1,1,2,0,0.77,87
"1008",14,68,1,1,1,2,1,7.039,88
"1009",15,46,1,1,1,2,0,5.979,5
"1010",15,39,1,1,1,5,0,15.008,6
"1011",15,13,1,1,1,3,0,4.67,7
"1012",15,4,1,1,1,5,1,9.312,8
"1013",15,43,1,1,1,2,1,4.829,9
"1014",15,69,1,1,1,5,0,4.768,10
"1015",15,23,1,1,1,6,1,3.392,11
"1016",15,63,1,1,1,4,1,19.566,12
"1017",15,22,1,1,1,4,1,1.373,13
"1018",15,44,1,1,1,5,1,20.686,14
"1019",15,12,1,1,1,5,1,5.453,15
"1020",15,76,1,1,1,5,1,3.902,16
"1021",15,38,1,1,1,4,1,4.529,17
"1022",15,3,1,1,1,3,1,1.151,18
"1023",15,36,1,1,1,2,1,5.761,19
"1024",15,16,1,1,1,5,1,1.882,20
"1025",15,51,1,1,1,1,1,0.983,21
"1026",15,20,1,1,1,4,0,6.149,22
"1027",15,6,1,1,1,4,1,1.316,23
"1028",15,14,1,1,1,2,1,3.092,24
"1029",15,8,1,1,1,5,1,7.208,25
"1030",15,64,1,1,1,5,1,6.872,26
"1031",15,10,1,1,1,3,0,1.789,27
"1032",15,56,1,1,1,5,1,0.845,28
"1033",15,31,1,1,1,4,1,1.49,29
"1034",15,57,1,1,1,4,1,1.792,30
"1035",15,47,1,1,1,4,0,9.724,31
"1036",15,70,1,1,1,4,1,2.125,32
"1037",15,84,1,1,1,5,1,2.618,33
"1038",15,55,1,1,1,4,0,1.469,34
"1039",15,28,1,1,1,4,1,2.135,35
"1040",15,29,1,1,1,5,0,3.397,36
"1041",15,41,1,1,1,4,1,1.604,37
"1042",15,11,1,1,1,5,0,0.693,38
"1043",15,21,1,1,1,3,1,2.59,39
"1044",15,18,1,1,1,2,1,5.713,40
"1045",15,30,1,1,1,4,0,0.865,41
"1046",15,25,1,1,1,5,1,1.705,42
"1047",15,75,1,1,1,3,0,2.487,43
"1048",15,62,1,1,1,4,1,2.186,44
"1049",15,34,1,1,1,4,1,1.226,45
"1050",15,7,1,1,1,5,1,3.653,46
"1051",15,61,1,1,1,5,1,1.441,47
"1052",15,1,1,1,1,3,1,1.323,48
"1053",15,73,1,1,1,4,1,3.995,49
"1054",15,80,1,1,1,2,1,4.063,50
"1055",15,58,1,1,1,5,1,1.869,51
"1056",15,40,1,1,1,5,1,0.96,52
"1057",15,74,1,1,1,4,1,0.473,53
"1058",15,33,1,1,1,3,1,6.556,54
"1059",15,45,1,1,1,4,0,2.892,55
"1060",15,82,1,1,1,4,1,2.222,56
"1061",15,72,1,1,1,3,1,0.9,57
"1062",15,27,1,1,1,4,1,0.947,58
"1063",15,54,1,1,1,2,1,1.239,59
"1064",15,50,1,1,1,4,0,2.972,60
"1065",15,79,1,1,1,5,0,0.732,61
"1066",15,53,1,1,1,5,0,1.124,62
"1067",15,67,1,1,1,3,0,1.198,63
"1068",15,19,1,1,1,4,0,6.224,64
"1069",15,37,1,1,1,5,1,2.041,65
"1070",15,48,1,1,1,3,1,0.945,66
"1071",15,66,1,1,1,3,1,13.734,67
"1072",15,83,1,1,1,5,1,1.191,68
"1073",15,49,1,1,1,3,0,1.232,69
"1074",15,60,1,1,1,5,1,5.442,70
"1075",15,42,1,1,1,5,0,17.111,71
"1076",15,17,1,1,1,5,1,4.806,72
"1077",15,78,1,1,1,3,0,0.719,73
"1078",15,77,1,1,1,2,0,7.224,74
"1079",15,24,1,1,1,3,0,1.004,75
"1080",15,9,1,1,1,4,1,9.835,76
"1081",15,32,1,1,1,3,0,2.134,77
"1082",15,65,1,1,1,5,0,2.281,78
"1083",15,81,1,1,1,4,1,1.842,79
"1084",15,5,1,1,1,5,1,1.391,80
"1085",15,52,1,1,1,4,1,0.728,81
"1086",15,59,1,1,1,5,1,1.966,82
"1087",15,35,1,1,1,3,0,1.586,83
"1088",15,71,1,1,1,6,1,0.747,84
"1089",15,15,1,1,1,5,1,2.815,85
"1090",15,2,1,1,1,4,0,1.227,86
"1091",15,68,1,1,1,3,0,2.688,87
"1092",15,26,1,1,1,5,1,1.84,88
"1093",16,31,1,1,1,4,0,4.47,5
"1094",16,25,1,1,1,5,1,2.924,6
"1095",16,40,1,1,1,4,0,1.565,7
"1096",16,82,1,1,1,5,1,0.975,8
"1097",16,18,1,1,1,4,0,0.636,9
"1098",16,59,1,1,1,3,1,0.58,10
"1099",16,9,1,1,1,4,1,1.814,11
"1100",16,66,1,1,1,5,0,2.839,12
"1101",16,36,1,1,1,4,0,0.642,13
"1102",16,41,1,1,1,5,0,3.397,14
"1103",16,37,1,1,1,5,1,4.669,15
"1104",16,20,1,1,1,3,1,2.931,16
"1105",16,2,1,1,1,3,1,2.286,17
"1106",16,55,1,1,1,4,1,0.342,18
"1107",16,48,1,1,1,4,0,0.565,19
"1108",16,10,1,1,1,2,1,0.585,20
"1109",16,44,1,1,1,2,0,1.23,21
"1110",16,72,1,1,1,2,1,1.331,22
"1111",16,28,1,1,1,4,0,0.515,23
"1112",16,76,1,1,1,3,0,1.04,24
"1113",16,73,1,1,1,1,0,0.819,25
"1114",16,17,1,1,1,3,1,0.457,26
"1115",16,50,1,1,1,4,1,0.52,27
"1116",16,29,1,1,1,5,1,1.007,28
"1117",16,5,1,1,1,5,0,3.238,29
"1118",16,30,1,1,1,5,1,1.42,30
"1119",16,39,1,1,1,4,1,0.611,31
"1120",16,56,1,1,1,3,1,0.505,32
"1121",16,46,1,1,1,3,1,0.448,33
"1122",16,75,1,1,1,5,1,0.584,34
"1123",16,21,1,1,1,2,1,1.231,35
"1124",16,6,1,1,1,1,0,2.734,36
"1125",16,62,1,1,1,2,0,0.789,37
"1126",16,15,1,1,1,3,0,0.477,38
"1127",16,74,1,1,1,3,0,1.034,39
"1128",16,71,1,1,1,3,1,1.319,40
"1129",16,54,1,1,1,4,0,0.75,41
"1130",16,32,1,1,1,4,1,0.573,42
"1131",16,38,1,1,1,4,0,0.453,43
"1132",16,8,1,1,1,6,0,0.756,44
"1133",16,79,1,1,1,3,1,0.341,45
"1134",16,83,1,1,1,4,1,0.602,46
"1135",16,60,1,1,1,4,1,3.36,47
"1136",16,65,1,1,1,3,1,4.046,48
"1137",16,69,1,1,1,4,1,2.064,49
"1138",16,23,1,1,1,6,1,1,50
"1139",16,68,1,1,1,1,1,8.321,51
"1140",16,84,1,1,1,3,0,0.425,52
"1141",16,19,1,1,1,6,1,0.608,53
"1142",16,33,1,1,1,4,0,0.604,54
"1143",16,26,1,1,1,3,0,0.679,55
"1144",16,13,1,1,1,2,1,0.913,56
"1145",16,34,1,1,1,1,0,3.821,57
"1146",16,11,1,1,1,4,1,3.418,58
"1147",16,57,1,1,1,3,0,0.915,59
"1148",16,53,1,1,1,4,1,0.474,60
"1149",16,24,1,1,1,5,1,0.471,61
"1150",16,61,1,1,1,3,1,0.615,62
"1151",16,4,1,1,1,3,1,2.138,63
"1152",16,16,1,1,1,4,0,0.687,64
"1153",16,78,1,1,1,3,1,3.407,65
"1154",16,42,1,1,1,2,1,0.967,66
"1155",16,22,1,1,1,4,1,0.599,67
"1156",16,58,1,1,1,3,1,3.505,68
"1157",16,3,1,1,1,6,0,0.806,69
"1158",16,77,1,1,1,4,1,0.455,70
"1159",16,1,1,1,1,4,1,0.458,71
"1160",16,63,1,1,1,2,1,0.391,72
"1161",16,7,1,1,1,2,1,0.613,73
"1162",16,51,1,1,1,1,1,1.225,74
"1163",16,14,1,1,1,2,1,0.924,75
"1164",16,49,1,1,1,4,1,0.423,76
"1165",16,52,1,1,1,3,1,0.454,77
"1166",16,70,1,1,1,1,1,0.678,78
"1167",16,67,1,1,1,4,1,0.399,79
"1168",16,47,1,1,1,1,1,0.82,80
"1169",16,27,1,1,1,4,1,2.391,81
"1170",16,43,1,1,1,4,0,0.377,82
"1171",16,35,1,1,1,4,1,0.595,83
"1172",16,45,1,1,1,2,1,0.868,84
"1173",16,12,1,1,1,1,1,2.066,85
"1174",16,81,1,1,1,4,1,1.088,86
"1175",16,64,1,1,1,2,0,0.756,87
"1176",16,80,1,1,1,1,1,0.616,88
"1177",17,50,1,1,1,4,1,2.564,5
"1178",17,28,1,1,1,4,1,6.28,6
"1179",17,13,1,1,1,3,1,2.273,7
"1180",17,36,1,1,1,4,1,7.132,8
"1181",17,15,1,1,1,5,1,4.577,9
"1182",17,3,1,1,1,4,1,7.629,10
"1183",17,7,1,1,1,5,0,3.305,11
"1184",17,66,1,1,1,4,1,10.791,12
"1185",17,1,1,1,1,3,0,2.017,13
"1186",17,23,1,1,1,5,0,1.403,14
"1187",17,55,1,1,1,4,1,2.675,15
"1188",17,38,1,1,1,5,1,1.157,16
"1189",17,42,1,1,1,4,1,2.567,17
"1190",17,10,1,1,1,4,1,0.819,18
"1191",17,43,1,1,1,3,1,1.776,19
"1192",17,74,1,1,1,4,1,1.826,20
"1193",17,70,1,1,1,2,0,9.526,21
"1194",17,51,1,1,1,2,0,15.259,22
"1195",17,47,1,1,1,3,1,2.767,23
"1196",17,25,1,1,1,3,0,4.396,24
"1197",17,56,1,1,1,4,0,0.627,25
"1198",17,53,1,1,1,3,1,5.599,26
"1199",17,75,1,1,1,4,1,1.471,27
"1200",17,2,1,1,1,4,1,0.847,28
"1201",17,41,1,1,1,5,1,0.761,29
"1202",17,64,1,1,1,5,1,2.137,30
"1203",17,35,1,1,1,4,1,2.098,31
"1204",17,18,1,1,1,4,1,4.623,32
"1205",17,8,1,1,1,2,1,1.692,33
"1206",17,60,1,1,1,4,0,2.802,34
"1207",17,80,1,1,1,3,0,1.306,35
"1208",17,19,1,1,1,4,1,2.953,36
"1209",17,69,1,1,1,4,1,4.839,37
"1210",17,46,1,1,1,4,1,6.941,38
"1211",17,24,1,1,1,4,1,1.447,39
"1212",17,16,1,1,1,4,1,2.405,40
"1213",17,22,1,1,1,4,0,0.594,41
"1214",17,57,1,1,1,4,1,2.16,42
"1215",17,73,1,1,1,4,1,3.292,43
"1216",17,17,1,1,1,2,0,2.236,44
"1217",17,48,1,1,1,4,1,1.033,45
"1218",17,54,1,1,1,4,1,2.216,46
"1219",17,68,1,1,1,3,1,6.506,47
"1220",17,65,1,1,1,5,1,1.632,48
"1221",17,52,1,1,1,4,0,1.161,49
"1222",17,4,1,1,1,4,0,1.263,50
"1223",17,44,1,1,1,4,1,2.176,51
"1224",17,58,1,1,1,3,0,1.866,52
"1225",17,34,1,1,1,4,1,5.69,53
"1226",17,39,1,1,1,4,1,0.815,54
"1227",17,77,1,1,1,2,1,1.632,55
"1228",17,33,1,1,1,5,1,2.03,56
"1229",17,5,1,1,1,5,1,0.907,57
"1230",17,49,1,1,1,3,1,5.281,58
"1231",17,37,1,1,1,4,0,6.205,59
"1232",17,20,1,1,1,4,1,1.571,60
"1233",17,71,1,1,1,3,0,4.588,61
"1234",17,45,1,1,1,5,1,3.09,62
"1235",17,21,1,1,1,4,0,4.229,63
"1236",17,76,1,1,1,4,1,2.375,64
"1237",17,84,1,1,1,4,1,0.717,65
"1238",17,12,1,1,1,4,0,1.5,66
"1239",17,83,1,1,1,3,0,1.55,67
"1240",17,72,1,1,1,4,0,1.076,68
"1241",17,30,1,1,1,5,1,1.164,69
"1242",17,81,1,1,1,3,0,8.239,70
"1243",17,40,1,1,1,4,1,1.023,71
"1244",17,67,1,1,1,5,1,0.776,72
"1245",17,82,1,1,1,4,0,2.587,73
"1246",17,61,1,1,1,3,0,3.325,74
"1247",17,63,1,1,1,5,0,2.134,75
"1248",17,29,1,1,1,5,1,0.789,76
"1249",17,31,1,1,1,3,1,1.953,77
"1250",17,14,1,1,1,5,0,2.724,78
"1251",17,62,1,1,1,4,1,2.643,79
"1252",17,11,1,1,1,4,1,5.77,80
"1253",17,78,1,1,1,3,1,1.019,81
"1254",17,9,1,1,1,4,0,1.875,82
"1255",17,27,1,1,1,4,0,2.137,83
"1256",17,32,1,1,1,4,1,1.979,84
"1257",17,79,1,1,1,3,1,5.304,85
"1258",17,26,1,1,1,4,1,1.666,86
"1259",17,59,1,1,1,5,0,1.828,87
"1260",17,6,1,1,1,4,1,22.523,88
"1261",18,45,1,1,1,5,1,1.913,5
"1262",18,9,1,1,1,4,1,0.974,6
"1263",18,47,1,1,1,2,1,1.248,7
"1264",18,67,1,1,1,4,1,2.132,8
"1265",18,34,1,1,1,4,0,8.582,9
"1266",18,65,1,1,1,1,1,7.661,10
"1267",18,80,1,1,1,2,1,23.489,11
"1268",18,16,1,1,1,2,0,1.917,12
"1269",18,69,1,1,1,4,1,2.932,13
"1270",18,75,1,1,1,4,1,1.912,14
"1271",18,3,1,1,1,1,0,7.399,15
"1272",18,40,1,1,1,5,0,2.102,16
"1273",18,37,1,1,1,4,1,8.36,17
"1274",18,58,1,1,1,2,1,2.506,18
"1275",18,49,1,1,1,4,1,0.637,19
"1276",18,23,1,1,1,5,1,3.932,20
"1277",18,11,1,1,1,5,1,0.849,21
"1278",18,57,1,1,1,3,0,2.324,22
"1279",18,68,1,1,1,4,1,1.541,23
"1280",18,76,1,1,1,2,0,0.928,24
"1281",18,31,1,1,1,3,0,1.339,25
"1282",18,39,1,1,1,6,1,0.84,26
"1283",18,74,1,1,1,3,0,1.782,27
"1284",18,24,1,1,1,4,1,0.678,28
"1285",18,70,1,1,1,2,1,0.713,29
"1286",18,71,1,1,1,5,1,8.623,30
"1287",18,14,1,1,1,3,1,0.763,31
"1288",18,43,1,1,1,2,0,4.797,32
"1289",18,73,1,1,1,4,0,3.195,33
"1290",18,61,1,1,1,4,1,2.021,34
"1291",18,8,1,1,1,3,0,6.857,35
"1292",18,20,1,1,1,2,1,5.234,36
"1293",18,83,1,1,1,2,1,0.765,37
"1294",18,36,1,1,1,4,0,1.768,38
"1295",18,79,1,1,1,2,1,10.419,39
"1296",18,54,1,1,1,3,0,5.469,40
"1297",18,41,1,1,1,5,0,1.481,41
"1298",18,5,1,1,1,2,0,2.822,42
"1299",18,63,1,1,1,5,1,29.012,43
"1300",18,62,1,1,1,2,0,4.197,44
"1301",18,25,1,1,1,3,1,4.644,45
"1302",18,48,1,1,1,4,0,3.535,46
"1303",18,15,1,1,1,5,0,0.482,47
"1304",18,53,1,1,1,5,1,1.471,48
"1305",18,50,1,1,1,1,1,1.199,49
"1306",18,81,1,1,1,4,1,1.412,50
"1307",18,35,1,1,1,2,1,1.497,51
"1308",18,29,1,1,1,3,1,1.276,52
"1309",18,59,1,1,1,3,1,0.827,53
"1310",18,56,1,1,1,3,1,0.748,54
"1311",18,28,1,1,1,4,0,0.493,55
"1312",18,30,1,1,1,4,1,1.188,56
"1313",18,52,1,1,1,2,1,1.558,57
"1314",18,26,1,1,1,2,0,1.161,58
"1315",18,13,1,1,1,3,1,2.714,59
"1316",18,27,1,1,1,5,1,1.903,60
"1317",18,10,1,1,1,6,1,1.077,61
"1318",18,66,1,1,1,2,0,5.475,62
"1319",18,64,1,1,1,2,0,12.394,63
"1320",18,1,1,1,1,3,1,1.505,64
"1321",18,33,1,1,1,4,0,1.229,65
"1322",18,42,1,1,1,4,1,1.576,66
"1323",18,82,1,1,1,3,1,0.629,67
"1324",18,77,1,1,1,2,1,2.033,68
"1325",18,72,1,1,1,5,1,0.906,69
"1326",18,46,1,1,1,1,1,1.124,70
"1327",18,38,1,1,1,5,0,0.74,71
"1328",18,51,1,1,1,1,1,1.353,72
"1329",18,7,1,1,1,5,1,1.651,73
"1330",18,19,1,1,1,4,1,1.23,74
"1331",18,22,1,1,1,4,1,0.759,75
"1332",18,32,1,1,1,2,1,0.846,76
"1333",18,6,1,1,1,3,0,1.884,77
"1334",18,21,1,1,1,5,1,3.151,78
"1335",18,18,1,1,1,2,0,2.408,79
"1336",18,78,1,1,1,2,1,0.715,80
"1337",18,4,1,1,1,4,1,1.398,81
"1338",18,60,1,1,1,1,1,6.222,82
"1339",18,55,1,1,1,3,1,2.203,83
"1340",18,12,1,1,1,1,1,1.031,84
"1341",18,17,1,1,1,4,1,6.481,85
"1342",18,84,1,1,1,5,0,0.654,86
"1343",18,2,1,1,1,4,1,3.425,87
"1344",18,44,1,1,1,2,0,2.773,88
"1345",20,26,1,1,1,6,1,1.478,5
"1346",20,80,1,1,1,4,0,6.944,6
"1347",20,67,1,1,1,3,1,15.331,7
"1348",20,25,1,1,1,1,0,12.887,8
"1349",20,41,1,1,1,4,1,9.564,9
"1350",20,64,1,1,1,6,1,1.972,10
"1351",20,4,1,1,1,5,0,1.633,11
"1352",20,43,1,1,1,4,1,1.887,12
"1353",20,66,1,1,1,3,1,11.042,13
"1354",20,76,1,1,1,2,1,4.905,14
"1355",20,3,1,1,1,3,1,5.613,15
"1356",20,46,1,1,1,4,1,2.481,16
"1357",20,1,1,1,1,4,0,15.682,17
"1358",20,51,1,1,1,2,0,6.611,18
"1359",20,36,1,1,1,4,1,1.884,19
"1360",20,24,1,1,1,4,1,3.404,20
"1361",20,78,1,1,1,4,1,13.075,21
"1362",20,60,1,1,1,3,0,7.021,22
"1363",20,74,1,1,1,3,1,0.783,23
"1364",20,45,1,1,1,3,1,3.344,24
"1365",20,8,1,1,1,3,1,5.585,25
"1366",20,5,1,1,1,6,1,1.838,26
"1367",20,33,1,1,1,5,1,5.852,27
"1368",20,52,1,1,1,4,0,5.079,28
"1369",20,7,1,1,1,3,0,7.255,29
"1370",20,65,1,1,1,5,1,1.223,30
"1371",20,6,1,1,1,4,1,2.255,31
"1372",20,42,1,1,1,3,1,4.127,32
"1373",20,54,1,1,1,3,1,3.016,33
"1374",20,29,1,1,1,4,1,13.894,34
"1375",20,49,1,1,1,5,1,0.592,35
"1376",20,27,1,1,1,3,0,11.348,36
"1377",20,55,1,1,1,4,1,20.59,37
"1378",20,40,1,1,1,3,1,3.778,38
"1379",20,44,1,1,1,3,1,9.922,39
"1380",20,28,1,1,1,3,1,8.243,40
"1381",20,32,1,1,1,4,1,5.093,41
"1382",20,2,1,1,1,5,1,2.333,42
"1383",20,53,1,1,1,4,1,5.296,43
"1384",20,14,1,1,1,3,0,0.581,44
"1385",20,35,1,1,1,4,1,22.567,45
"1386",20,34,1,1,1,4,1,8.356,46
"1387",20,59,1,1,1,3,0,4.58,47
"1388",20,15,1,1,1,3,1,6.933,48
"1389",20,73,1,1,1,4,1,3.461,49
"1390",20,56,1,1,1,3,0,2.261,50
"1391",20,71,1,1,1,3,0,8.458,51
"1392",20,70,1,1,1,3,0,2.671,52
"1393",20,72,1,1,1,2,0,1.724,53
"1394",20,47,1,1,1,5,1,5.027,54
"1395",20,48,1,1,1,3,1,2.863,55
"1396",20,23,1,1,1,3,0,6.08,56
"1397",20,20,1,1,1,4,1,10.016,57
"1398",20,10,1,1,1,5,1,1.745,58
"1399",20,31,1,1,1,3,1,2.826,59
"1400",20,30,1,1,1,5,1,2.126,60
"1401",20,11,1,1,1,5,1,1.755,61
"1402",20,62,1,1,1,5,1,3.512,62
"1403",20,13,1,1,1,4,1,3.687,63
"1404",20,16,1,1,1,3,1,8.101,64
"1405",20,21,1,1,1,3,0,5.045,65
"1406",20,77,1,1,1,5,1,1.108,66
"1407",20,75,1,1,1,5,1,2.605,67
"1408",20,17,1,1,1,3,0,4.298,68
"1409",20,9,1,1,1,3,0,2.875,69
"1410",20,82,1,1,1,3,0,2.346,70
"1411",20,19,1,1,1,4,1,0.78,71
"1412",20,22,1,1,1,3,0,3.256,72
"1413",20,37,1,1,1,4,0,17.191,73
"1414",20,57,1,1,1,4,1,1.241,74
"1415",20,79,1,1,1,3,1,3.215,75
"1416",20,39,1,1,1,5,1,4.141,76
"1417",20,18,1,1,1,6,1,1.892,77
"1418",20,69,1,1,1,3,1,1.761,78
"1419",20,12,1,1,1,2,0,4.264,79
"1420",20,68,1,1,1,3,1,5.782,80
"1421",20,61,1,1,1,2,0,3.209,81
"1422",20,58,1,1,1,4,0,7.417,82
"1423",20,84,1,1,1,4,1,5.901,83
"1424",20,81,1,1,1,3,0,14.779,84
"1425",20,63,1,1,1,3,0,8.219,85
"1426",20,50,1,1,1,3,1,3.519,86
"1427",20,83,1,1,1,3,0,3.771,87
"1428",20,38,1,1,1,4,1,0.914,88
"1429",21,59,1,1,1,5,1,2.602,5
"1430",21,15,1,1,1,3,0,10.373,6
"1431",21,69,1,1,1,5,1,1.698,7
"1432",21,16,1,1,1,2,0,0.8,8
"1433",21,83,1,1,1,2,1,2.778,9
"1434",21,7,1,1,1,2,1,0.521,10
"1435",21,78,1,1,1,4,1,7.222,11
"1436",21,3,1,1,1,4,0,0.701,12
"1437",21,53,1,1,1,4,1,2.033,13
"1438",21,82,1,1,1,5,1,5.98,14
"1439",21,60,1,1,1,5,1,7.396,15
"1440",21,22,1,1,1,3,1,0.82,16
"1441",21,21,1,1,1,4,1,8.07,17
"1442",21,39,1,1,1,4,1,4.938,18
"1443",21,17,1,1,1,4,1,1.365,19
"1444",21,32,1,1,1,5,1,0.673,20
"1445",21,6,1,1,1,3,0,2.926,21
"1446",21,14,1,1,1,5,1,0.807,22
"1447",21,24,1,1,1,3,1,3.531,23
"1448",21,8,1,1,1,4,0,6.598,24
"1449",21,43,1,1,1,3,0,2.594,25
"1450",21,31,1,1,1,4,0,1.81,26
"1451",21,68,1,1,1,5,1,4.85,27
"1452",21,64,1,1,1,6,0,23.341,28
"1453",21,56,1,1,1,4,1,5.627,29
"1454",21,57,1,1,1,3,0,1.205,30
"1455",21,52,1,1,1,4,1,1.292,31
"1456",21,62,1,1,1,5,0,2.634,32
"1457",21,13,1,1,1,2,1,5.924,33
"1458",21,26,1,1,1,4,0,2.36,34
"1459",21,4,1,1,1,3,1,5.263,35
"1460",21,72,1,1,1,4,1,2.151,36
"1461",21,49,1,1,1,3,1,3.316,37
"1462",21,50,1,1,1,4,1,0.59,38
"1463",21,77,1,1,1,4,1,0.478,39
"1464",21,9,1,1,1,3,1,6.556,40
"1465",21,42,1,1,1,5,1,1.486,41
"1466",21,33,1,1,1,4,0,0.932,42
"1467",21,35,1,1,1,3,1,4,43
"1468",21,10,1,1,1,5,1,0.55,44
"1469",21,54,1,1,1,3,0,2.476,45
"1470",21,5,1,1,1,4,0,6.874,46
"1471",21,55,1,1,1,4,1,1.332,47
"1472",21,38,1,1,1,4,0,4.797,48
"1473",21,20,1,1,1,5,1,2.747,49
"1474",21,12,1,1,1,2,1,0.824,50
"1475",21,37,1,1,1,4,1,7.165,51
"1476",21,40,1,1,1,5,0,1.081,52
"1477",21,65,1,1,1,4,1,9.849,53
"1478",21,81,1,1,1,3,1,1.184,54
"1479",21,47,1,1,1,5,1,0.605,55
"1480",21,71,1,1,1,2,1,6.233,56
"1481",21,27,1,1,1,4,1,0.855,57
"1482",21,48,1,1,1,4,0,0.948,58
"1483",21,45,1,1,1,5,1,0.547,59
"1484",21,34,1,1,1,4,0,5.758,60
"1485",21,11,1,1,1,2,1,7.778,61
"1486",21,36,1,1,1,3,0,1.884,62
"1487",21,23,1,1,1,3,1,10.392,63
"1488",21,30,1,1,1,3,1,0.802,64
"1489",21,29,1,1,1,4,1,1.741,65
"1490",21,51,1,1,1,6,1,13.573,66
"1491",21,73,1,1,1,4,0,0.515,67
"1492",21,44,1,1,1,2,0,2.791,68
"1493",21,67,1,1,1,2,1,1.079,69
"1494",21,25,1,1,1,3,1,1.218,70
"1495",21,63,1,1,1,4,1,3.372,71
"1496",21,2,1,1,1,4,1,1.526,72
"1497",21,18,1,1,1,4,0,4.85,73
"1498",21,84,1,1,1,3,0,1.995,74
"1499",21,41,1,1,1,4,0,1.91,75
"1500",21,28,1,1,1,4,0,0.864,76
"1501",21,46,1,1,1,4,1,2.506,77
"1502",21,58,1,1,1,4,1,10.371,78
"1503",21,1,1,1,1,3,1,0.713,79
"1504",21,79,1,1,1,4,1,0.642,80
"1505",21,61,1,1,1,3,1,2.262,81
"1506",21,70,1,1,1,4,1,0.421,82
"1507",21,19,1,1,1,3,1,0.743,83
"1508",21,66,1,1,1,4,0,2.735,84
"1509",21,74,1,1,1,4,0,4.747,85
"1510",21,75,1,1,1,3,1,0.497,86
"1511",21,80,1,1,1,2,1,0.882,87
"1512",21,76,1,1,1,4,0,0.609,88
"1513",22,1,1,1,1,3,0,1.672,5
"1514",22,67,1,1,1,4,1,3.749,6
"1515",22,61,1,1,1,3,0,0.946,7
"1516",22,8,1,1,1,5,1,0.828,8
"1517",22,71,1,1,1,4,0,0.534,9
"1518",22,79,1,1,1,4,1,0.741,10
"1519",22,49,1,1,1,4,1,0.828,11
"1520",22,42,1,1,1,5,1,1.806,12
"1521",22,68,1,1,1,5,1,0.785,13
"1522",22,54,1,1,1,4,1,0.709,14
"1523",22,20,1,1,1,4,1,0.975,15
"1524",22,55,1,1,1,4,1,1.265,16
"1525",22,65,1,1,1,5,1,2.961,17
"1526",22,50,1,1,1,2,1,0.72,18
"1527",22,16,1,1,1,3,1,1.323,19
"1528",22,52,1,1,1,3,0,1.073,20
"1529",22,30,1,1,1,4,1,0.523,21
"1530",22,81,1,1,1,5,0,0.859,22
"1531",22,43,1,1,1,2,1,0.784,23
"1532",22,3,1,1,1,2,1,1.069,24
"1533",22,82,1,1,1,1,0,2.85,25
"1534",22,5,1,1,1,5,1,0.817,26
"1535",22,48,1,1,1,4,1,1.769,27
"1536",22,69,1,1,1,3,1,1.352,28
"1537",22,7,1,1,1,3,0,5.104,29
"1538",22,22,1,1,1,2,0,1.181,30
"1539",22,60,1,1,1,2,0,8.046,31
"1540",22,29,1,1,1,4,1,0.621,32
"1541",22,12,1,1,1,2,0,0.701,33
"1542",22,46,1,1,1,3,1,0.517,34
"1543",22,59,1,1,1,3,0,0.776,35
"1544",22,58,1,1,1,4,0,2.376,36
"1545",22,26,1,1,1,3,1,0.759,37
"1546",22,32,1,1,1,3,1,1.191,38
"1547",22,23,1,1,1,2,0,5.243,39
"1548",22,28,1,1,1,4,1,0.833,40
"1549",22,77,1,1,1,3,1,2.096,41
"1550",22,80,1,1,1,2,0,1.703,42
"1551",22,24,1,1,1,5,1,2.485,43
"1552",22,21,1,1,1,4,0,0.77,44
"1553",22,33,1,1,1,4,1,1.474,45
"1554",22,53,1,1,1,4,1,2.451,46
"1555",22,27,1,1,1,3,0,2.504,47
"1556",22,84,1,1,1,2,1,1.355,48
"1557",22,51,1,1,1,2,0,2.464,49
"1558",22,18,1,1,1,5,1,1.059,50
"1559",22,78,1,1,1,3,1,0.872,51
"1560",22,44,1,1,1,3,1,1.056,52
"1561",22,63,1,1,1,1,0,7.043,53
"1562",22,70,1,1,1,3,0,0.933,54
"1563",22,31,1,1,1,4,1,0.455,55
"1564",22,19,1,1,1,4,1,0.559,56
"1565",22,72,1,1,1,3,0,0.98,57
"1566",22,35,1,1,1,3,1,1.138,58
"1567",22,76,1,1,1,3,1,0.592,59
"1568",22,38,1,1,1,4,1,7.42,60
"1569",22,10,1,1,1,3,1,0.783,61
"1570",22,13,1,1,1,4,1,0.875,62
"1571",22,36,1,1,1,3,1,1.057,63
"1572",22,17,1,1,1,4,0,0.922,64
"1573",22,37,1,1,1,4,0,2.073,65
"1574",22,4,1,1,1,4,0,2.267,66
"1575",22,25,1,1,1,3,0,3.271,67
"1576",22,75,1,1,1,3,1,2.602,68
"1577",22,14,1,1,1,4,0,0.414,69
"1578",22,56,1,1,1,3,0,0.862,70
"1579",22,73,1,1,1,3,1,1.444,71
"1580",22,47,1,1,1,2,1,0.898,72
"1581",22,34,1,1,1,3,1,26.442,73
"1582",22,45,1,1,1,4,1,0.954,74
"1583",22,15,1,1,1,5,1,0.565,75
"1584",22,39,1,1,1,3,1,0.876,76
"1585",22,2,1,1,1,5,1,0.787,77
"1586",22,62,1,1,1,4,1,0.69,78
"1587",22,6,1,1,1,3,1,2.841,79
"1588",22,83,1,1,1,3,0,1.936,80
"1589",22,74,1,1,1,3,1,1.886,81
"1590",22,11,1,1,1,4,1,0.551,82
"1591",22,66,1,1,1,4,1,2.158,83
"1592",22,40,1,1,1,3,1,0.564,84
"1593",22,64,1,1,1,3,1,3.423,85
"1594",22,41,1,1,1,3,1,1.384,86
"1595",22,57,1,1,1,4,1,0.783,87
"1596",22,9,1,1,1,4,0,0.69,88
"1597",23,4,1,1,1,4,0,4.781,5
"1598",23,63,1,1,1,4,0,4.935,6
"1599",23,1,1,1,1,3,0,5.321,7
"1600",23,64,1,1,1,4,1,2.924,8
"1601",23,72,1,1,1,3,0,4.705,9
"1602",23,24,1,1,1,5,1,1.286,10
"1603",23,83,1,1,1,3,0,2.562,11
"1604",23,22,1,1,1,4,0,3.626,12
"1605",23,52,1,1,1,4,0,3.642,13
"1606",23,5,1,1,1,5,1,2.27,14
"1607",23,81,1,1,1,4,0,3.417,15
"1608",23,82,1,1,1,3,0,2.677,16
"1609",23,48,1,1,1,5,1,1.51,17
"1610",23,20,1,1,1,5,1,3.318,18
"1611",23,42,1,1,1,4,1,2.559,19
"1612",23,50,1,1,1,3,1,3.148,20
"1613",23,12,1,1,1,2,0,6.414,21
"1614",23,9,1,1,1,2,0,2.591,22
"1615",23,75,1,1,1,5,1,1.467,23
"1616",23,78,1,1,1,5,1,2.023,24
"1617",23,39,1,1,1,2,1,7.863,25
"1618",23,47,1,1,1,4,1,1.394,26
"1619",23,38,1,1,1,4,1,4.244,27
"1620",23,19,1,1,1,6,1,1.756,28
"1621",23,18,1,1,1,3,1,1.475,29
"1622",23,2,1,1,1,5,1,0.887,30
"1623",23,6,1,1,1,5,1,2.223,31
"1624",23,3,1,1,1,5,1,2.155,32
"1625",23,54,1,1,1,3,1,2.192,33
"1626",23,29,1,1,1,4,1,2.894,34
"1627",23,69,1,1,1,5,1,4.266,35
"1628",23,79,1,1,1,3,1,0.982,36
"1629",23,67,1,1,1,3,1,2.666,37
"1630",23,25,1,1,1,2,0,1.929,38
"1631",23,73,1,1,1,3,1,2.746,39
"1632",23,46,1,1,1,2,1,0.847,40
"1633",23,61,1,1,1,3,0,1.498,41
"1634",23,34,1,1,1,4,1,2.143,42
"1635",23,36,1,1,1,4,1,2.135,43
"1636",23,31,1,1,1,4,1,5.611,44
"1637",23,32,1,1,1,5,1,0.875,45
"1638",23,62,1,1,1,4,1,3.845,46
"1639",23,8,1,1,1,6,1,0.795,47
"1640",23,60,1,1,1,5,0,4.689,48
"1641",23,23,1,1,1,4,0,1.229,49
"1642",23,68,1,1,1,5,1,1.555,50
"1643",23,21,1,1,1,3,0,1.409,51
"1644",23,28,1,1,1,3,1,1.524,52
"1645",23,30,1,1,1,5,1,0.813,53
"1646",23,51,1,1,1,5,0,2.906,54
"1647",23,16,1,1,1,5,1,1.265,55
"1648",23,49,1,1,1,3,1,2.167,56
"1649",23,45,1,1,1,2,1,0.887,57
"1650",23,70,1,1,1,2,0,2.576,58
"1651",23,15,1,1,1,5,1,0.809,59
"1652",23,80,1,1,1,5,0,1.405,60
"1653",23,77,1,1,1,3,1,0.788,61
"1654",23,7,1,1,1,3,0,3.612,62
"1655",23,44,1,1,1,5,1,3.7,63
"1656",23,41,1,1,1,4,1,0.84,64
"1657",23,65,1,1,1,5,1,7.104,65
"1658",23,58,1,1,1,3,0,12.809,66
"1659",23,59,1,1,1,3,0,0.644,67
"1660",23,76,1,1,1,3,1,3.078,68
"1661",23,37,1,1,1,5,0,3.773,69
"1662",23,14,1,1,1,4,0,2.839,70
"1663",23,33,1,1,1,4,1,0.642,71
"1664",23,26,1,1,1,2,1,1.861,72
"1665",23,35,1,1,1,5,1,1.568,73
"1666",23,71,1,1,1,4,0,5.155,74
"1667",23,17,1,1,1,3,0,4.039,75
"1668",23,10,1,1,1,3,1,4.066,76
"1669",23,57,1,1,1,5,1,1.252,77
"1670",23,74,1,1,1,4,1,2.022,78
"1671",23,56,1,1,1,3,0,1.028,79
"1672",23,66,1,1,1,5,1,2.655,80
"1673",23,27,1,1,1,4,0,2.982,81
"1674",23,40,1,1,1,5,1,0.455,82
"1675",23,43,1,1,1,3,1,2.769,83
"1676",23,53,1,1,1,5,1,0.968,84
"1677",23,13,1,1,1,2,1,0.726,85
"1678",23,11,1,1,1,3,1,1.454,86
"1679",23,84,1,1,1,5,1,1.805,87
"1680",23,55,1,1,1,4,1,3.082,88
"1681",24,1,1,1,1,4,0,6.248,5
"1682",24,37,1,1,1,5,0,1.179,6
"1683",24,8,1,1,1,5,1,1.744,7
"1684",24,55,1,1,1,3,1,3.786,8
"1685",24,58,1,1,1,2,0,3.252,9
"1686",24,25,1,1,1,4,0,5.958,10
"1687",24,42,1,1,1,5,1,1.868,11
"1688",24,81,1,1,1,4,0,4.547,12
"1689",24,68,1,1,1,5,1,1.066,13
"1690",24,12,1,1,1,1,0,1.364,14
"1691",24,40,1,1,1,4,1,5.282,15
"1692",24,14,1,1,1,2,0,2.184,16
"1693",24,60,1,1,1,5,0,4.421,17
"1694",24,66,1,1,1,4,1,7.003,18
"1695",24,27,1,1,1,3,0,7.127,19
"1696",24,11,1,1,1,4,1,0.954,20
"1697",24,56,1,1,1,4,0,7.394,21
"1698",24,72,1,1,1,6,0,6.013,22
"1699",24,54,1,1,1,2,1,6.5,23
"1700",24,22,1,1,1,4,0,1.011,24
"1701",24,53,1,1,1,5,1,2.314,25
"1702",24,51,1,1,1,6,0,1.165,26
"1703",24,82,1,1,1,3,0,3.661,27
"1704",24,65,1,1,1,6,1,1.682,28
"1705",24,16,1,1,1,5,1,0.714,29
"1706",24,32,1,1,1,5,1,0.619,30
"1707",24,24,1,1,1,4,1,1.03,31
"1708",24,77,1,1,1,1,1,3.562,32
"1709",24,4,1,1,1,3,0,0.987,33
"1710",24,44,1,1,1,2,1,6.635,34
"1711",24,63,1,1,1,4,0,5.394,35
"1712",24,48,1,1,1,5,1,1.137,36
"1713",24,52,1,1,1,5,0,4.945,37
"1714",24,6,1,1,1,3,1,2.243,38
"1715",24,18,1,1,1,2,1,0.861,39
"1716",24,76,1,1,1,2,1,2.159,40
"1717",24,17,1,1,1,4,0,5.291,41
"1718",24,33,1,1,1,4,1,2.432,42
"1719",24,43,1,1,1,4,1,4.539,43
"1720",24,49,1,1,1,4,1,2.266,44
"1721",24,78,1,1,1,4,1,3.018,45
"1722",24,13,1,1,1,2,1,2.224,46
"1723",24,2,1,1,1,3,1,4.183,47
"1724",24,35,1,1,1,2,1,0.778,48
"1725",24,31,1,1,1,4,1,0.886,49
"1726",24,36,1,1,1,4,1,0.933,50
"1727",24,3,1,1,1,6,1,1.663,51
"1728",24,73,1,1,1,3,1,0.911,52
"1729",24,84,1,1,1,4,1,1.033,53
"1730",24,64,1,1,1,5,1,2.491,54
"1731",24,41,1,1,1,5,1,1.762,55
"1732",24,26,1,1,1,3,1,0.785,56
"1733",24,5,1,1,1,5,1,0.521,57
"1734",24,23,1,1,1,5,0,1.265,58
"1735",24,28,1,1,1,4,1,0.513,59
"1736",24,19,1,1,1,4,1,1.15,60
"1737",24,61,1,1,1,3,0,1.879,61
"1738",24,67,1,1,1,2,1,1.424,62
"1739",24,46,1,1,1,4,1,0.7,63
"1740",24,69,1,1,1,4,1,3.71,64
"1741",24,59,1,1,1,3,0,0.425,65
"1742",24,50,1,1,1,4,1,0.818,66
"1743",24,10,1,1,1,2,1,0.733,67
"1744",24,74,1,1,1,3,1,0.753,68
"1745",24,47,1,1,1,4,1,0.508,69
"1746",24,15,1,1,1,5,1,1.795,70
"1747",24,62,1,1,1,4,1,0.491,71
"1748",24,80,1,1,1,1,0,2.048,72
"1749",24,71,1,1,1,5,0,1.503,73
"1750",24,30,1,1,1,5,1,0.805,74
"1751",24,83,1,1,1,3,0,0.535,75
"1752",24,75,1,1,1,2,1,0.723,76
"1753",24,70,1,1,1,3,0,1.257,77
"1754",24,7,1,1,1,3,0,0.988,78
"1755",24,9,1,1,1,3,0,0.567,79
"1756",24,45,1,1,1,5,1,0.635,80
"1757",24,29,1,1,1,5,1,0.752,81
"1758",24,34,1,1,1,5,1,1.029,82
"1759",24,57,1,1,1,3,1,1.838,83
"1760",24,38,1,1,1,4,1,0.576,84
"1761",24,79,1,1,1,3,1,0.57,85
"1762",24,39,1,1,1,1,1,0.719,86
"1763",24,20,1,1,1,4,1,0.576,87
"1764",24,21,1,1,1,4,0,1.564,88
"1765",25,42,1,1,1,4,1,4.748,5
"1766",25,39,1,1,1,5,1,4.326,6
"1767",25,18,1,1,1,5,0,6.249,7
"1768",25,84,1,1,1,5,0,1.827,8
"1769",25,63,1,1,1,3,1,4.665,9
"1770",25,75,1,1,1,3,1,3.299,10
"1771",25,6,1,1,1,3,0,3.913,11
"1772",25,44,1,1,1,5,0,4.09,12
"1773",25,73,1,1,1,2,0,4.311,13
"1774",25,27,1,1,1,5,1,2.302,14
"1775",25,36,1,1,1,4,0,4.675,15
"1776",25,15,1,1,1,2,0,6.159,16
"1777",25,2,1,1,1,5,1,1.082,17
"1778",25,19,1,1,1,5,1,1.886,18
"1779",25,3,1,1,1,5,0,7.767,19
"1780",25,30,1,1,1,5,1,2.419,20
"1781",25,77,1,1,1,4,1,2.212,21
"1782",25,31,1,1,1,3,0,4.911,22
"1783",25,20,1,1,1,4,1,5.345,23
"1784",25,33,1,1,1,2,0,6.379,24
"1785",25,53,1,1,1,4,1,8.924,25
"1786",25,22,1,1,1,4,1,1.312,26
"1787",25,70,1,1,1,5,1,4.075,27
"1788",25,9,1,1,1,3,1,3.152,28
"1789",25,54,1,1,1,3,0,2.377,29
"1790",25,45,1,1,1,5,1,1.129,30
"1791",25,8,1,1,1,4,0,2.753,31
"1792",25,60,1,1,1,5,1,7.933,32
"1793",25,51,1,1,1,5,1,3.978,33
"1794",25,82,1,1,1,2,1,4.197,34
"1795",25,78,1,1,1,2,1,7.258,35
"1796",25,66,1,1,1,3,0,10.63,36
"1797",25,76,1,1,1,2,0,2.636,37
"1798",25,21,1,1,1,3,1,5.66,38
"1799",25,12,1,1,1,2,1,8.273,39
"1800",25,49,1,1,1,5,1,1.587,40
"1801",25,64,1,1,1,3,0,11.841,41
"1802",25,28,1,1,1,4,0,3.294,42
"1803",25,40,1,1,1,3,0,2.918,43
"1804",25,72,1,1,1,2,1,1.653,44
"1805",25,43,1,1,1,3,0,2.703,45
"1806",25,61,1,1,1,2,1,2.482,46
"1807",25,69,1,1,1,4,1,4.129,47
"1808",25,11,1,1,1,5,1,1.25,48
"1809",25,57,1,1,1,4,0,3.359,49
"1810",25,4,1,1,1,4,1,2.797,50
"1811",25,67,1,1,1,2,1,7.021,51
"1812",25,26,1,1,1,5,0,5.931,52
"1813",25,48,1,1,1,4,0,1.074,53
"1814",25,17,1,1,1,3,1,4.789,54
"1815",25,38,1,1,1,2,0,4.883,55
"1816",25,14,1,1,1,4,1,3.519,56
"1817",25,47,1,1,1,3,1,3.932,57
"1818",25,35,1,1,1,2,1,3.242,58
"1819",25,59,1,1,1,3,1,0.756,59
"1820",25,46,1,1,1,2,1,2.931,60
"1821",25,29,1,1,1,3,1,2.204,61
"1822",25,52,1,1,1,3,1,1.155,62
"1823",25,13,1,1,1,4,1,6.815,63
"1824",25,7,1,1,1,4,1,5.839,64
"1825",25,32,1,1,1,4,1,2.202,65
"1826",25,71,1,1,1,3,1,2.643,66
"1827",25,5,1,1,1,2,0,3.177,67
"1828",25,50,1,1,1,2,1,2.357,68
"1829",25,55,1,1,1,4,1,2.086,69
"1830",25,80,1,1,1,3,1,4.475,70
"1831",25,10,1,1,1,3,1,2.198,71
"1832",25,81,1,1,1,4,1,2.09,72
"1833",25,23,1,1,1,5,1,2.504,73
"1834",25,79,1,1,1,4,1,1.666,74
"1835",25,25,1,1,1,2,1,2.254,75
"1836",25,74,1,1,1,3,0,1.99,76
"1837",25,58,1,1,1,3,1,4.937,77
"1838",25,34,1,1,1,3,0,1.458,78
"1839",25,1,1,1,1,3,1,2.229,79
"1840",25,68,1,1,1,4,1,1.511,80
"1841",25,62,1,1,1,3,0,6.436,81
"1842",25,37,1,1,1,3,1,2.481,82
"1843",25,65,1,1,1,5,1,1.321,83
"1844",25,56,1,1,1,4,1,0.946,84
"1845",25,24,1,1,1,3,1,2.515,85
"1846",25,83,1,1,1,2,1,1.265,86
"1847",25,41,1,1,1,3,0,3.751,87
"1848",25,16,1,1,1,2,0,2.845,88
"1849",26,17,1,1,1,5,1,2.844,5
"1850",26,46,1,1,1,3,1,3.74,6
"1851",26,47,1,1,1,5,1,2.386,7
"1852",26,63,1,1,1,5,1,14.936,8
"1853",26,55,1,1,1,4,1,1.102,9
"1854",26,76,1,1,1,4,0,7.547,10
"1855",26,1,1,1,1,4,1,2.525,11
"1856",26,75,1,1,1,4,1,1.438,12
"1857",26,62,1,1,1,2,0,2.029,13
"1858",26,72,1,1,1,3,1,4.067,14
"1859",26,4,1,1,1,4,1,6.422,15
"1860",26,20,1,1,1,5,1,1.729,16
"1861",26,42,1,1,1,5,1,2.578,17
"1862",26,50,1,1,1,5,1,1.842,18
"1863",26,58,1,1,1,3,1,4.526,19
"1864",26,70,1,1,1,5,1,1.388,20
"1865",26,25,1,1,1,5,1,1.063,21
"1866",26,29,1,1,1,4,1,1.347,22
"1867",26,9,1,1,1,4,1,1.033,23
"1868",26,5,1,1,1,2,0,5.358,24
"1869",26,77,1,1,1,4,1,3.397,25
"1870",26,48,1,1,1,4,0,5.546,26
"1871",26,36,1,1,1,4,0,5.368,27
"1872",26,30,1,1,1,4,1,0.854,28
"1873",26,79,1,1,1,3,1,2.236,29
"1874",26,60,1,1,1,4,1,1.026,30
"1875",26,32,1,1,1,5,1,1.082,31
"1876",26,80,1,1,1,4,1,1.448,32
"1877",26,61,1,1,1,4,1,2.497,33
"1878",26,18,1,1,1,4,0,3.12,34
"1879",26,57,1,1,1,2,0,5.352,35
"1880",26,37,1,1,1,3,1,3.108,36
"1881",26,35,1,1,1,3,1,9.484,37
"1882",26,45,1,1,1,2,1,7.571,38
"1883",26,65,1,1,1,4,1,3.175,39
"1884",26,44,1,1,1,2,0,0.992,40
"1885",26,28,1,1,1,3,0,2.093,41
"1886",26,81,1,1,1,4,1,1.246,42
"1887",26,52,1,1,1,4,1,7.845,43
"1888",26,12,1,1,1,5,1,1.566,44
"1889",26,11,1,1,1,4,1,1.376,45
"1890",26,39,1,1,1,3,1,2.951,46
"1891",26,84,1,1,1,4,0,2.978,47
"1892",26,83,1,1,1,4,1,1.674,48
"1893",26,2,1,1,1,4,1,1.35,49
"1894",26,71,1,1,1,4,1,2.139,50
"1895",26,41,1,1,1,3,0,9.151,51
"1896",26,21,1,1,1,2,1,3.062,52
"1897",26,82,1,1,1,5,1,2.057,53
"1898",26,23,1,1,1,5,1,2.828,54
"1899",26,49,1,1,1,5,1,1.49,55
"1900",26,69,1,1,1,5,1,1.221,56
"1901",26,16,1,1,1,4,0,0.916,57
"1902",26,66,1,1,1,4,0,2.054,58
"1903",26,33,1,1,1,5,0,2.309,59
"1904",26,26,1,1,1,2,0,3.727,60
"1905",26,8,1,1,1,4,0,1.041,61
"1906",26,27,1,1,1,4,1,1.093,62
"1907",26,43,1,1,1,6,0,1.234,63
"1908",26,53,1,1,1,4,1,0.864,64
"1909",26,54,1,1,1,3,0,0.696,65
"1910",26,6,1,1,1,3,0,2.527,66
"1911",26,68,1,1,1,3,1,0.967,67
"1912",26,51,1,1,1,5,1,0.957,68
"1913",26,64,1,1,1,5,0,3.718,69
"1914",26,15,1,1,1,2,0,2.454,70
"1915",26,14,1,1,1,5,1,0.83,71
"1916",26,38,1,1,1,4,0,1.179,72
"1917",26,34,1,1,1,3,0,1.861,73
"1918",26,24,1,1,1,4,1,1.894,74
"1919",26,10,1,1,1,4,1,2.462,75
"1920",26,73,1,1,1,2,0,0.917,76
"1921",26,19,1,1,1,5,1,0.723,77
"1922",26,59,1,1,1,5,1,0.749,78
"1923",26,74,1,1,1,4,0,1.047,79
"1924",26,67,1,1,1,4,1,0.866,80
"1925",26,78,1,1,1,5,1,3.03,81
"1926",26,3,1,1,1,4,0,3.896,82
"1927",26,13,1,1,1,4,1,2.428,83
"1928",26,40,1,1,1,4,0,1.142,84
"1929",26,7,1,1,1,3,1,3.514,85
"1930",26,56,1,1,1,4,1,2.542,86
"1931",26,31,1,1,1,3,0,1.894,87
"1932",26,22,1,1,1,4,1,0.794,88
"1933",27,12,1,1,1,3,1,5.574,5
"1934",27,67,1,1,1,4,0,10.436,6
"1935",27,41,1,1,1,5,1,1.406,7
"1936",27,57,1,1,1,5,1,5.896,8
"1937",27,24,1,1,1,4,0,3.744,9
"1938",27,40,1,1,1,4,1,2.093,10
"1939",27,45,1,1,1,5,0,0.83,11
"1940",27,75,1,1,1,4,0,2.259,12
"1941",27,44,1,1,1,5,1,0.784,13
"1942",27,34,1,1,1,5,1,4.124,14
"1943",27,7,1,1,1,4,1,6.057,15
"1944",27,15,1,1,1,3,1,5.98,16
"1945",27,71,1,1,1,4,1,2.811,17
"1946",27,43,1,1,1,3,1,6.155,18
"1947",27,60,1,1,1,3,1,22.873,19
"1948",27,31,1,1,1,4,1,4.915,20
"1949",27,63,1,1,1,6,1,1.186,21
"1950",27,72,1,1,1,4,1,1.331,22
"1951",27,73,1,1,1,4,1,1.684,23
"1952",27,46,1,1,1,4,0,1.26,24
"1953",27,4,1,1,1,5,1,2.815,25
"1954",27,22,1,1,1,5,1,1.109,26
"1955",27,11,1,1,1,5,0,2.132,27
"1956",27,26,1,1,1,4,1,1.149,28
"1957",27,79,1,1,1,4,0,4.275,29
"1958",27,70,1,1,1,3,1,1.271,30
"1959",27,39,1,1,1,1,0,2.06,31
"1960",27,68,1,1,1,5,0,4.999,32
"1961",27,65,1,1,1,3,0,3.192,33
"1962",27,66,1,1,1,4,1,10.441,34
"1963",27,64,1,1,1,5,1,4.236,35
"1964",27,23,1,1,1,5,1,0.849,36
"1965",27,82,1,1,1,5,1,0.88,37
"1966",27,52,1,1,1,6,1,1.193,38
"1967",27,29,1,1,1,3,0,2.83,39
"1968",27,35,1,1,1,3,0,0.794,40
"1969",27,2,1,1,1,4,0,4.26,41
"1970",27,37,1,1,1,4,1,4.181,42
"1971",27,30,1,1,1,5,0,1.364,43
"1972",27,18,1,1,1,2,1,0.952,44
"1973",27,6,1,1,1,5,1,6.095,45
"1974",27,74,1,1,1,2,1,1.899,46
"1975",27,58,1,1,1,5,1,5.265,47
"1976",27,47,1,1,1,5,0,3.373,48
"1977",27,38,1,1,1,3,1,3.078,49
"1978",27,17,1,1,1,4,1,1.586,50
"1979",27,10,1,1,1,5,0,1.302,51
"1980",27,51,1,1,1,6,1,1.946,52
"1981",27,21,1,1,1,1,1,3.157,53
"1982",27,8,1,1,1,4,1,3.306,54
"1983",27,76,1,1,1,3,1,4.488,55
"1984",27,84,1,1,1,5,1,3.116,56
"1985",27,81,1,1,1,5,1,1.038,57
"1986",27,19,1,1,1,5,0,0.984,58
"1987",27,80,1,1,1,4,1,3.841,59
"1988",27,32,1,1,1,4,0,7.84,60
"1989",27,50,1,1,1,5,0,2.53,61
"1990",27,20,1,1,1,4,0,7.034,62
"1991",27,56,1,1,1,3,1,10.745,63
"1992",27,9,1,1,1,4,1,3.877,64
"1993",27,61,1,1,1,3,1,2.011,65
"1994",27,16,1,1,1,3,1,3.068,66
"1995",27,33,1,1,1,3,1,14.008,67
"1996",27,53,1,1,1,5,0,14.162,68
"1997",27,62,1,1,1,3,1,10.759,69
"1998",27,83,1,1,1,4,1,1.915,70
"1999",27,54,1,1,1,4,1,1.876,71
"2000",27,59,1,1,1,5,1,2.503,72
"2001",27,78,1,1,1,4,0,0.906,73
"2002",27,55,1,1,1,5,0,3.632,74
"2003",27,25,1,1,1,3,1,3.145,75
"2004",27,27,1,1,1,5,1,2.084,76
"2005",27,5,1,1,1,5,1,5.674,77
"2006",27,3,1,1,1,2,1,3.467,78
"2007",27,36,1,1,1,3,1,3.989,79
"2008",27,1,1,1,1,2,1,2.658,80
"2009",27,69,1,1,1,5,0,9.696,81
"2010",27,14,1,1,1,5,1,2.778,82
"2011",27,28,1,1,1,4,1,5.298,83
"2012",27,42,1,1,1,5,0,3.524,84
"2013",27,49,1,1,1,4,0,2.145,85
"2014",27,48,1,1,1,3,1,1.088,86
"2015",27,77,1,1,1,2,0,4.411,87
"2016",27,13,1,1,1,2,0,19.512,88
"2017",28,70,1,1,1,5,1,3.51,5
"2018",28,31,1,1,1,5,1,1.676,6
"2019",28,47,1,1,1,2,0,9.168,7
"2020",28,21,1,1,1,4,1,2.677,8
"2021",28,56,1,1,1,4,1,5.945,9
"2022",28,58,1,1,1,4,1,6.328,10
"2023",28,9,1,1,1,3,1,8.018,11
"2024",28,52,1,1,1,5,1,7.618,12
"2025",28,12,1,1,1,5,1,4.144,13
"2026",28,32,1,1,1,3,0,3.355,14
"2027",28,19,1,1,1,3,0,3.908,15
"2028",28,65,1,1,1,1,0,0.904,16
"2029",28,67,1,1,1,4,0,5.714,17
"2030",28,68,1,1,1,5,0,1.591,18
"2031",28,46,1,1,1,4,0,0.537,19
"2032",28,15,1,1,1,1,1,2.539,20
"2033",28,22,1,1,1,3,1,0.98,21
"2034",28,81,1,1,1,4,1,10.681,22
"2035",28,14,1,1,1,4,1,3.54,23
"2036",28,10,1,1,1,2,0,1.822,24
"2037",28,25,1,1,1,3,1,3.248,25
"2038",28,72,1,1,1,1,1,0.805,26
"2039",28,66,1,1,1,5,1,2.61,27
"2040",28,5,1,1,1,6,1,1.629,28
"2041",28,26,1,1,1,5,1,1.842,29
"2042",28,48,1,1,1,4,1,1.765,30
"2043",28,77,1,1,1,4,0,1.957,31
"2044",28,79,1,1,1,4,0,5.524,32
"2045",28,42,1,1,1,3,0,1.288,33
"2046",28,75,1,1,1,2,0,1.213,34
"2047",28,57,1,1,1,1,1,1.041,35
"2048",28,80,1,1,1,4,1,4.159,36
"2049",28,23,1,1,1,6,1,1.207,37
"2050",28,59,1,1,1,4,1,0.744,38
"2051",28,73,1,1,1,3,1,2.506,39
"2052",28,6,1,1,1,5,1,1.617,40
"2053",28,76,1,1,1,2,1,2.343,41
"2054",28,18,1,1,1,4,1,1.264,42
"2055",28,43,1,1,1,3,1,0.79,43
"2056",28,1,1,1,1,4,1,5.703,44
"2057",28,84,1,1,1,3,1,0.481,45
"2058",28,36,1,1,1,2,1,6.695,46
"2059",28,3,1,1,1,2,1,0.776,47
"2060",28,64,1,1,1,3,1,2.899,48
"2061",28,45,1,1,1,3,0,2.683,49
"2062",28,27,1,1,1,4,1,1.716,50
"2063",28,20,1,1,1,4,0,2.871,51
"2064",28,83,1,1,1,2,1,0.892,52
"2065",28,17,1,1,1,2,1,0.808,53
"2066",28,51,1,1,1,1,1,1.072,54
"2067",28,44,1,1,1,2,1,5.287,55
"2068",28,53,1,1,1,2,0,0.921,56
"2069",28,78,1,1,1,4,0,2.354,57
"2070",28,37,1,1,1,4,1,1.31,58
"2071",28,61,1,1,1,3,1,0.759,59
"2072",28,13,1,1,1,1,0,0.442,60
"2073",28,50,1,1,1,4,0,2.529,61
"2074",28,55,1,1,1,2,0,1.188,62
"2075",28,82,1,1,1,4,1,1.043,63
"2076",28,24,1,1,1,3,0,1.784,64
"2077",28,4,1,1,1,4,1,0.936,65
"2078",28,29,1,1,1,2,0,1.118,66
"2079",28,11,1,1,1,5,0,0.518,67
"2080",28,38,1,1,1,5,1,1.72,68
"2081",28,60,1,1,1,4,1,0.592,69
"2082",28,71,1,1,1,5,1,1.429,70
"2083",28,30,1,1,1,3,0,1.662,71
"2084",28,28,1,1,1,5,1,0.991,72
"2085",28,69,1,1,1,2,0,2.45,73
"2086",28,8,1,1,1,4,1,6.85,74
"2087",28,39,1,1,1,5,0,1.198,75
"2088",28,16,1,1,1,2,1,0.882,76
"2089",28,41,1,1,1,5,1,0.744,77
"2090",28,62,1,1,1,3,1,1.267,78
"2091",28,40,1,1,1,3,1,1.405,79
"2092",28,49,1,1,1,1,0,0.496,80
"2093",28,63,1,1,1,4,1,1.169,81
"2094",28,7,1,1,1,3,1,1.105,82
"2095",28,54,1,1,1,3,1,1.379,83
"2096",28,2,1,1,1,4,0,1.051,84
"2097",28,35,1,1,1,2,0,1.297,85
"2098",28,74,1,1,1,3,1,1.169,86
"2099",28,34,1,1,1,3,1,1.251,87
"2100",28,33,1,1,1,5,1,2.645,88
"2101",29,69,1,1,1,3,0,5.754,5
"2102",29,6,1,1,1,3,1,1.134,6
"2103",29,23,1,1,1,5,1,1.273,7
"2104",29,63,1,1,1,4,1,2.159,8
"2105",29,17,1,1,1,4,1,2.074,9
"2106",29,24,1,1,1,3,0,1.549,10
"2107",29,53,1,1,1,3,0,2.82,11
"2108",29,7,1,1,1,6,1,1.871,12
"2109",29,27,1,1,1,4,1,4.142,13
"2110",29,20,1,1,1,3,0,1.305,14
"2111",29,61,1,1,1,3,1,2.78,15
"2112",29,59,1,1,1,3,1,2.844,16
"2113",29,1,1,1,1,4,1,0.815,17
"2114",29,50,1,1,1,3,0,3.674,18
"2115",29,12,1,1,1,3,1,6.182,19
"2116",29,38,1,1,1,4,1,1.111,20
"2117",29,5,1,1,1,4,1,2.814,21
"2118",29,70,1,1,1,4,1,2.454,22
"2119",29,30,1,1,1,3,0,0.994,23
"2120",29,82,1,1,1,4,1,1.182,24
"2121",29,51,1,1,1,6,1,2.168,25
"2122",29,25,1,1,1,4,1,0.656,26
"2123",29,8,1,1,1,4,1,0.595,27
"2124",29,11,1,1,1,3,0,3.098,28
"2125",29,83,1,1,1,4,1,0.92,29
"2126",29,45,1,1,1,3,0,2.631,30
"2127",29,79,1,1,1,3,0,1.175,31
"2128",29,29,1,1,1,4,0,0.966,32
"2129",29,41,1,1,1,5,1,1.053,33
"2130",29,84,1,1,1,3,1,4.958,34
"2131",29,78,1,1,1,3,0,6.106,35
"2132",29,75,1,1,1,4,0,0.768,36
"2133",29,68,1,1,1,4,0,1.236,37
"2134",29,71,1,1,1,4,1,0.858,38
"2135",29,16,1,1,1,4,1,1.801,39
"2136",29,14,1,1,1,4,1,2.246,40
"2137",29,3,1,1,1,3,1,2.342,41
"2138",29,66,1,1,1,3,1,5.171,42
"2139",29,32,1,1,1,4,0,14.396,43
"2140",29,54,1,1,1,4,1,5.27,44
"2141",29,15,1,1,1,4,1,1.274,45
"2142",29,28,1,1,1,3,1,1.849,46
"2143",29,35,1,1,1,3,0,1.509,47
"2144",29,43,1,1,1,3,1,0.935,48
"2145",29,31,1,1,1,3,1,2.046,49
"2146",29,10,1,1,1,3,0,1.214,50
"2147",29,58,1,1,1,3,1,5.034,51
"2148",29,76,1,1,1,4,1,4.3,52
"2149",29,33,1,1,1,4,1,1.637,53
"2150",29,57,1,1,1,4,1,2.696,54
"2151",29,80,1,1,1,4,1,0.825,55
"2152",29,37,1,1,1,3,1,1.462,56
"2153",29,13,1,1,1,4,0,0.968,57
"2154",29,81,1,1,1,3,1,2.3,58
"2155",29,22,1,1,1,3,1,2.576,59
"2156",29,36,1,1,1,3,1,1.233,60
"2157",29,19,1,1,1,3,0,0.581,61
"2158",29,77,1,1,1,2,0,1.229,62
"2159",29,18,1,1,1,5,1,0.775,63
"2160",29,46,1,1,1,3,0,0.926,64
"2161",29,39,1,1,1,4,0,11.69,65
"2162",29,65,1,1,1,3,0,0.669,66
"2163",29,34,1,1,1,4,1,1.379,67
"2164",29,55,1,1,1,3,0,0.56,68
"2165",29,72,1,1,1,4,1,1.694,69
"2166",29,60,1,1,1,3,1,1.481,70
"2167",29,21,1,1,1,3,1,5.576,71
"2168",29,62,1,1,1,3,1,0.853,72
"2169",29,47,1,1,1,3,0,1.61,73
"2170",29,64,1,1,1,4,1,4.147,74
"2171",29,2,1,1,1,4,0,0.637,75
"2172",29,49,1,1,1,4,0,1.882,76
"2173",29,67,1,1,1,3,0,3.45,77
"2174",29,44,1,1,1,4,1,0.631,78
"2175",29,4,1,1,1,4,1,0.689,79
"2176",29,40,1,1,1,4,1,0.796,80
"2177",29,52,1,1,1,4,1,1.786,81
"2178",29,42,1,1,1,3,0,2.916,82
"2179",29,56,1,1,1,4,1,1.812,83
"2180",29,74,1,1,1,4,1,1.489,84
"2181",29,73,1,1,1,3,1,0.93,85
"2182",29,26,1,1,1,3,1,0.866,86
"2183",29,9,1,1,1,3,1,1.586,87
"2184",29,48,1,1,1,4,1,0.786,88
"2185",30,45,1,1,1,2,0,2.338,5
"2186",30,74,1,1,1,3,1,5.72,6
"2187",30,62,1,1,1,6,1,1.952,7
"2188",30,57,1,1,1,4,1,1.09,8
"2189",30,5,1,1,1,5,1,1.74,9
"2190",30,58,1,1,1,3,1,6.672,10
"2191",30,77,1,1,1,3,0,3.678,11
"2192",30,46,1,1,1,1,0,1.754,12
"2193",30,14,1,1,1,5,1,0.887,13
"2194",30,81,1,1,1,5,1,0.572,14
"2195",30,43,1,1,1,5,1,1.063,15
"2196",30,27,1,1,1,5,1,2.827,16
"2197",30,78,1,1,1,4,0,2.912,17
"2198",30,32,1,1,1,4,0,2.199,18
"2199",30,47,1,1,1,3,0,4.646,19
"2200",30,38,1,1,1,5,1,2.224,20
"2201",30,40,1,1,1,4,1,0.828,21
"2202",30,68,1,1,1,5,0,1.017,22
"2203",30,23,1,1,1,5,1,1.053,23
"2204",30,75,1,1,1,3,0,2.311,24
"2205",30,69,1,1,1,5,0,3.67,25
"2206",30,17,1,1,1,4,1,0.863,26
"2207",30,53,1,1,1,4,0,1.207,27
"2208",30,18,1,1,1,5,1,2.275,28
"2209",30,28,1,1,1,5,1,2.239,29
"2210",30,21,1,1,1,4,1,0.81,30
"2211",30,24,1,1,1,4,0,0.753,31
"2212",30,16,1,1,1,4,1,1.391,32
"2213",30,33,1,1,1,5,1,1.191,33
"2214",30,82,1,1,1,3,1,1.544,34
"2215",30,49,1,1,1,3,0,1.336,35
"2216",30,26,1,1,1,5,1,0.713,36
"2217",30,52,1,1,1,4,1,1.165,37
"2218",30,4,1,1,1,3,1,1.524,38
"2219",30,35,1,1,1,1,0,0.832,39
"2220",30,80,1,1,1,4,1,1.652,40
"2221",30,42,1,1,1,4,0,1.047,41
"2222",30,1,1,1,1,4,1,0.923,42
"2223",30,50,1,1,1,5,0,7.246,43
"2224",30,72,1,1,1,3,1,1.253,44
"2225",30,70,1,1,1,3,1,1.887,45
"2226",30,25,1,1,1,5,1,1.445,46
"2227",30,39,1,1,1,4,0,1.312,47
"2228",30,65,1,1,1,5,0,0.386,48
"2229",30,11,1,1,1,4,0,4.201,49
"2230",30,66,1,1,1,5,1,0.868,50
"2231",30,29,1,1,1,5,0,6.057,51
"2232",30,56,1,1,1,3,1,1.108,52
"2233",30,22,1,1,1,3,1,0.93,53
"2234",30,84,1,1,1,4,1,0.881,54
"2235",30,54,1,1,1,3,1,1.324,55
"2236",30,13,1,1,1,4,0,1.06,56
"2237",30,83,1,1,1,3,1,1.141,57
"2238",30,55,1,1,1,4,0,0.995,58
"2239",30,15,1,1,1,4,1,1.232,59
"2240",30,48,1,1,1,4,1,1.349,60
"2241",30,6,1,1,1,4,1,0.893,61
"2242",30,37,1,1,1,4,1,1.583,62
"2243",30,60,1,1,1,5,1,1.029,63
"2244",30,63,1,1,1,3,1,1.329,64
"2245",30,30,1,1,1,4,0,3.238,65
"2246",30,20,1,1,1,4,0,1.148,66
"2247",30,7,1,1,1,5,1,0.832,67
"2248",30,51,1,1,1,4,1,1.158,68
"2249",30,12,1,1,1,3,1,1.204,69
"2250",30,79,1,1,1,4,0,0.597,70
"2251",30,64,1,1,1,4,1,0.975,71
"2252",30,44,1,1,1,6,1,2.301,72
"2253",30,19,1,1,1,6,0,0.675,73
"2254",30,36,1,1,1,4,1,0.925,74
"2255",30,76,1,1,1,3,1,0.965,75
"2256",30,8,1,1,1,2,1,1.824,76
"2257",30,61,1,1,1,5,1,0.922,77
"2258",30,31,1,1,1,3,1,1.635,78
"2259",30,34,1,1,1,5,1,1.547,79
"2260",30,67,1,1,1,3,0,3.747,80
"2261",30,73,1,1,1,4,1,1.986,81
"2262",30,3,1,1,1,4,1,0.734,82
"2263",30,2,1,1,1,5,0,4.333,83
"2264",30,71,1,1,1,5,1,1.358,84
"2265",30,59,1,1,1,5,1,1.313,85
"2266",30,10,1,1,1,4,0,2.007,86
"2267",30,41,1,1,1,4,1,3.457,87
"2268",30,9,1,1,1,5,1,1.108,88
"2269",31,55,1,1,1,3,1,1.37,5
"2270",31,76,1,1,1,4,1,6.323,6
"2271",31,72,1,1,1,5,0,2.096,7
"2272",31,39,1,1,1,5,1,14.832,8
"2273",31,52,1,1,1,3,0,3.163,9
"2274",31,40,1,1,1,4,1,3.003,10
"2275",31,57,1,1,1,4,1,0.686,11
"2276",31,77,1,1,1,5,1,2.702,12
"2277",31,15,1,1,1,5,1,4.071,13
"2278",31,42,1,1,1,4,1,4.154,14
"2279",31,12,1,1,1,6,0,1.868,15
"2280",31,49,1,1,1,4,1,6.474,16
"2281",31,5,1,1,1,6,1,2.099,17
"2282",31,71,1,1,1,4,0,5.868,18
"2283",31,20,1,1,1,5,1,4.652,19
"2284",31,60,1,1,1,3,0,8.132,20
"2285",31,16,1,1,1,4,1,0.926,21
"2286",31,66,1,1,1,4,1,3.044,22
"2287",31,51,1,1,1,1,0,7.473,23
"2288",31,14,1,1,1,3,0,2.645,24
"2289",31,30,1,1,1,5,1,0.85,25
"2290",31,70,1,1,1,1,0,1.655,26
"2291",31,54,1,1,1,2,1,4.294,27
"2292",31,68,1,1,1,1,1,0.839,28
"2293",31,45,1,1,1,4,1,4.996,29
"2294",31,80,1,1,1,1,0,2.179,30
"2295",31,61,1,1,1,3,0,2.474,31
"2296",31,7,1,1,1,2,0,4.72,32
"2297",31,58,1,1,1,5,0,1.719,33
"2298",31,44,1,1,1,3,1,1.691,34
"2299",31,43,1,1,1,5,1,0.658,35
"2300",31,35,1,1,1,6,1,1.032,36
"2301",31,28,1,1,1,5,1,2.826,37
"2302",31,3,1,1,1,5,1,1.763,38
"2303",31,67,1,1,1,5,1,1.694,39
"2304",31,32,1,1,1,4,1,2.818,40
"2305",31,65,1,1,1,5,1,4.646,41
"2306",31,48,1,1,1,4,1,6.404,42
"2307",31,33,1,1,1,4,1,2.789,43
"2308",31,21,1,1,1,4,0,2.113,44
"2309",31,4,1,1,1,4,0,6.411,45
"2310",31,78,1,1,1,3,1,2.468,46
"2311",31,50,1,1,1,4,1,4.235,47
"2312",31,9,1,1,1,4,0,5.284,48
"2313",31,37,1,1,1,3,0,2.419,49
"2314",31,59,1,1,1,3,0,1.105,50
"2315",31,53,1,1,1,4,1,2.197,51
"2316",31,41,1,1,1,5,1,8.145,52
"2317",31,47,1,1,1,2,1,4.305,53
"2318",31,63,1,1,1,5,0,2.515,54
"2319",31,74,1,1,1,3,1,4.328,55
"2320",31,56,1,1,1,4,0,14.637,56
"2321",31,13,1,1,1,6,1,0.914,57
"2322",31,8,1,1,1,3,1,1.412,58
"2323",31,69,1,1,1,3,1,5.65,59
"2324",31,83,1,1,1,3,0,1.886,60
"2325",31,23,1,1,1,3,0,5.655,61
"2326",31,1,1,1,1,3,0,1.711,62
"2327",31,75,1,1,1,4,1,2.113,63
"2328",31,79,1,1,1,4,1,1.541,64
"2329",31,29,1,1,1,5,1,4.104,65
"2330",31,31,1,1,1,4,1,3.713,66
"2331",31,64,1,1,1,5,1,1.7,67
"2332",31,18,1,1,1,5,1,0.746,68
"2333",31,84,1,1,1,3,1,4.478,69
"2334",31,22,1,1,1,5,0,0.873,70
"2335",31,10,1,1,1,3,1,3.719,71
"2336",31,46,1,1,1,3,1,3.729,72
"2337",31,19,1,1,1,4,1,2.383,73
"2338",31,73,1,1,1,4,1,1.059,74
"2339",31,11,1,1,1,6,1,1.611,75
"2340",31,38,1,1,1,4,1,1.508,76
"2341",31,17,1,1,1,4,0,1.44,77
"2342",31,6,1,1,1,4,1,10.066,78
"2343",31,27,1,1,1,3,0,1.289,79
"2344",31,82,1,1,1,4,0,3.204,80
"2345",31,26,1,1,1,4,1,2.346,81
"2346",31,36,1,1,1,5,1,0.624,82
"2347",31,24,1,1,1,4,1,0.989,83
"2348",31,34,1,1,1,4,1,4.395,84
"2349",31,2,1,1,1,4,1,3.729,85
"2350",31,81,1,1,1,3,0,1.412,86
"2351",31,25,1,1,1,3,0,3.213,87
"2352",31,62,1,1,1,3,1,3.526,88
"2353",32,51,1,1,1,5,1,2.815,5
"2354",32,65,1,1,1,3,1,6.121,6
"2355",32,60,1,1,1,4,1,4.204,7
"2356",32,56,1,1,1,3,1,5.836,8
"2357",32,42,1,1,1,6,1,4.747,9
"2358",32,81,1,1,1,5,1,2.797,10
"2359",32,25,1,1,1,2,1,2.278,11
"2360",32,50,1,1,1,4,1,5.445,12
"2361",32,39,1,1,1,6,1,5.448,13
"2362",32,68,1,1,1,1,1,1.307,14
"2363",32,72,1,1,1,4,1,4.961,15
"2364",32,4,1,1,1,5,1,7.625,16
"2365",32,7,1,1,1,5,1,4.592,17
"2366",32,83,1,1,1,3,1,2.516,18
"2367",32,5,1,1,1,4,0,2.58,19
"2368",32,17,1,1,1,3,1,4.701,20
"2369",32,67,1,1,1,2,1,5.895,21
"2370",32,35,1,1,1,6,1,2.413,22
"2371",32,12,1,1,1,3,1,2.686,23
"2372",32,44,1,1,1,4,0,4.812,24
"2373",32,36,1,1,1,4,0,2.064,25
"2374",32,66,1,1,1,5,0,7.123,26
"2375",32,74,1,1,1,2,0,3.504,27
"2376",32,38,1,1,1,4,0,2.006,28
"2377",32,29,1,1,1,5,1,2.692,29
"2378",32,37,1,1,1,4,1,2.102,30
"2379",32,45,1,1,1,3,1,3.791,31
"2380",32,79,1,1,1,3,1,3.585,32
"2381",32,53,1,1,1,2,1,7.128,33
"2382",32,59,1,1,1,6,1,1.65,34
"2383",32,55,1,1,1,4,1,1.598,35
"2384",32,11,1,1,1,4,1,2.245,36
"2385",32,49,1,1,1,5,1,4.852,37
"2386",32,8,1,1,1,5,0,1.826,38
"2387",32,63,1,1,1,6,1,0.969,39
"2388",32,71,1,1,1,2,1,5.485,40
"2389",32,52,1,1,1,4,1,1.726,41
"2390",32,73,1,1,1,3,0,4.142,42
"2391",32,6,1,1,1,4,0,2.473,43
"2392",32,20,1,1,1,4,1,3.883,44
"2393",32,3,1,1,1,4,0,1.62,45
"2394",32,10,1,1,1,3,1,2.407,46
"2395",32,58,1,1,1,4,1,9.955,47
"2396",32,31,1,1,1,4,0,4.284,48
"2397",32,22,1,1,1,5,1,1.643,49
"2398",32,47,1,1,1,5,1,1.584,50
"2399",32,64,1,1,1,5,0,1.938,51
"2400",32,78,1,1,1,3,1,1.673,52
"2401",32,15,1,1,1,4,0,1.752,53
"2402",32,40,1,1,1,3,0,1.419,54
"2403",32,48,1,1,1,4,0,3.514,55
"2404",32,2,1,1,1,5,1,2.594,56
"2405",32,61,1,1,1,4,1,2.977,57
"2406",32,69,1,1,1,5,1,2.626,58
"2407",32,32,1,1,1,3,1,6.475,59
"2408",32,57,1,1,1,4,0,2.532,60
"2409",32,16,1,1,1,3,0,2.64,61
"2410",32,13,1,1,1,3,1,2.91,62
"2411",32,9,1,1,1,4,1,1.526,63
"2412",32,24,1,1,1,4,1,1.075,64
"2413",32,70,1,1,1,5,1,1.132,65
"2414",32,41,1,1,1,4,0,1.338,66
"2415",32,46,1,1,1,1,1,1.758,67
"2416",32,27,1,1,1,3,1,1.819,68
"2417",32,75,1,1,1,4,1,1.887,69
"2418",32,26,1,1,1,1,0,2.484,70
"2419",32,23,1,1,1,4,1,1.918,71
"2420",32,76,1,1,1,2,0,0.931,72
"2421",32,77,1,1,1,2,1,5.788,73
"2422",32,14,1,1,1,4,1,2.429,74
"2423",32,54,1,1,1,3,0,5.16,75
"2424",32,21,1,1,1,2,1,0.731,76
"2425",32,43,1,1,1,4,0,0.681,77
"2426",32,28,1,1,1,3,0,3.28,78
"2427",32,82,1,1,1,4,1,1.471,79
"2428",32,62,1,1,1,3,0,2.297,80
"2429",32,1,1,1,1,4,1,4.076,81
"2430",32,34,1,1,1,4,0,3.825,82
"2431",32,84,1,1,1,1,0,1.248,83
"2432",32,80,1,1,1,4,1,2.645,84
"2433",32,33,1,1,1,3,0,3.844,85
"2434",32,30,1,1,1,4,1,0.888,86
"2435",32,18,1,1,1,3,0,1.738,87
"2436",32,19,1,1,1,4,1,0.51,88
"2437",33,56,1,1,1,4,1,0.631,5
"2438",33,24,1,1,1,5,0,2.134,6
"2439",33,52,1,1,1,4,1,1.932,7
"2440",33,59,1,1,1,5,1,5.735,8
"2441",33,32,1,1,1,3,0,1.443,9
"2442",33,17,1,1,1,2,1,2.609,10
"2443",33,16,1,1,1,3,1,2.949,11
"2444",33,20,1,1,1,5,0,1.261,12
"2445",33,48,1,1,1,5,1,1.431,13
"2446",33,21,1,1,1,5,1,10.171,14
"2447",33,46,1,1,1,3,0,1.098,15
"2448",33,30,1,1,1,2,0,2.691,16
"2449",33,44,1,1,1,2,1,0.936,17
"2450",33,28,1,1,1,5,1,1.158,18
"2451",33,73,1,1,1,5,1,2.038,19
"2452",33,19,1,1,1,5,0,0.834,20
"2453",33,57,1,1,1,3,1,1.786,21
"2454",33,3,1,1,1,4,1,2.896,22
"2455",33,81,1,1,1,3,1,1.17,23
"2456",33,39,1,1,1,2,0,0.705,24
"2457",33,70,1,1,1,3,1,0.798,25
"2458",33,62,1,1,1,5,1,1.31,26
"2459",33,22,1,1,1,4,1,1.086,27
"2460",33,12,1,1,1,1,1,0.76,28
"2461",33,10,1,1,1,2,0,1.38,29
"2462",33,68,1,1,1,5,0,1.046,30
"2463",33,61,1,1,1,5,1,0.899,31
"2464",33,58,1,1,1,5,1,3.778,32
"2465",33,77,1,1,1,5,0,2.637,33
"2466",33,41,1,1,1,3,1,1.303,34
"2467",33,1,1,1,1,3,1,0.73,35
"2468",33,40,1,1,1,3,1,0.937,36
"2469",33,6,1,1,1,4,1,1.921,37
"2470",33,69,1,1,1,5,0,1.873,38
"2471",33,27,1,1,1,5,1,3.416,39
"2472",33,11,1,1,1,5,0,1.627,40
"2473",33,35,1,1,1,3,0,1.037,41
"2474",33,76,1,1,1,2,1,0.759,42
"2475",33,64,1,1,1,5,1,2.77,43
"2476",33,75,1,1,1,4,0,1.289,44
"2477",33,23,1,1,1,6,1,3.91,45
"2478",33,7,1,1,1,3,1,3.316,46
"2479",33,15,1,1,1,2,1,1.239,47
"2480",33,72,1,1,1,2,1,2.925,48
"2481",33,63,1,1,1,6,1,2.568,49
"2482",33,8,1,1,1,3,1,2.195,50
"2483",33,71,1,1,1,3,1,1.056,51
"2484",33,66,1,1,1,5,1,1.959,52
"2485",33,14,1,1,1,2,1,0.877,53
"2486",33,84,1,1,1,5,1,0.695,54
"2487",33,36,1,1,1,4,1,0.584,55
"2488",33,80,1,1,1,5,1,0.891,56
"2489",33,54,1,1,1,5,1,2.407,57
"2490",33,47,1,1,1,2,0,1.313,58
"2491",33,29,1,1,1,2,0,1.13,59
"2492",33,65,1,1,1,5,0,0.924,60
"2493",33,43,1,1,1,3,1,1.212,61
"2494",33,18,1,1,1,2,1,1.18,62
"2495",33,49,1,1,1,5,0,6.491,63
"2496",33,51,1,1,1,4,1,2.942,64
"2497",33,38,1,1,1,4,1,1.034,65
"2498",33,31,1,1,1,5,1,1.205,66
"2499",33,83,1,1,1,2,1,0.666,67
"2500",33,60,1,1,1,3,1,1.084,68
"2501",33,26,1,1,1,3,1,1.113,69
"2502",33,2,1,1,1,2,0,1.019,70
"2503",33,45,1,1,1,4,0,1.948,71
"2504",33,55,1,1,1,4,0,5.386,72
"2505",33,4,1,1,1,4,1,1.965,73
"2506",33,9,1,1,1,3,1,8.463,74
"2507",33,79,1,1,1,3,0,1.789,75
"2508",33,82,1,1,1,4,1,6.022,76
"2509",33,53,1,1,1,5,0,0.807,77
"2510",33,34,1,1,1,5,1,0.953,78
"2511",33,33,1,1,1,2,1,3.028,79
"2512",33,78,1,1,1,3,0,1.432,80
"2513",33,67,1,1,1,3,0,1.069,81
"2514",33,74,1,1,1,3,1,0.602,82
"2515",33,50,1,1,1,3,0,2.197,83
"2516",33,42,1,1,1,5,0,2.887,84
"2517",33,25,1,1,1,5,1,0.897,85
"2518",33,5,1,1,1,2,1,1.471,86
"2519",33,13,1,1,1,2,0,1.015,87
"2520",33,37,1,1,1,4,1,2.446,88
"2521",34,65,1,1,1,1,0,0.967,5
"2522",34,36,1,1,1,3,1,1.142,6
"2523",34,82,1,1,1,5,1,0.626,7
"2524",34,29,1,1,1,3,0,4.399,8
"2525",34,8,1,1,1,5,1,7.259,9
"2526",34,68,1,1,1,4,0,6.656,10
"2527",34,7,1,1,1,3,1,6.297,11
"2528",34,16,1,1,1,5,1,3.201,12
"2529",34,58,1,1,1,5,1,9.065,13
"2530",34,2,1,1,1,2,0,1.68,14
"2531",34,1,1,1,1,3,1,4.038,15
"2532",34,42,1,1,1,2,0,11.108,16
"2533",34,81,1,1,1,5,1,3.679,17
"2534",34,71,1,1,1,4,1,5.825,18
"2535",34,69,1,1,1,4,0,13.572,19
"2536",34,15,1,1,1,2,1,1.931,20
"2537",34,60,1,1,1,5,1,18.475,21
"2538",34,3,1,1,1,5,1,1.292,22
"2539",34,83,1,1,1,2,1,1.599,23
"2540",34,52,1,1,1,5,1,3.356,24
"2541",34,50,1,1,1,5,0,6.82,25
"2542",34,27,1,1,1,5,1,4.201,26
"2543",34,45,1,1,1,5,0,15.459,27
"2544",34,26,1,1,1,2,1,1.733,28
"2545",34,25,1,1,1,5,1,4.085,29
"2546",34,19,1,1,1,4,0,2.33,30
"2547",34,53,1,1,1,5,0,4.086,31
"2548",34,80,1,1,1,2,1,1.225,32
"2549",34,57,1,1,1,4,1,3.226,33
"2550",34,4,1,1,1,5,1,4.051,34
"2551",34,41,1,1,1,6,1,1.196,35
"2552",34,48,1,1,1,5,1,4.421,36
"2553",34,10,1,1,1,2,0,0.885,37
"2554",34,24,1,1,1,2,0,2.352,38
"2555",34,46,1,1,1,1,0,0.824,39
"2556",34,17,1,1,1,5,1,2.195,40
"2557",34,37,1,1,1,4,1,7.19,41
"2558",34,14,1,1,1,5,1,1.124,42
"2559",34,62,1,1,1,5,1,1.586,43
"2560",34,18,1,1,1,5,1,4.261,44
"2561",34,67,1,1,1,3,0,0.938,45
"2562",34,38,1,1,1,5,1,2.285,46
"2563",34,56,1,1,1,4,1,0.664,47
"2564",34,23,1,1,1,5,1,0.967,48
"2565",34,64,1,1,1,3,1,3.353,49
"2566",34,79,1,1,1,2,0,5.599,50
"2567",34,72,1,1,1,4,1,1.189,51
"2568",34,77,1,1,1,5,0,2.108,52
"2569",34,21,1,1,1,6,1,6.104,53
"2570",34,74,1,1,1,4,1,2.371,54
"2571",34,51,1,1,1,1,1,1.034,55
"2572",34,84,1,1,1,6,1,0.683,56
"2573",34,73,1,1,1,4,1,0.94,57
"2574",34,76,1,1,1,2,1,5.737,58
"2575",34,13,1,1,1,1,0,0.546,59
"2576",34,32,1,1,1,4,0,6.006,60
"2577",34,61,1,1,1,4,1,0.552,61
"2578",34,75,1,1,1,5,0,4.791,62
"2579",34,34,1,1,1,5,1,2.18,63
"2580",34,40,1,1,1,5,1,0.85,64
"2581",34,63,1,1,1,5,1,1.776,65
"2582",34,5,1,1,1,6,1,1.071,66
"2583",34,49,1,1,1,2,0,5.515,67
"2584",34,70,1,1,1,1,1,5.664,68
"2585",34,39,1,1,1,2,0,2.441,69
"2586",34,11,1,1,1,5,0,1.284,70
"2587",34,59,1,1,1,4,1,1.876,71
"2588",34,44,1,1,1,3,1,0.786,72
"2589",34,54,1,1,1,2,1,5.022,73
"2590",34,6,1,1,1,5,1,1.812,74
"2591",34,43,1,1,1,4,1,2.237,75
"2592",34,20,1,1,1,5,0,1.216,76
"2593",34,35,1,1,1,2,0,0.57,77
"2594",34,55,1,1,1,3,0,4.156,78
"2595",34,12,1,1,1,5,1,1.479,79
"2596",34,30,1,1,1,2,0,1.65,80
"2597",34,28,1,1,1,4,1,1.05,81
"2598",34,31,1,1,1,4,1,2.368,82
"2599",34,47,1,1,1,3,0,2.165,83
"2600",34,22,1,1,1,4,1,3.531,84
"2601",34,66,1,1,1,5,1,2.906,85
"2602",34,78,1,1,1,4,0,0.407,86
"2603",34,33,1,1,1,4,1,0.588,87
"2604",34,9,1,1,1,3,1,0.922,88
"2605",35,79,1,1,1,4,1,10.817,5
"2606",35,47,1,1,1,6,1,5.953,6
"2607",35,40,1,1,1,5,1,4.065,7
"2608",35,33,1,1,1,5,1,2.086,8
"2609",35,20,1,1,1,4,1,4.61,9
"2610",35,58,1,1,1,3,0,4.489,10
"2611",35,54,1,1,1,4,1,6.729,11
"2612",35,80,1,1,1,2,0,5.344,12
"2613",35,75,1,1,1,5,1,1.694,13
"2614",35,6,1,1,1,5,1,0.961,14
"2615",35,43,1,1,1,2,1,4.693,15
"2616",35,81,1,1,1,3,0,6.659,16
"2617",35,30,1,1,1,5,1,3.747,17
"2618",35,52,1,1,1,5,0,4.219,18
"2619",35,73,1,1,1,4,1,1.378,19
"2620",35,42,1,1,1,5,1,2.338,20
"2621",35,78,1,1,1,5,1,1.369,21
"2622",35,41,1,1,1,5,1,3.482,22
"2623",35,83,1,1,1,5,0,1.333,23
"2624",35,37,1,1,1,5,0,3.001,24
"2625",35,23,1,1,1,1,0,4.731,25
"2626",35,46,1,1,1,2,1,5.94,26
"2627",35,18,1,1,1,5,1,1.615,27
"2628",35,5,1,1,1,4,1,6.922,28
"2629",35,27,1,1,1,4,0,5.203,29
"2630",35,70,1,1,1,3,0,1.366,30
"2631",35,45,1,1,1,3,1,7.919,31
"2632",35,64,1,1,1,6,1,3.896,32
"2633",35,10,1,1,1,4,1,4.345,33
"2634",35,59,1,1,1,3,0,7.922,34
"2635",35,21,1,1,1,5,0,6.325,35
"2636",35,67,1,1,1,4,1,4.829,36
"2637",35,55,1,1,1,3,1,1.266,37
"2638",35,69,1,1,1,5,1,1.786,38
"2639",35,25,1,1,1,3,0,5.42,39
"2640",35,35,1,1,1,5,1,0.723,40
"2641",35,3,1,1,1,6,1,1.107,41
"2642",35,72,1,1,1,5,0,1.447,42
"2643",35,77,1,1,1,5,1,2.28,43
"2644",35,7,1,1,1,5,0,14.704,44
"2645",35,65,1,1,1,2,1,0.776,45
"2646",35,24,1,1,1,3,1,6.37,46
"2647",35,32,1,1,1,4,1,3.38,47
"2648",35,66,1,1,1,5,1,4.704,48
"2649",35,14,1,1,1,3,0,2.091,49
"2650",35,2,1,1,1,5,1,5.043,50
"2651",35,16,1,1,1,4,1,2.215,51
"2652",35,48,1,1,1,4,1,3.535,52
"2653",35,62,1,1,1,5,1,2.627,53
"2654",35,4,1,1,1,4,0,6.925,54
"2655",35,51,1,1,1,3,0,2.531,55
"2656",35,44,1,1,1,4,1,1.364,56
"2657",35,39,1,1,1,2,1,3.285,57
"2658",35,50,1,1,1,4,1,3.057,58
"2659",35,82,1,1,1,3,0,14.172,59
"2660",35,38,1,1,1,2,1,10.583,60
"2661",35,36,1,1,1,3,1,8.37,61
"2662",35,63,1,1,1,4,0,7.946,62
"2663",35,26,1,1,1,5,1,1.234,63
"2664",35,22,1,1,1,4,0,3.563,64
"2665",35,84,1,1,1,2,1,4.595,65
"2666",35,76,1,1,1,2,1,1.167,66
"2667",35,34,1,1,1,4,1,2.121,67
"2668",35,28,1,1,1,4,1,2.781,68
"2669",35,15,1,1,1,5,1,4.118,69
"2670",35,17,1,1,1,4,0,5.403,70
"2671",35,29,1,1,1,4,1,0.789,71
"2672",35,11,1,1,1,5,1,1.134,72
"2673",35,13,1,1,1,3,1,4.587,73
"2674",35,31,1,1,1,3,1,7.331,74
"2675",35,71,1,1,1,4,0,3.126,75
"2676",35,12,1,1,1,3,0,3.826,76
"2677",35,8,1,1,1,5,1,1.763,77
"2678",35,53,1,1,1,5,1,2.07,78
"2679",35,56,1,1,1,3,0,1.768,79
"2680",35,57,1,1,1,4,1,0.863,80
"2681",35,61,1,1,1,4,0,3.423,81
"2682",35,68,1,1,1,5,1,2.092,82
"2683",35,9,1,1,1,3,0,5.041,83
"2684",35,19,1,1,1,3,1,3.998,84
"2685",35,49,1,1,1,5,1,1.686,85
"2686",35,60,1,1,1,5,0,1.134,86
"2687",35,1,1,1,1,2,0,0.675,87
"2688",35,74,1,1,1,3,1,1.407,88
"2689",36,75,1,1,1,2,1,0.761,5
"2690",36,78,1,1,1,5,1,4.998,6
"2691",36,24,1,1,1,4,1,4.218,7
"2692",36,36,1,1,1,5,0,4.165,8
"2693",36,34,1,1,1,1,0,1.479,9
"2694",36,21,1,1,1,4,1,4.225,10
"2695",36,83,1,1,1,2,1,0.791,11
"2696",36,14,1,1,1,5,1,3.569,12
"2697",36,69,1,1,1,4,1,3.246,13
"2698",36,8,1,1,1,3,0,3.391,14
"2699",36,40,1,1,1,2,0,0.812,15
"2700",36,72,1,1,1,2,1,0.787,16
"2701",36,25,1,1,1,5,1,0.833,17
"2702",36,10,1,1,1,3,1,2.026,18
"2703",36,51,1,1,1,5,1,3.067,19
"2704",36,84,1,1,1,4,0,0.699,20
"2705",36,42,1,1,1,1,1,2.755,21
"2706",36,28,1,1,1,5,0,1.03,22
"2707",36,49,1,1,1,2,1,0.795,23
"2708",36,15,1,1,1,3,0,2.244,24
"2709",36,2,1,1,1,6,1,3.271,25
"2710",36,55,1,1,1,2,1,5.034,26
"2711",36,74,1,1,1,2,0,0.909,27
"2712",36,31,1,1,1,3,0,3.579,28
"2713",36,16,1,1,1,3,0,1.091,29
"2714",36,3,1,1,1,2,0,1.109,30
"2715",36,18,1,1,1,5,0,1.035,31
"2716",36,58,1,1,1,2,1,0.785,32
"2717",36,32,1,1,1,5,1,5.12,33
"2718",36,12,1,1,1,2,1,0.655,34
"2719",36,46,1,1,1,4,1,0.534,35
"2720",36,26,1,1,1,4,0,2.91,36
"2721",36,27,1,1,1,3,1,0.62,37
"2722",36,22,1,1,1,3,1,1.168,38
"2723",36,39,1,1,1,5,1,0.816,39
"2724",36,30,1,1,1,2,1,0.837,40
"2725",36,35,1,1,1,3,1,0.863,41
"2726",36,59,1,1,1,2,1,0.653,42
"2727",36,82,1,1,1,2,1,1.744,43
"2728",36,4,1,1,1,4,1,0.772,44
"2729",36,19,1,1,1,3,1,0.916,45
"2730",36,29,1,1,1,3,1,1.41,46
"2731",36,11,1,1,1,4,1,2.409,47
"2732",36,54,1,1,1,2,0,0.834,48
"2733",36,67,1,1,1,2,1,1.226,49
"2734",36,17,1,1,1,2,1,0.855,50
"2735",36,81,1,1,1,2,1,0.619,51
"2736",36,53,1,1,1,5,1,1.07,52
"2737",36,68,1,1,1,5,1,1.714,53
"2738",36,52,1,1,1,3,1,6.263,54
"2739",36,73,1,1,1,3,0,1.126,55
"2740",36,20,1,1,1,4,1,2.536,56
"2741",36,13,1,1,1,2,1,1.211,57
"2742",36,70,1,1,1,2,1,0.79,58
"2743",36,79,1,1,1,4,1,2.487,59
"2744",36,23,1,1,1,4,1,2.377,60
"2745",36,47,1,1,1,2,1,0.637,61
"2746",36,50,1,1,1,2,1,0.631,62
"2747",36,57,1,1,1,4,0,3.573,63
"2748",36,61,1,1,1,2,1,0.745,64
"2749",36,71,1,1,1,4,1,0.994,65
"2750",36,41,1,1,1,4,0,1.659,66
"2751",36,38,1,1,1,5,0,2.615,67
"2752",36,76,1,1,1,3,0,3.25,68
"2753",36,66,1,1,1,2,0,5.287,69
"2754",36,45,1,1,1,2,1,0.943,70
"2755",36,64,1,1,1,5,0,8.1,71
"2756",36,80,1,1,1,2,1,1.535,72
"2757",36,37,1,1,1,2,1,1.124,73
"2758",36,5,1,1,1,2,0,0.626,74
"2759",36,1,1,1,1,4,1,0.549,75
"2760",36,43,1,1,1,6,0,1.051,76
"2761",36,44,1,1,1,4,0,2.265,77
"2762",36,77,1,1,1,2,1,1.23,78
"2763",36,33,1,1,1,4,0,2.658,79
"2764",36,9,1,1,1,4,1,2.673,80
"2765",36,60,1,1,1,5,1,9.753,81
"2766",36,7,1,1,1,2,1,4.792,82
"2767",36,62,1,1,1,5,0,0.918,83
"2768",36,65,1,1,1,2,1,1.203,84
"2769",36,56,1,1,1,2,1,1.613,85
"2770",36,6,1,1,1,2,0,2.466,86
"2771",36,48,1,1,1,5,0,1.942,87
"2772",36,63,1,1,1,5,1,1.661,88
"2773",37,68,1,1,1,5,0,2.528,5
"2774",37,10,1,1,1,4,0,1.265,6
"2775",37,6,1,1,1,5,1,1.369,7
"2776",37,18,1,1,1,6,1,0.963,8
"2777",37,71,1,1,1,5,1,0.946,9
"2778",37,55,1,1,1,5,0,0.875,10
"2779",37,9,1,1,1,5,1,1.057,11
"2780",37,49,1,1,1,3,0,2.3,12
"2781",37,69,1,1,1,4,0,1.447,13
"2782",37,72,1,1,1,4,1,2.281,14
"2783",37,75,1,1,1,4,0,1.633,15
"2784",37,7,1,1,1,5,1,0.919,16
"2785",37,36,1,1,1,5,1,2.502,17
"2786",37,35,1,1,1,5,0,0.758,18
"2787",37,27,1,1,1,6,1,2.094,19
"2788",37,4,1,1,1,5,1,1.278,20
"2789",37,82,1,1,1,6,1,0.985,21
"2790",37,45,1,1,1,5,0,0.856,22
"2791",37,64,1,1,1,4,1,1.449,23
"2792",37,31,1,1,1,4,1,1.703,24
"2793",37,42,1,1,1,5,0,1.589,25
"2794",37,79,1,1,1,5,0,0.718,26
"2795",37,43,1,1,1,6,1,0.744,27
"2796",37,38,1,1,1,6,1,0.721,28
"2797",37,58,1,1,1,5,1,1.092,29
"2798",37,15,1,1,1,6,1,0.829,30
"2799",37,63,1,1,1,5,1,0.741,31
"2800",37,78,1,1,1,5,0,0.893,32
"2801",37,53,1,1,1,5,0,0.98,33
"2802",37,34,1,1,1,5,1,0.964,34
"2803",37,48,1,1,1,6,1,7.045,35
"2804",37,60,1,1,1,5,1,1.072,36
"2805",37,76,1,1,1,5,1,1.561,37
"2806",37,57,1,1,1,6,1,1.634,38
"2807",37,30,1,1,1,4,0,0.642,39
"2808",37,16,1,1,1,4,1,2.18,40
"2809",37,25,1,1,1,6,1,3.18,41
"2810",37,40,1,1,1,5,1,2.927,42
"2811",37,44,1,1,1,4,1,0.822,43
"2812",37,2,1,1,1,4,0,0.572,44
"2813",37,65,1,1,1,4,0,1.278,45
"2814",37,33,1,1,1,5,1,0.764,46
"2815",37,1,1,1,1,5,1,0.866,47
"2816",37,66,1,1,1,4,1,1.564,48
"2817",37,50,1,1,1,5,0,1.264,49
"2818",37,8,1,1,1,5,1,2.1,50
"2819",37,3,1,1,1,6,1,0.88,51
"2820",37,13,1,1,1,6,0,0.767,52
"2821",37,62,1,1,1,6,1,0.691,53
"2822",37,28,1,1,1,5,1,1.702,54
"2823",37,19,1,1,1,5,0,0.796,55
"2824",37,74,1,1,1,5,1,0.503,56
"2825",37,5,1,1,1,6,1,0.745,57
"2826",37,11,1,1,1,5,0,0.721,58
"2827",37,61,1,1,1,5,1,0.881,59
"2828",37,81,1,1,1,6,1,0.582,60
"2829",37,20,1,1,1,5,0,9.753,61
"2830",37,26,1,1,1,5,1,6.924,62
"2831",37,23,1,1,1,6,1,0.748,63
"2832",37,59,1,1,1,5,1,0.615,64
"2833",37,73,1,1,1,5,1,0.77,65
"2834",37,47,1,1,1,3,0,1.237,66
"2835",37,80,1,1,1,5,1,1.033,67
"2836",37,52,1,1,1,4,1,1.19,68
"2837",37,77,1,1,1,6,0,5.187,69
"2838",37,39,1,1,1,6,0,1.316,70
"2839",37,70,1,1,1,5,1,3.414,71
"2840",37,41,1,1,1,4,1,4.419,72
"2841",37,46,1,1,1,1,0,0.747,73
"2842",37,14,1,1,1,5,1,0.797,74
"2843",37,56,1,1,1,4,1,0.741,75
"2844",37,37,1,1,1,5,1,1.598,76
"2845",37,84,1,1,1,5,1,1.922,77
"2846",37,24,1,1,1,5,0,0.831,78
"2847",37,29,1,1,1,5,0,1.321,79
"2848",37,17,1,1,1,6,1,0.744,80
"2849",37,83,1,1,1,6,1,0.777,81
"2850",37,12,1,1,1,4,1,1.329,82
"2851",37,51,1,1,1,5,1,2.082,83
"2852",37,21,1,1,1,5,1,1.488,84
"2853",37,22,1,1,1,5,1,0.819,85
"2854",37,32,1,1,1,4,0,1.189,86
"2855",37,67,1,1,1,4,0,1.019,87
"2856",37,54,1,1,1,5,1,1.507,88
"2857",38,8,1,1,1,3,1,10.106,5
"2858",38,16,1,1,1,5,1,2.284,6
"2859",38,26,1,1,1,5,1,7.05,7
"2860",38,70,1,1,1,4,0,4.147,8
"2861",38,45,1,1,1,5,1,5.321,9
"2862",38,73,1,1,1,5,1,4.895,10
"2863",38,65,1,1,1,6,1,1.178,11
"2864",38,74,1,1,1,4,1,14.66,12
"2865",38,59,1,1,1,4,0,3.059,13
"2866",38,29,1,1,1,3,1,3.504,14
"2867",38,78,1,1,1,2,1,7.194,15
"2868",38,64,1,1,1,1,1,26.041,16
"2869",38,75,1,1,1,5,1,1.054,17
"2870",38,11,1,1,1,5,1,9.298,18
"2871",38,35,1,1,1,4,1,2.161,19
"2872",38,2,1,1,1,5,1,1.968,20
"2873",38,9,1,1,1,3,0,4.174,21
"2874",38,22,1,1,1,3,0,5.809,22
"2875",38,57,1,1,1,4,1,2.866,23
"2876",38,34,1,1,1,5,1,9.693,24
"2877",38,21,1,1,1,2,0,5.764,25
"2878",38,19,1,1,1,5,1,0.891,26
"2879",38,33,1,1,1,4,1,9.155,27
"2880",38,14,1,1,1,3,0,2.807,28
"2881",38,84,1,1,1,3,1,2.547,29
"2882",38,6,1,1,1,5,1,1.876,30
"2883",38,54,1,1,1,5,1,1.678,31
"2884",38,61,1,1,1,5,0,2.434,32
"2885",38,46,1,1,1,2,1,1.953,33
"2886",38,69,1,1,1,2,1,5.767,34
"2887",38,48,1,1,1,4,1,3.666,35
"2888",38,13,1,1,1,3,1,5.078,36
"2889",38,4,1,1,1,2,0,6.671,37
"2890",38,39,1,1,1,3,1,5.544,38
"2891",38,40,1,1,1,4,1,3.707,39
"2892",38,52,1,1,1,5,0,9.111,40
"2893",38,63,1,1,1,6,0,6.484,41
"2894",38,83,1,1,1,2,0,2.527,42
"2895",38,28,1,1,1,5,1,1.335,43
"2896",38,18,1,1,1,3,1,4.021,44
"2897",38,55,1,1,1,5,1,2.129,45
"2898",38,51,1,1,1,1,0,9.029,46
"2899",38,68,1,1,1,3,1,7.69,47
"2900",38,12,1,1,1,5,0,1.174,48
"2901",38,36,1,1,1,2,1,4.432,49
"2902",38,47,1,1,1,2,1,1.599,50
"2903",38,38,1,1,1,5,1,2.132,51
"2904",38,27,1,1,1,5,0,1.872,52
"2905",38,49,1,1,1,4,1,3.529,53
"2906",38,23,1,1,1,4,0,5.805,54
"2907",38,5,1,1,1,6,1,1.11,55
"2908",38,3,1,1,1,3,1,4.254,56
"2909",38,82,1,1,1,4,0,1.61,57
"2910",38,7,1,1,1,3,0,8.203,58
"2911",38,24,1,1,1,3,1,4.067,59
"2912",38,71,1,1,1,3,0,11.008,60
"2913",38,58,1,1,1,5,0,6.192,61
"2914",38,43,1,1,1,3,1,3.916,62
"2915",38,80,1,1,1,2,0,1.444,63
"2916",38,76,1,1,1,4,1,0.939,64
"2917",38,31,1,1,1,3,1,3.294,65
"2918",38,41,1,1,1,4,1,7.283,66
"2919",38,56,1,1,1,3,0,3.635,67
"2920",38,50,1,1,1,5,1,2.532,68
"2921",38,32,1,1,1,3,1,1.258,69
"2922",38,15,1,1,1,5,1,1.148,70
"2923",38,79,1,1,1,2,1,1.853,71
"2924",38,37,1,1,1,4,0,0.901,72
"2925",38,53,1,1,1,2,1,1.962,73
"2926",38,30,1,1,1,4,1,2.823,74
"2927",38,42,1,1,1,1,1,2.541,75
"2928",38,10,1,1,1,5,1,0.859,76
"2929",38,77,1,1,1,4,1,4.807,77
"2930",38,25,1,1,1,2,0,3.634,78
"2931",38,62,1,1,1,5,1,0.959,79
"2932",38,66,1,1,1,3,1,2.546,80
"2933",38,20,1,1,1,5,1,2.038,81
"2934",38,81,1,1,1,4,0,1.082,82
"2935",38,72,1,1,1,2,0,1.608,83
"2936",38,60,1,1,1,4,0,5.146,84
"2937",38,67,1,1,1,3,1,2.692,85
"2938",38,44,1,1,1,3,1,1.807,86
"2939",38,17,1,1,1,3,0,3.152,87
"2940",38,1,1,1,1,4,0,6.408,88
"2941",39,44,1,1,1,4,1,2.298,5
"2942",39,5,1,1,1,4,1,0.828,6
"2943",39,66,1,1,1,5,1,2.386,7
"2944",39,64,1,1,1,4,1,3.575,8
"2945",39,12,1,1,1,4,0,0.583,9
"2946",39,41,1,1,1,5,1,0.604,10
"2947",39,29,1,1,1,5,1,0.955,11
"2948",39,65,1,1,1,4,1,3.742,12
"2949",39,6,1,1,1,4,1,1.163,13
"2950",39,74,1,1,1,4,1,4.426,14
"2951",39,9,1,1,1,4,0,2.545,15
"2952",39,14,1,1,1,3,0,1.29,16
"2953",39,77,1,1,1,4,1,0.832,17
"2954",39,21,1,1,1,4,0,0.688,18
"2955",39,73,1,1,1,4,1,0.92,19
"2956",39,2,1,1,1,3,1,1.511,20
"2957",39,62,1,1,1,5,1,0.739,21
"2958",39,34,1,1,1,4,1,1.161,22
"2959",39,23,1,1,1,5,0,0.786,23
"2960",39,22,1,1,1,4,0,0.872,24
"2961",39,53,1,1,1,4,1,0.491,25
"2962",39,70,1,1,1,4,0,0.725,26
"2963",39,56,1,1,1,4,0,1.273,27
"2964",39,59,1,1,1,4,0,0.663,28
"2965",39,69,1,1,1,5,1,1.075,29
"2966",39,19,1,1,1,4,1,7.363,30
"2967",39,40,1,1,1,3,1,0.566,31
"2968",39,83,1,1,1,3,0,0.534,32
"2969",39,63,1,1,1,6,0,1.014,33
"2970",39,43,1,1,1,6,1,0.59,34
"2971",39,11,1,1,1,5,1,0.722,35
"2972",39,7,1,1,1,4,0,0.947,36
"2973",39,20,1,1,1,4,1,0.551,37
"2974",39,25,1,1,1,4,0,0.576,38
"2975",39,80,1,1,1,3,0,0.617,39
"2976",39,32,1,1,1,4,1,0.483,40
"2977",39,50,1,1,1,4,1,0.613,41
"2978",39,42,1,1,1,4,1,0.505,42
"2979",39,27,1,1,1,4,0,0.58,43
"2980",39,49,1,1,1,5,1,0.869,44
"2981",39,17,1,1,1,4,0,0.547,45
"2982",39,57,1,1,1,5,1,0.65,46
"2983",39,82,1,1,1,3,0,1.068,47
"2984",39,28,1,1,1,5,1,0.698,48
"2985",39,3,1,1,1,5,1,2.386,49
"2986",39,54,1,1,1,5,1,0.543,50
"2987",39,30,1,1,1,5,1,1.876,51
"2988",39,48,1,1,1,4,1,0.514,52
"2989",39,46,1,1,1,3,1,0.557,53
"2990",39,16,1,1,1,4,1,1.664,54
"2991",39,31,1,1,1,4,1,0.546,55
"2992",39,71,1,1,1,4,0,1.293,56
"2993",39,33,1,1,1,4,1,0.458,57
"2994",39,51,1,1,1,4,0,7.855,58
"2995",39,78,1,1,1,4,1,0.437,59
"2996",39,37,1,1,1,4,0,0.539,60
"2997",39,81,1,1,1,3,0,0.441,61
"2998",39,36,1,1,1,4,1,0.504,62
"2999",39,1,1,1,1,3,0,0.662,63
"3000",39,13,1,1,1,3,1,0.456,64
"3001",39,35,1,1,1,4,1,0.489,65
"3002",39,8,1,1,1,4,1,0.516,66
"3003",39,67,1,1,1,4,1,1.064,67
"3004",39,45,1,1,1,5,1,0.558,68
"3005",39,61,1,1,1,2,0,1.729,69
"3006",39,58,1,1,1,4,0,1.74,70
"3007",39,75,1,1,1,4,1,0.547,71
"3008",39,10,1,1,1,3,1,0.993,72
"3009",39,26,1,1,1,2,1,0.689,73
"3010",39,79,1,1,1,4,1,0.98,74
"3011",39,24,1,1,1,5,1,1.065,75
"3012",39,55,1,1,1,3,1,2.098,76
"3013",39,72,1,1,1,2,0,0.527,77
"3014",39,39,1,1,1,3,1,0.525,78
"3015",39,4,1,1,1,4,0,0.612,79
"3016",39,68,1,1,1,5,1,0.752,80
"3017",39,15,1,1,1,5,1,0.815,81
"3018",39,52,1,1,1,5,0,1.079,82
"3019",39,76,1,1,1,4,1,0.679,83
"3020",39,60,1,1,1,4,0,0.483,84
"3021",39,38,1,1,1,5,1,0.539,85
"3022",39,84,1,1,1,4,1,0.844,86
"3023",39,18,1,1,1,5,1,0.647,87
"3024",39,47,1,1,1,3,1,0.571,88
"3025",40,80,1,1,1,3,0,5.869,5
"3026",40,62,1,1,1,5,1,4.455,6
"3027",40,77,1,1,1,5,1,7.557,7
"3028",40,61,1,1,1,3,0,7.393,8
"3029",40,1,1,1,1,4,0,5.611,9
"3030",40,44,1,1,1,6,1,1.102,10
"3031",40,84,1,1,1,4,1,3.456,11
"3032",40,36,1,1,1,3,1,4.623,12
"3033",40,11,1,1,1,5,1,2.026,13
"3034",40,68,1,1,1,5,1,2.285,14
"3035",40,31,1,1,1,4,1,4.384,15
"3036",40,6,1,1,1,5,1,0.888,16
"3037",40,72,1,1,1,4,0,5.418,17
"3038",40,18,1,1,1,6,1,3.445,18
"3039",40,65,1,1,1,6,1,0.892,19
"3040",40,54,1,1,1,5,1,2.533,20
"3041",40,32,1,1,1,4,1,1.848,21
"3042",40,10,1,1,1,3,1,2.129,22
"3043",40,76,1,1,1,3,1,4.572,23
"3044",40,78,1,1,1,4,1,1.611,24
"3045",40,14,1,1,1,5,0,0.925,25
"3046",40,66,1,1,1,5,1,6.268,26
"3047",40,58,1,1,1,3,0,4.356,27
"3048",40,52,1,1,1,5,0,2.398,28
"3049",40,13,1,1,1,3,1,2.348,29
"3050",40,45,1,1,1,6,1,2.249,30
"3051",40,40,1,1,1,5,1,2.17,31
"3052",40,16,1,1,1,6,1,0.999,32
"3053",40,20,1,1,1,3,1,11.957,33
"3054",40,59,1,1,1,4,0,1.127,34
"3055",40,24,1,1,1,4,1,8.812,35
"3056",40,21,1,1,1,5,0,16.207,36
"3057",40,69,1,1,1,6,1,1.725,37
"3058",40,71,1,1,1,5,0,8.982,38
"3059",40,57,1,1,1,5,1,0.694,39
"3060",40,47,1,1,1,6,1,1.108,40
"3061",40,33,1,1,1,5,1,7.629,41
"3062",40,56,1,1,1,5,0,6.89,42
"3063",40,51,1,1,1,1,0,9.222,43
"3064",40,25,1,1,1,4,0,2.17,44
"3065",40,48,1,1,1,4,1,3.209,45
"3066",40,39,1,1,1,5,1,1.247,46
"3067",40,9,1,1,1,4,0,12.271,47
"3068",40,35,1,1,1,6,1,0.838,48
"3069",40,4,1,1,1,5,0,4.264,49
"3070",40,74,1,1,1,2,1,6.737,50
"3071",40,41,1,1,1,6,1,1.684,51
"3072",40,37,1,1,1,4,0,4.505,52
"3073",40,28,1,1,1,5,1,1.11,53
"3074",40,81,1,1,1,5,0,1.489,54
"3075",40,7,1,1,1,3,0,3.721,55
"3076",40,75,1,1,1,6,1,0.891,56
"3077",40,82,1,1,1,4,0,5.872,57
"3078",40,38,1,1,1,6,1,0.581,58
"3079",40,30,1,1,1,5,1,0.795,59
"3080",40,55,1,1,1,4,1,0.976,60
"3081",40,26,1,1,1,4,1,3.964,61
"3082",40,70,1,1,1,3,0,5.708,62
"3083",40,63,1,1,1,2,0,2.396,63
"3084",40,50,1,1,1,5,1,0.669,64
"3085",40,46,1,1,1,4,1,1.374,65
"3086",40,22,1,1,1,4,0,7.352,66
"3087",40,73,1,1,1,5,1,1.08,67
"3088",40,64,1,1,1,5,1,8.105,68
"3089",40,17,1,1,1,3,0,14.844,69
"3090",40,83,1,1,1,4,0,5.815,70
"3091",40,12,1,1,1,3,0,5.494,71
"3092",40,15,1,1,1,5,1,0.759,72
"3093",40,3,1,1,1,5,1,0.665,73
"3094",40,23,1,1,1,5,0,0.753,74
"3095",40,43,1,1,1,4,1,2.161,75
"3096",40,67,1,1,1,3,1,1.027,76
"3097",40,53,1,1,1,5,1,0.801,77
"3098",40,19,1,1,1,5,1,4.451,78
"3099",40,34,1,1,1,4,1,8.284,79
"3100",40,29,1,1,1,4,1,3.331,80
"3101",40,2,1,1,1,3,1,3.493,81
"3102",40,49,1,1,1,4,1,1.661,82
"3103",40,5,1,1,1,6,1,0.6,83
"3104",40,8,1,1,1,5,1,0.75,84
"3105",40,60,1,1,1,5,0,2.141,85
"3106",40,27,1,1,1,4,0,7.505,86
"3107",40,42,1,1,1,5,1,0.776,87
"3108",40,79,1,1,1,5,1,0.86,88
"3109",41,65,1,1,1,2,0,4.133,5
"3110",41,74,1,1,1,5,1,5.283,6
"3111",41,36,1,1,1,5,1,1.861,7
"3112",41,1,1,1,1,4,1,3.658,8
"3113",41,15,1,1,1,4,1,4.992,9
"3114",41,20,1,1,1,5,0,1.985,10
"3115",41,22,1,1,1,5,1,3.308,11
"3116",41,5,1,1,1,5,1,3.085,12
"3117",41,31,1,1,1,5,1,7.045,13
"3118",41,24,1,1,1,5,0,1.483,14
"3119",41,75,1,1,1,6,0,5.192,15
"3120",41,71,1,1,1,5,1,1.473,16
"3121",41,83,1,1,1,5,1,1.1,17
"3122",41,56,1,1,1,6,1,0.869,18
"3123",41,78,1,1,1,4,0,1.689,19
"3124",41,73,1,1,1,5,1,0.51,20
"3125",41,14,1,1,1,5,1,0.846,21
"3126",41,64,1,1,1,6,1,1.688,22
"3127",41,50,1,1,1,4,0,1.846,23
"3128",41,46,1,1,1,5,0,0.97,24
"3129",41,11,1,1,1,5,0,0.988,25
"3130",41,51,1,1,1,6,1,3.445,26
"3131",41,37,1,1,1,5,1,1.517,27
"3132",41,52,1,1,1,5,1,1.211,28
"3133",41,3,1,1,1,6,1,1.417,29
"3134",41,55,1,1,1,5,0,4.305,30
"3135",41,35,1,1,1,5,0,1.698,31
"3136",41,60,1,1,1,5,1,1.987,32
"3137",41,84,1,1,1,5,1,6.021,33
"3138",41,18,1,1,1,4,1,1.785,34
"3139",41,6,1,1,1,1,1,8.444,35
"3140",41,8,1,1,1,1,1,3.917,36
"3141",41,9,1,1,1,4,1,0.738,37
"3142",41,43,1,1,1,5,1,2.296,38
"3143",41,68,1,1,1,4,0,2.181,39
"3144",41,28,1,1,1,4,1,0.712,40
"3145",41,63,1,1,1,6,1,1.023,41
"3146",41,10,1,1,1,4,0,1.478,42
"3147",41,38,1,1,1,5,1,1.4,43
"3148",41,70,1,1,1,3,1,0.783,44
"3149",41,13,1,1,1,4,0,0.686,45
"3150",41,30,1,1,1,5,0,0.731,46
"3151",41,39,1,1,1,4,0,0.724,47
"3152",41,66,1,1,1,4,1,1.551,48
"3153",41,58,1,1,1,4,1,6.721,49
"3154",41,33,1,1,1,4,1,0.538,50
"3155",41,26,1,1,1,4,1,1.957,51
"3156",41,82,1,1,1,4,1,2.188,52
"3157",41,79,1,1,1,4,0,0.894,53
"3158",41,76,1,1,1,3,1,3.656,54
"3159",41,41,1,1,1,4,1,1.135,55
"3160",41,12,1,1,1,5,1,3.837,56
"3161",41,47,1,1,1,6,0,2.331,57
"3162",41,57,1,1,1,4,1,1.092,58
"3163",41,80,1,1,1,4,1,0.844,59
"3164",41,42,1,1,1,4,0,3.918,60
"3165",41,2,1,1,1,4,0,6.801,61
"3166",41,25,1,1,1,4,1,1.6,62
"3167",41,81,1,1,1,5,1,0.434,63
"3168",41,32,1,1,1,4,0,2.959,64
"3169",41,19,1,1,1,4,0,4.381,65
"3170",41,69,1,1,1,4,0,4.72,66
"3171",41,44,1,1,1,6,1,1.309,67
"3172",41,72,1,1,1,4,1,1.166,68
"3173",41,59,1,1,1,4,1,2.1,69
"3174",41,48,1,1,1,5,1,0.52,70
"3175",41,77,1,1,1,2,0,7.052,71
"3176",41,61,1,1,1,4,1,1.301,72
"3177",41,49,1,1,1,3,0,4.281,73
"3178",41,7,1,1,1,5,1,1.303,74
"3179",41,29,1,1,1,5,0,0.792,75
"3180",41,67,1,1,1,4,0,1.925,76
"3181",41,27,1,1,1,4,1,0.838,77
"3182",41,53,1,1,1,5,0,0.946,78
"3183",41,21,1,1,1,1,1,2.379,79
"3184",41,34,1,1,1,1,1,0.76,80
"3185",41,17,1,1,1,2,1,4.372,81
"3186",41,62,1,1,1,3,1,4.389,82
"3187",41,54,1,1,1,5,1,4.366,83
"3188",41,23,1,1,1,3,1,1.635,84
"3189",41,4,1,1,1,4,1,0.838,85
"3190",41,16,1,1,1,3,1,2.869,86
"3191",41,40,1,1,1,4,1,1.117,87
"3192",41,45,1,1,1,4,0,3.453,88
"3193",42,70,1,1,1,1,1,3.751,5
"3194",42,43,1,1,1,4,0,7.817,6
"3195",42,75,1,1,1,4,1,2.564,7
"3196",42,31,1,1,1,5,0,11.656,8
"3197",42,30,1,1,1,4,1,3.207,9
"3198",42,62,1,1,1,1,0,2.522,10
