"","subject","statement_identifier","presentation_identifier","within_identifier","between_identifier","response","repeated","rt","trial"
"1",1,1,1,1,1,0,1,NA,NA
"2",1,2,1,1,1,0,1,NA,NA
"3",1,3,1,1,1,0,1,NA,NA
"4",1,4,1,1,1,1,1,NA,NA
"5",1,5,1,1,1,0,1,NA,NA
"6",1,6,1,1,1,0,1,NA,NA
"7",1,7,1,1,1,1,1,NA,NA
"8",1,8,1,1,1,0,1,NA,NA
"9",1,9,1,1,1,0,1,NA,NA
"10",1,10,1,1,1,1,1,NA,NA
"11",1,11,1,1,1,0,1,NA,NA
"12",1,12,1,1,1,1,1,NA,NA
"13",1,13,1,1,1,0,1,NA,NA
"14",1,14,1,1,1,1,1,NA,NA
"15",1,15,1,1,1,0,1,NA,NA
"16",1,16,1,1,1,1,1,NA,NA
"17",1,17,1,1,1,0,1,NA,NA
"18",1,18,1,1,1,1,1,NA,NA
"19",1,19,1,1,1,1,1,NA,NA
"20",1,20,1,1,1,1,1,NA,NA
"21",1,21,1,1,1,1,1,NA,NA
"22",1,22,1,1,1,1,1,NA,NA
"23",1,23,1,1,1,0,1,NA,NA
"24",1,24,1,1,1,0,1,NA,NA
"25",1,25,1,1,1,0,1,NA,NA
"26",1,26,1,1,1,0,1,NA,NA
"27",1,27,1,1,1,0,1,NA,NA
"28",1,28,1,1,1,0,1,NA,NA
"29",1,29,1,1,1,0,1,NA,NA
"30",1,30,1,1,1,0,1,NA,NA
"31",1,31,1,1,1,0,1,NA,NA
"32",1,32,1,1,1,1,1,NA,NA
"33",1,33,1,1,1,0,1,NA,NA
"34",1,34,1,1,1,0,1,NA,NA
"35",1,35,1,1,1,0,1,NA,NA
"36",1,36,1,1,1,1,1,NA,NA
"37",1,37,1,1,1,0,1,NA,NA
"38",1,38,1,1,1,0,1,NA,NA
"39",1,39,1,1,1,1,1,NA,NA
"40",1,40,1,1,1,0,1,NA,NA
"41",1,41,1,1,1,1,0,NA,NA
"42",1,42,1,1,1,0,0,NA,NA
"43",1,43,1,1,1,0,0,NA,NA
"44",1,44,1,1,1,0,0,NA,NA
"45",1,45,1,1,1,0,0,NA,NA
"46",1,46,1,1,1,0,0,NA,NA
"47",1,47,1,1,1,0,0,NA,NA
"48",1,48,1,1,1,0,0,NA,NA
"49",1,49,1,1,1,0,0,NA,NA
"50",1,50,1,1,1,1,0,NA,NA
"51",1,51,1,1,1,1,0,NA,NA
"52",1,52,1,1,1,0,0,NA,NA
"53",1,53,1,1,1,1,0,NA,NA
"54",1,54,1,1,1,1,0,NA,NA
"55",1,55,1,1,1,0,0,NA,NA
"56",1,56,1,1,1,0,0,NA,NA
"57",1,57,1,1,1,0,0,NA,NA
"58",1,58,1,1,1,0,0,NA,NA
"59",1,59,1,1,1,0,0,NA,NA
"60",1,60,1,1,1,1,0,NA,NA
"61",1,61,1,1,1,0,0,NA,NA
"62",1,62,1,1,1,0,0,NA,NA
"63",1,63,1,1,1,1,0,NA,NA
"64",1,64,1,1,1,1,0,NA,NA
"65",1,65,1,1,1,1,0,NA,NA
"66",1,66,1,1,1,0,0,NA,NA
"67",1,67,1,1,1,0,0,NA,NA
"68",1,68,1,1,1,1,0,NA,NA
"69",1,69,1,1,1,0,0,NA,NA
"70",1,70,1,1,1,0,0,NA,NA
"71",1,71,1,1,1,1,0,NA,NA
"72",1,72,1,1,1,1,0,NA,NA
"73",1,73,1,1,1,0,0,NA,NA
"74",1,74,1,1,1,1,0,NA,NA
"75",1,75,1,1,1,0,0,NA,NA
"76",1,76,1,1,1,0,0,NA,NA
"77",1,77,1,1,1,0,0,NA,NA
"78",1,78,1,1,1,0,0,NA,NA
"79",1,79,1,1,1,0,0,NA,NA
"80",1,80,1,1,1,0,0,NA,NA
"81",10,1,1,1,1,0,1,NA,NA
"82",10,2,1,1,1,0,1,NA,NA
"83",10,3,1,1,1,0,1,NA,NA
"84",10,4,1,1,1,0,1,NA,NA
"85",10,5,1,1,1,0,1,NA,NA
"86",10,6,1,1,1,0,1,NA,NA
"87",10,7,1,1,1,0,1,NA,NA
"88",10,8,1,1,1,1,1,NA,NA
"89",10,9,1,1,1,0,1,NA,NA
"90",10,10,1,1,1,0,1,NA,NA
"91",10,11,1,1,1,0,1,NA,NA
"92",10,12,1,1,1,1,1,NA,NA
"93",10,13,1,1,1,1,1,NA,NA
"94",10,14,1,1,1,0,1,NA,NA
"95",10,15,1,1,1,1,1,NA,NA
"96",10,16,1,1,1,0,1,NA,NA
"97",10,17,1,1,1,0,1,NA,NA
"98",10,18,1,1,1,0,1,NA,NA
"99",10,19,1,1,1,1,1,NA,NA
"100",10,20,1,1,1,1,1,NA,NA
"101",10,21,1,1,1,0,1,NA,NA
"102",10,22,1,1,1,1,1,NA,NA
"103",10,23,1,1,1,0,1,NA,NA
"104",10,24,1,1,1,0,1,NA,NA
"105",10,25,1,1,1,0,1,NA,NA
"106",10,26,1,1,1,0,1,NA,NA
"107",10,27,1,1,1,0,1,NA,NA
"108",10,28,1,1,1,0,1,NA,NA
"109",10,29,1,1,1,1,1,NA,NA
"110",10,30,1,1,1,0,1,NA,NA
"111",10,31,1,1,1,0,1,NA,NA
"112",10,32,1,1,1,0,1,NA,NA
"113",10,33,1,1,1,1,1,NA,NA
"114",10,34,1,1,1,0,1,NA,NA
"115",10,35,1,1,1,1,1,NA,NA
"116",10,36,1,1,1,1,1,NA,NA
"117",10,37,1,1,1,1,1,NA,NA
"118",10,38,1,1,1,1,1,NA,NA
"119",10,39,1,1,1,1,1,NA,NA
"120",10,40,1,1,1,0,1,NA,NA
"121",10,41,1,1,1,1,0,NA,NA
"122",10,42,1,1,1,0,0,NA,NA
"123",10,43,1,1,1,0,0,NA,NA
"124",10,44,1,1,1,0,0,NA,NA
"125",10,45,1,1,1,1,0,NA,NA
"126",10,46,1,1,1,0,0,NA,NA
"127",10,47,1,1,1,1,0,NA,NA
"128",10,48,1,1,1,0,0,NA,NA
"129",10,49,1,1,1,0,0,NA,NA
"130",10,50,1,1,1,1,0,NA,NA
"131",10,51,1,1,1,0,0,NA,NA
"132",10,52,1,1,1,0,0,NA,NA
"133",10,53,1,1,1,0,0,NA,NA
"134",10,54,1,1,1,0,0,NA,NA
"135",10,55,1,1,1,1,0,NA,NA
"136",10,56,1,1,1,1,0,NA,NA
"137",10,57,1,1,1,0,0,NA,NA
"138",10,58,1,1,1,1,0,NA,NA
"139",10,59,1,1,1,0,0,NA,NA
"140",10,60,1,1,1,0,0,NA,NA
"141",10,61,1,1,1,0,0,NA,NA
"142",10,62,1,1,1,0,0,NA,NA
"143",10,63,1,1,1,0,0,NA,NA
"144",10,64,1,1,1,1,0,NA,NA
"145",10,65,1,1,1,0,0,NA,NA
"146",10,66,1,1,1,1,0,NA,NA
"147",10,67,1,1,1,1,0,NA,NA
"148",10,68,1,1,1,0,0,NA,NA
"149",10,69,1,1,1,0,0,NA,NA
"150",10,70,1,1,1,0,0,NA,NA
"151",10,71,1,1,1,1,0,NA,NA
"152",10,72,1,1,1,1,0,NA,NA
"153",10,73,1,1,1,0,0,NA,NA
"154",10,74,1,1,1,0,0,NA,NA
"155",10,75,1,1,1,0,0,NA,NA
"156",10,76,1,1,1,1,0,NA,NA
"157",10,77,1,1,1,1,0,NA,NA
"158",10,78,1,1,1,0,0,NA,NA
"159",10,79,1,1,1,0,0,NA,NA
"160",10,80,1,1,1,1,0,NA,NA
"161",11,41,1,1,1,1,1,NA,NA
"162",11,42,1,1,1,0,1,NA,NA
"163",11,43,1,1,1,1,1,NA,NA
"164",11,44,1,1,1,1,1,NA,NA
"165",11,45,1,1,1,1,1,NA,NA
"166",11,46,1,1,1,1,1,NA,NA
"167",11,47,1,1,1,1,1,NA,NA
"168",11,48,1,1,1,1,1,NA,NA
"169",11,49,1,1,1,1,1,NA,NA
"170",11,50,1,1,1,1,1,NA,NA
"171",11,51,1,1,1,1,1,NA,NA
"172",11,52,1,1,1,1,1,NA,NA
"173",11,53,1,1,1,1,1,NA,NA
"174",11,54,1,1,1,1,1,NA,NA
"175",11,55,1,1,1,1,1,NA,NA
"176",11,56,1,1,1,1,1,NA,NA
"177",11,57,1,1,1,1,1,NA,NA
"178",11,58,1,1,1,1,1,NA,NA
"179",11,59,1,1,1,1,1,NA,NA
"180",11,81,1,1,1,1,1,NA,NA
"181",11,61,1,1,1,0,1,NA,NA
"182",11,62,1,1,1,0,1,NA,NA
"183",11,63,1,1,1,0,1,NA,NA
"184",11,64,1,1,1,1,1,NA,NA
"185",11,65,1,1,1,1,1,NA,NA
"186",11,66,1,1,1,0,1,NA,NA
"187",11,67,1,1,1,1,1,NA,NA
"188",11,68,1,1,1,1,1,NA,NA
"189",11,69,1,1,1,0,1,NA,NA
"190",11,70,1,1,1,1,1,NA,NA
"191",11,71,1,1,1,1,1,NA,NA
"192",11,72,1,1,1,1,1,NA,NA
"193",11,73,1,1,1,1,1,NA,NA
"194",11,74,1,1,1,1,1,NA,NA
"195",11,75,1,1,1,0,1,NA,NA
"196",11,76,1,1,1,1,1,NA,NA
"197",11,77,1,1,1,1,1,NA,NA
"198",11,78,1,1,1,1,1,NA,NA
"199",11,79,1,1,1,1,1,NA,NA
"200",11,80,1,1,1,0,1,NA,NA
"201",11,1,1,1,1,1,0,NA,NA
"202",11,2,1,1,1,1,0,NA,NA
"203",11,3,1,1,1,1,0,NA,NA
"204",11,4,1,1,1,1,0,NA,NA
"205",11,5,1,1,1,0,0,NA,NA
"206",11,6,1,1,1,0,0,NA,NA
"207",11,7,1,1,1,0,0,NA,NA
"208",11,8,1,1,1,1,0,NA,NA
"209",11,9,1,1,1,1,0,NA,NA
"210",11,10,1,1,1,0,0,NA,NA
"211",11,11,1,1,1,0,0,NA,NA
"212",11,12,1,1,1,1,0,NA,NA
"213",11,13,1,1,1,1,0,NA,NA
"214",11,14,1,1,1,1,0,NA,NA
"215",11,15,1,1,1,1,0,NA,NA
"216",11,16,1,1,1,0,0,NA,NA
"217",11,17,1,1,1,1,0,NA,NA
"218",11,18,1,1,1,0,0,NA,NA
"219",11,19,1,1,1,0,0,NA,NA
"220",11,20,1,1,1,0,0,NA,NA
"221",11,21,1,1,1,0,0,NA,NA
"222",11,22,1,1,1,1,0,NA,NA
"223",11,23,1,1,1,1,0,NA,NA
"224",11,24,1,1,1,1,0,NA,NA
"225",11,25,1,1,1,1,0,NA,NA
"226",11,26,1,1,1,0,0,NA,NA
"227",11,27,1,1,1,1,0,NA,NA
"228",11,28,1,1,1,0,0,NA,NA
"229",11,29,1,1,1,1,0,NA,NA
"230",11,30,1,1,1,1,0,NA,NA
"231",11,31,1,1,1,1,0,NA,NA
"232",11,32,1,1,1,1,0,NA,NA
"233",11,33,1,1,1,1,0,NA,NA
"234",11,34,1,1,1,1,0,NA,NA
"235",11,35,1,1,1,1,0,NA,NA
"236",11,36,1,1,1,1,0,NA,NA
"237",11,37,1,1,1,1,0,NA,NA
"238",11,38,1,1,1,1,0,NA,NA
"239",11,39,1,1,1,1,0,NA,NA
"240",11,40,1,1,1,1,0,NA,NA
"241",13,41,1,1,1,1,1,NA,NA
"242",13,42,1,1,1,0,1,NA,NA
"243",13,43,1,1,1,1,1,NA,NA
"244",13,44,1,1,1,0,1,NA,NA
"245",13,45,1,1,1,0,1,NA,NA
"246",13,46,1,1,1,1,1,NA,NA
"247",13,47,1,1,1,1,1,NA,NA
"248",13,48,1,1,1,0,1,NA,NA
"249",13,49,1,1,1,1,1,NA,NA
"250",13,50,1,1,1,1,1,NA,NA
"251",13,51,1,1,1,0,1,NA,NA
"252",13,52,1,1,1,1,1,NA,NA
"253",13,53,1,1,1,1,1,NA,NA
"254",13,54,1,1,1,1,1,NA,NA
"255",13,55,1,1,1,1,1,NA,NA
"256",13,56,1,1,1,1,1,NA,NA
"257",13,57,1,1,1,0,1,NA,NA
"258",13,58,1,1,1,0,1,NA,NA
"259",13,59,1,1,1,1,1,NA,NA
"260",13,81,1,1,1,1,1,NA,NA
"261",13,61,1,1,1,1,1,NA,NA
"262",13,62,1,1,1,1,1,NA,NA
"263",13,63,1,1,1,0,1,NA,NA
"264",13,64,1,1,1,1,1,NA,NA
"265",13,65,1,1,1,1,1,NA,NA
"266",13,66,1,1,1,1,1,NA,NA
"267",13,67,1,1,1,1,1,NA,NA
"268",13,68,1,1,1,0,1,NA,NA
"269",13,69,1,1,1,0,1,NA,NA
"270",13,70,1,1,1,0,1,NA,NA
"271",13,71,1,1,1,1,1,NA,NA
"272",13,72,1,1,1,1,1,NA,NA
"273",13,73,1,1,1,1,1,NA,NA
"274",13,74,1,1,1,1,1,NA,NA
"275",13,75,1,1,1,0,1,NA,NA
"276",13,76,1,1,1,1,1,NA,NA
"277",13,77,1,1,1,1,1,NA,NA
"278",13,78,1,1,1,0,1,NA,NA
"279",13,79,1,1,1,0,1,NA,NA
"280",13,80,1,1,1,1,1,NA,NA
"281",13,1,1,1,1,0,0,NA,NA
"282",13,2,1,1,1,1,0,NA,NA
"283",13,3,1,1,1,1,0,NA,NA
"284",13,4,1,1,1,1,0,NA,NA
"285",13,5,1,1,1,0,0,NA,NA
"286",13,6,1,1,1,0,0,NA,NA
"287",13,7,1,1,1,0,0,NA,NA
"288",13,8,1,1,1,0,0,NA,NA
"289",13,9,1,1,1,1,0,NA,NA
"290",13,10,1,1,1,1,0,NA,NA
"291",13,11,1,1,1,1,0,NA,NA
"292",13,12,1,1,1,0,0,NA,NA
"293",13,13,1,1,1,0,0,NA,NA
"294",13,14,1,1,1,0,0,NA,NA
"295",13,15,1,1,1,1,0,NA,NA
"296",13,16,1,1,1,0,0,NA,NA
"297",13,17,1,1,1,0,0,NA,NA
"298",13,18,1,1,1,1,0,NA,NA
"299",13,19,1,1,1,0,0,NA,NA
"300",13,20,1,1,1,1,0,NA,NA
"301",13,21,1,1,1,1,0,NA,NA
"302",13,22,1,1,1,0,0,NA,NA
"303",13,23,1,1,1,1,0,NA,NA
"304",13,24,1,1,1,1,0,NA,NA
"305",13,25,1,1,1,1,0,NA,NA
"306",13,26,1,1,1,0,0,NA,NA
"307",13,27,1,1,1,1,0,NA,NA
"308",13,28,1,1,1,1,0,NA,NA
"309",13,29,1,1,1,1,0,NA,NA
"310",13,30,1,1,1,0,0,NA,NA
"311",13,31,1,1,1,0,0,NA,NA
"312",13,32,1,1,1,1,0,NA,NA
"313",13,33,1,1,1,0,0,NA,NA
"314",13,34,1,1,1,1,0,NA,NA
"315",13,35,1,1,1,0,0,NA,NA
"316",13,36,1,1,1,1,0,NA,NA
"317",13,37,1,1,1,1,0,NA,NA
"318",13,38,1,1,1,0,0,NA,NA
"319",13,39,1,1,1,0,0,NA,NA
"320",13,40,1,1,1,1,0,NA,NA
"321",14,1,1,1,1,1,1,NA,NA
"322",14,2,1,1,1,1,1,NA,NA
"323",14,3,1,1,1,0,1,NA,NA
"324",14,4,1,1,1,1,1,NA,NA
"325",14,5,1,1,1,1,1,NA,NA
"326",14,6,1,1,1,1,1,NA,NA
"327",14,7,1,1,1,1,1,NA,NA
"328",14,8,1,1,1,1,1,NA,NA
"329",14,9,1,1,1,0,1,NA,NA
"330",14,10,1,1,1,1,1,NA,NA
"331",14,11,1,1,1,1,1,NA,NA
"332",14,12,1,1,1,1,1,NA,NA
"333",14,13,1,1,1,1,1,NA,NA
"334",14,14,1,1,1,1,1,NA,NA
"335",14,15,1,1,1,0,1,NA,NA
"336",14,16,1,1,1,1,1,NA,NA
"337",14,17,1,1,1,1,1,NA,NA
"338",14,18,1,1,1,1,1,NA,NA
"339",14,19,1,1,1,1,1,NA,NA
"340",14,20,1,1,1,1,1,NA,NA
"341",14,21,1,1,1,1,1,NA,NA
"342",14,22,1,1,1,0,1,NA,NA
"343",14,23,1,1,1,1,1,NA,NA
"344",14,24,1,1,1,1,1,NA,NA
"345",14,25,1,1,1,1,1,NA,NA
"346",14,26,1,1,1,1,1,NA,NA
"347",14,27,1,1,1,0,1,NA,NA
"348",14,28,1,1,1,1,1,NA,NA
"349",14,29,1,1,1,1,1,NA,NA
"350",14,30,1,1,1,1,1,NA,NA
"351",14,31,1,1,1,1,1,NA,NA
"352",14,32,1,1,1,1,1,NA,NA
"353",14,33,1,1,1,1,1,NA,NA
"354",14,34,1,1,1,1,1,NA,NA
"355",14,35,1,1,1,0,1,NA,NA
"356",14,36,1,1,1,1,1,NA,NA
"357",14,37,1,1,1,0,1,NA,NA
"358",14,38,1,1,1,1,1,NA,NA
"359",14,39,1,1,1,1,1,NA,NA
"360",14,40,1,1,1,1,1,NA,NA
"361",14,41,1,1,1,0,0,NA,NA
"362",14,42,1,1,1,1,0,NA,NA
"363",14,43,1,1,1,1,0,NA,NA
"364",14,44,1,1,1,1,0,NA,NA
"365",14,45,1,1,1,0,0,NA,NA
"366",14,46,1,1,1,0,0,NA,NA
"367",14,47,1,1,1,1,0,NA,NA
"368",14,48,1,1,1,1,0,NA,NA
"369",14,49,1,1,1,1,0,NA,NA
"370",14,50,1,1,1,0,0,NA,NA
"371",14,51,1,1,1,1,0,NA,NA
"372",14,52,1,1,1,1,0,NA,NA
"373",14,53,1,1,1,1,0,NA,NA
"374",14,54,1,1,1,0,0,NA,NA
"375",14,55,1,1,1,1,0,NA,NA
"376",14,56,1,1,1,0,0,NA,NA
"377",14,57,1,1,1,1,0,NA,NA
"378",14,58,1,1,1,1,0,NA,NA
"379",14,59,1,1,1,1,0,NA,NA
"380",14,60,1,1,1,1,0,NA,NA
"381",14,61,1,1,1,0,0,NA,NA
"382",14,62,1,1,1,1,0,NA,NA
"383",14,63,1,1,1,0,0,NA,NA
"384",14,64,1,1,1,1,0,NA,NA
"385",14,65,1,1,1,0,0,NA,NA
"386",14,66,1,1,1,0,0,NA,NA
"387",14,67,1,1,1,0,0,NA,NA
"388",14,68,1,1,1,1,0,NA,NA
"389",14,69,1,1,1,0,0,NA,NA
"390",14,70,1,1,1,1,0,NA,NA
"391",14,71,1,1,1,0,0,NA,NA
"392",14,72,1,1,1,0,0,NA,NA
"393",14,73,1,1,1,0,0,NA,NA
"394",14,74,1,1,1,1,0,NA,NA
"395",14,75,1,1,1,0,0,NA,NA
"396",14,76,1,1,1,1,0,NA,NA
"397",14,77,1,1,1,1,0,NA,NA
"398",14,78,1,1,1,0,0,NA,NA
"399",14,79,1,1,1,1,0,NA,NA
"400",14,80,1,1,1,1,0,NA,NA
"401",15,41,1,1,1,0,1,NA,NA
"402",15,42,1,1,1,0,1,NA,NA
"403",15,43,1,1,1,1,1,NA,NA
"404",15,44,1,1,1,0,1,NA,NA
"405",15,45,1,1,1,0,1,NA,NA
"406",15,46,1,1,1,1,1,NA,NA
"407",15,47,1,1,1,0,1,NA,NA
"408",15,48,1,1,1,1,1,NA,NA
"409",15,49,1,1,1,1,1,NA,NA
"410",15,50,1,1,1,1,1,NA,NA
"411",15,51,1,1,1,1,1,NA,NA
"412",15,52,1,1,1,1,1,NA,NA
"413",15,53,1,1,1,1,1,NA,NA
"414",15,54,1,1,1,1,1,NA,NA
"415",15,55,1,1,1,1,1,NA,NA
"416",15,56,1,1,1,0,1,NA,NA
"417",15,57,1,1,1,0,1,NA,NA
"418",15,58,1,1,1,1,1,NA,NA
"419",15,59,1,1,1,1,1,NA,NA
"420",15,81,1,1,1,1,1,NA,NA
"421",15,61,1,1,1,1,1,NA,NA
"422",15,62,1,1,1,1,1,NA,NA
"423",15,63,1,1,1,0,1,NA,NA
"424",15,64,1,1,1,1,1,NA,NA
"425",15,65,1,1,1,0,1,NA,NA
"426",15,66,1,1,1,1,1,NA,NA
"427",15,67,1,1,1,1,1,NA,NA
"428",15,68,1,1,1,0,1,NA,NA
"429",15,69,1,1,1,0,1,NA,NA
"430",15,70,1,1,1,0,1,NA,NA
"431",15,71,1,1,1,0,1,NA,NA
"432",15,72,1,1,1,0,1,NA,NA
"433",15,73,1,1,1,0,1,NA,NA
"434",15,74,1,1,1,0,1,NA,NA
"435",15,75,1,1,1,1,1,NA,NA
"436",15,76,1,1,1,1,1,NA,NA
"437",15,77,1,1,1,0,1,NA,NA
"438",15,78,1,1,1,0,1,NA,NA
"439",15,79,1,1,1,0,1,NA,NA
"440",15,80,1,1,1,0,1,NA,NA
"441",15,1,1,1,1,1,0,NA,NA
"442",15,2,1,1,1,0,0,NA,NA
"443",15,3,1,1,1,0,0,NA,NA
"444",15,4,1,1,1,0,0,NA,NA
"445",15,5,1,1,1,0,0,NA,NA
"446",15,6,1,1,1,0,0,NA,NA
"447",15,7,1,1,1,1,0,NA,NA
"448",15,8,1,1,1,1,0,NA,NA
"449",15,9,1,1,1,0,0,NA,NA
"450",15,10,1,1,1,1,0,NA,NA
"451",15,11,1,1,1,0,0,NA,NA
"452",15,12,1,1,1,1,0,NA,NA
"453",15,13,1,1,1,1,0,NA,NA
"454",15,14,1,1,1,0,0,NA,NA
"455",15,15,1,1,1,1,0,NA,NA
"456",15,16,1,1,1,1,0,NA,NA
"457",15,17,1,1,1,1,0,NA,NA
"458",15,18,1,1,1,1,0,NA,NA
"459",15,19,1,1,1,1,0,NA,NA
"460",15,20,1,1,1,1,0,NA,NA
"461",15,21,1,1,1,1,0,NA,NA
"462",15,22,1,1,1,1,0,NA,NA
"463",15,23,1,1,1,0,0,NA,NA
"464",15,24,1,1,1,1,0,NA,NA
"465",15,25,1,1,1,0,0,NA,NA
"466",15,26,1,1,1,0,0,NA,NA
"467",15,27,1,1,1,0,0,NA,NA
"468",15,28,1,1,1,1,0,NA,NA
"469",15,29,1,1,1,0,0,NA,NA
"470",15,30,1,1,1,1,0,NA,NA
"471",15,31,1,1,1,0,0,NA,NA
"472",15,32,1,1,1,1,0,NA,NA
"473",15,33,1,1,1,0,0,NA,NA
"474",15,34,1,1,1,1,0,NA,NA
"475",15,35,1,1,1,1,0,NA,NA
"476",15,36,1,1,1,0,0,NA,NA
"477",15,37,1,1,1,0,0,NA,NA
"478",15,38,1,1,1,1,0,NA,NA
"479",15,39,1,1,1,1,0,NA,NA
"480",15,40,1,1,1,0,0,NA,NA
"481",16,1,1,1,1,1,1,NA,NA
"482",16,2,1,1,1,1,1,NA,NA
"483",16,3,1,1,1,1,1,NA,NA
"484",16,4,1,1,1,1,1,NA,NA
"485",16,5,1,1,1,1,1,NA,NA
"486",16,6,1,1,1,1,1,NA,NA
"487",16,7,1,1,1,1,1,NA,NA
"488",16,8,1,1,1,1,1,NA,NA
"489",16,9,1,1,1,1,1,NA,NA
"490",16,10,1,1,1,1,1,NA,NA
"491",16,11,1,1,1,1,1,NA,NA
"492",16,12,1,1,1,1,1,NA,NA
"493",16,13,1,1,1,1,1,NA,NA
"494",16,14,1,1,1,1,1,NA,NA
"495",16,15,1,1,1,1,1,NA,NA
"496",16,16,1,1,1,1,1,NA,NA
"497",16,17,1,1,1,1,1,NA,NA
"498",16,18,1,1,1,1,1,NA,NA
"499",16,19,1,1,1,1,1,NA,NA
"500",16,20,1,1,1,1,1,NA,NA
"501",16,21,1,1,1,1,1,NA,NA
"502",16,22,1,1,1,1,1,NA,NA
"503",16,23,1,1,1,1,1,NA,NA
"504",16,24,1,1,1,1,1,NA,NA
"505",16,25,1,1,1,1,1,NA,NA
"506",16,26,1,1,1,1,1,NA,NA
"507",16,27,1,1,1,1,1,NA,NA
"508",16,28,1,1,1,1,1,NA,NA
"509",16,29,1,1,1,1,1,NA,NA
"510",16,30,1,1,1,1,1,NA,NA
"511",16,31,1,1,1,1,1,NA,NA
"512",16,32,1,1,1,1,1,NA,NA
"513",16,33,1,1,1,1,1,NA,NA
"514",16,34,1,1,1,1,1,NA,NA
"515",16,35,1,1,1,1,1,NA,NA
"516",16,36,1,1,1,1,1,NA,NA
"517",16,37,1,1,1,1,1,NA,NA
"518",16,38,1,1,1,0,1,NA,NA
"519",16,39,1,1,1,0,1,NA,NA
"520",16,40,1,1,1,1,1,NA,NA
"521",16,41,1,1,1,1,0,NA,NA
"522",16,42,1,1,1,1,0,NA,NA
"523",16,43,1,1,1,1,0,NA,NA
"524",16,44,1,1,1,0,0,NA,NA
"525",16,45,1,1,1,0,0,NA,NA
"526",16,46,1,1,1,1,0,NA,NA
"527",16,47,1,1,1,0,0,NA,NA
"528",16,48,1,1,1,1,0,NA,NA
"529",16,49,1,1,1,0,0,NA,NA
"530",16,50,1,1,1,1,0,NA,NA
"531",16,51,1,1,1,0,0,NA,NA
"532",16,52,1,1,1,1,0,NA,NA
"533",16,53,1,1,1,0,0,NA,NA
"534",16,54,1,1,1,1,0,NA,NA
"535",16,55,1,1,1,0,0,NA,NA
"536",16,56,1,1,1,1,0,NA,NA
"537",16,57,1,1,1,0,0,NA,NA
"538",16,58,1,1,1,0,0,NA,NA
"539",16,59,1,1,1,1,0,NA,NA
"540",16,60,1,1,1,1,0,NA,NA
"541",16,61,1,1,1,1,0,NA,NA
"542",16,62,1,1,1,1,0,NA,NA
"543",16,63,1,1,1,0,0,NA,NA
"544",16,64,1,1,1,0,0,NA,NA
"545",16,65,1,1,1,1,0,NA,NA
"546",16,66,1,1,1,0,0,NA,NA
"547",16,67,1,1,1,0,0,NA,NA
"548",16,68,1,1,1,1,0,NA,NA
"549",16,69,1,1,1,0,0,NA,NA
"550",16,70,1,1,1,1,0,NA,NA
"551",16,71,1,1,1,1,0,NA,NA
"552",16,72,1,1,1,1,0,NA,NA
"553",16,73,1,1,1,0,0,NA,NA
"554",16,74,1,1,1,0,0,NA,NA
"555",16,75,1,1,1,0,0,NA,NA
"556",16,76,1,1,1,1,0,NA,NA
"557",16,77,1,1,1,1,0,NA,NA
"558",16,78,1,1,1,1,0,NA,NA
"559",16,79,1,1,1,0,0,NA,NA
"560",16,80,1,1,1,1,0,NA,NA
"561",17,41,1,1,1,1,1,NA,NA
"562",17,42,1,1,1,1,1,NA,NA
"563",17,43,1,1,1,1,1,NA,NA
"564",17,44,1,1,1,1,1,NA,NA
"565",17,45,1,1,1,1,1,NA,NA
"566",17,46,1,1,1,1,1,NA,NA
"567",17,47,1,1,1,1,1,NA,NA
"568",17,48,1,1,1,1,1,NA,NA
"569",17,49,1,1,1,1,1,NA,NA
"570",17,50,1,1,1,0,1,NA,NA
"571",17,51,1,1,1,1,1,NA,NA
"572",17,52,1,1,1,1,1,NA,NA
"573",17,53,1,1,1,1,1,NA,NA
"574",17,54,1,1,1,1,1,NA,NA
"575",17,55,1,1,1,1,1,NA,NA
"576",17,56,1,1,1,0,1,NA,NA
"577",17,57,1,1,1,1,1,NA,NA
"578",17,58,1,1,1,1,1,NA,NA
"579",17,59,1,1,1,1,1,NA,NA
"580",17,81,1,1,1,1,1,NA,NA
"581",17,61,1,1,1,1,1,NA,NA
"582",17,62,1,1,1,1,1,NA,NA
"583",17,63,1,1,1,1,1,NA,NA
"584",17,64,1,1,1,0,1,NA,NA
"585",17,65,1,1,1,1,1,NA,NA
"586",17,66,1,1,1,1,1,NA,NA
"587",17,67,1,1,1,0,1,NA,NA
"588",17,68,1,1,1,0,1,NA,NA
"589",17,69,1,1,1,0,1,NA,NA
"590",17,70,1,1,1,1,1,NA,NA
"591",17,71,1,1,1,1,1,NA,NA
"592",17,72,1,1,1,0,1,NA,NA
"593",17,73,1,1,1,1,1,NA,NA
"594",17,74,1,1,1,1,1,NA,NA
"595",17,75,1,1,1,0,1,NA,NA
"596",17,76,1,1,1,1,1,NA,NA
"597",17,77,1,1,1,1,1,NA,NA
"598",17,78,1,1,1,1,1,NA,NA
"599",17,79,1,1,1,1,1,NA,NA
"600",17,80,1,1,1,0,1,NA,NA
"601",17,1,1,1,1,1,0,NA,NA
"602",17,2,1,1,1,0,0,NA,NA
"603",17,3,1,1,1,1,0,NA,NA
"604",17,4,1,1,1,0,0,NA,NA
"605",17,5,1,1,1,0,0,NA,NA
"606",17,6,1,1,1,0,0,NA,NA
"607",17,7,1,1,1,1,0,NA,NA
"608",17,8,1,1,1,0,0,NA,NA
"609",17,9,1,1,1,1,0,NA,NA
"610",17,10,1,1,1,0,0,NA,NA
"611",17,11,1,1,1,0,0,NA,NA
"612",17,12,1,1,1,0,0,NA,NA
"613",17,13,1,1,1,1,0,NA,NA
"614",17,14,1,1,1,0,0,NA,NA
"615",17,15,1,1,1,1,0,NA,NA
"616",17,16,1,1,1,0,0,NA,NA
"617",17,17,1,1,1,0,0,NA,NA
"618",17,18,1,1,1,0,0,NA,NA
"619",17,19,1,1,1,0,0,NA,NA
"620",17,20,1,1,1,1,0,NA,NA
"621",17,21,1,1,1,1,0,NA,NA
"622",17,22,1,1,1,0,0,NA,NA
"623",17,23,1,1,1,0,0,NA,NA
"624",17,24,1,1,1,1,0,NA,NA
"625",17,25,1,1,1,0,0,NA,NA
"626",17,26,1,1,1,1,0,NA,NA
"627",17,27,1,1,1,1,0,NA,NA
"628",17,28,1,1,1,0,0,NA,NA
"629",17,29,1,1,1,1,0,NA,NA
"630",17,30,1,1,1,0,0,NA,NA
"631",17,31,1,1,1,1,0,NA,NA
"632",17,32,1,1,1,0,0,NA,NA
"633",17,33,1,1,1,0,0,NA,NA
"634",17,34,1,1,1,0,0,NA,NA
"635",17,35,1,1,1,1,0,NA,NA
"636",17,36,1,1,1,0,0,NA,NA
"637",17,37,1,1,1,0,0,NA,NA
"638",17,38,1,1,1,1,0,NA,NA
"639",17,39,1,1,1,1,0,NA,NA
"640",17,40,1,1,1,1,0,NA,NA
"641",18,41,1,1,1,1,1,NA,NA
"642",18,42,1,1,1,1,1,NA,NA
"643",18,43,1,1,1,0,1,NA,NA
"644",18,44,1,1,1,1,1,NA,NA
"645",18,45,1,1,1,1,1,NA,NA
"646",18,46,1,1,1,1,1,NA,NA
"647",18,47,1,1,1,1,1,NA,NA
"648",18,48,1,1,1,1,1,NA,NA
"649",18,49,1,1,1,0,1,NA,NA
"650",18,50,1,1,1,1,1,NA,NA
"651",18,51,1,1,1,1,1,NA,NA
"652",18,52,1,1,1,1,1,NA,NA
"653",18,53,1,1,1,1,1,NA,NA
"654",18,54,1,1,1,1,1,NA,NA
"655",18,55,1,1,1,1,1,NA,NA
"656",18,56,1,1,1,1,1,NA,NA
"657",18,57,1,1,1,0,1,NA,NA
"658",18,58,1,1,1,1,1,NA,NA
"659",18,59,1,1,1,1,1,NA,NA
"660",18,81,1,1,1,1,1,NA,NA
"661",18,61,1,1,1,0,1,NA,NA
"662",18,62,1,1,1,0,1,NA,NA
"663",18,63,1,1,1,0,1,NA,NA
"664",18,64,1,1,1,1,1,NA,NA
"665",18,65,1,1,1,1,1,NA,NA
"666",18,66,1,1,1,1,1,NA,NA
"667",18,67,1,1,1,1,1,NA,NA
"668",18,68,1,1,1,1,1,NA,NA
"669",18,69,1,1,1,1,1,NA,NA
"670",18,70,1,1,1,1,1,NA,NA
"671",18,71,1,1,1,1,1,NA,NA
"672",18,72,1,1,1,1,1,NA,NA
"673",18,73,1,1,1,1,1,NA,NA
"674",18,74,1,1,1,1,1,NA,NA
"675",18,75,1,1,1,1,1,NA,NA
"676",18,76,1,1,1,1,1,NA,NA
"677",18,77,1,1,1,1,1,NA,NA
"678",18,78,1,1,1,1,1,NA,NA
"679",18,79,1,1,1,0,1,NA,NA
"680",18,80,1,1,1,1,1,NA,NA
"681",18,1,1,1,1,0,0,NA,NA
"682",18,2,1,1,1,1,0,NA,NA
"683",18,3,1,1,1,0,0,NA,NA
"684",18,4,1,1,1,0,0,NA,NA
"685",18,5,1,1,1,1,0,NA,NA
"686",18,6,1,1,1,0,0,NA,NA
"687",18,7,1,1,1,1,0,NA,NA
"688",18,8,1,1,1,1,0,NA,NA
"689",18,9,1,1,1,0,0,NA,NA
"690",18,10,1,1,1,1,0,NA,NA
"691",18,11,1,1,1,0,0,NA,NA
"692",18,12,1,1,1,1,0,NA,NA
"693",18,13,1,1,1,1,0,NA,NA
"694",18,14,1,1,1,1,0,NA,NA
"695",18,15,1,1,1,1,0,NA,NA
"696",18,16,1,1,1,1,0,NA,NA
"697",18,17,1,1,1,1,0,NA,NA
"698",18,18,1,1,1,1,0,NA,NA
"699",18,19,1,1,1,0,0,NA,NA
"700",18,20,1,1,1,1,0,NA,NA
"701",18,21,1,1,1,0,0,NA,NA
"702",18,22,1,1,1,1,0,NA,NA
"703",18,23,1,1,1,1,0,NA,NA
"704",18,24,1,1,1,0,0,NA,NA
"705",18,25,1,1,1,0,0,NA,NA
"706",18,26,1,1,1,0,0,NA,NA
"707",18,27,1,1,1,1,0,NA,NA
"708",18,28,1,1,1,1,0,NA,NA
"709",18,29,1,1,1,1,0,NA,NA
"710",18,30,1,1,1,1,0,NA,NA
"711",18,31,1,1,1,1,0,NA,NA
"712",18,32,1,1,1,1,0,NA,NA
"713",18,33,1,1,1,1,0,NA,NA
"714",18,34,1,1,1,1,0,NA,NA
"715",18,35,1,1,1,1,0,NA,NA
"716",18,36,1,1,1,1,0,NA,NA
"717",18,37,1,1,1,0,0,NA,NA
"718",18,38,1,1,1,0,0,NA,NA
"719",18,39,1,1,1,1,0,NA,NA
"720",18,40,1,1,1,1,0,NA,NA
"721",2,41,1,1,1,1,1,NA,NA
"722",2,42,1,1,1,1,1,NA,NA
"723",2,43,1,1,1,1,1,NA,NA
"724",2,44,1,1,1,0,1,NA,NA
"725",2,45,1,1,1,0,1,NA,NA
"726",2,46,1,1,1,0,1,NA,NA
"727",2,47,1,1,1,0,1,NA,NA
"728",2,48,1,1,1,1,1,NA,NA
"729",2,49,1,1,1,0,1,NA,NA
"730",2,50,1,1,1,1,1,NA,NA
"731",2,51,1,1,1,1,1,NA,NA
"732",2,52,1,1,1,1,1,NA,NA
"733",2,53,1,1,1,0,1,NA,NA
"734",2,54,1,1,1,1,1,NA,NA
"735",2,55,1,1,1,0,1,NA,NA
"736",2,56,1,1,1,1,1,NA,NA
"737",2,57,1,1,1,1,1,NA,NA
"738",2,58,1,1,1,0,1,NA,NA
"739",2,59,1,1,1,1,1,NA,NA
"740",2,81,1,1,1,0,1,NA,NA
"741",2,61,1,1,1,1,1,NA,NA
"742",2,62,1,1,1,1,1,NA,NA
"743",2,63,1,1,1,0,1,NA,NA
"744",2,64,1,1,1,0,1,NA,NA
"745",2,65,1,1,1,0,1,NA,NA
"746",2,66,1,1,1,1,1,NA,NA
"747",2,67,1,1,1,1,1,NA,NA
"748",2,68,1,1,1,0,1,NA,NA
"749",2,69,1,1,1,1,1,NA,NA
"750",2,70,1,1,1,0,1,NA,NA
"751",2,71,1,1,1,1,1,NA,NA
"752",2,72,1,1,1,1,1,NA,NA
"753",2,73,1,1,1,1,1,NA,NA
"754",2,74,1,1,1,1,1,NA,NA
"755",2,75,1,1,1,0,1,NA,NA
"756",2,76,1,1,1,1,1,NA,NA
"757",2,77,1,1,1,1,1,NA,NA
"758",2,78,1,1,1,0,1,NA,NA
"759",2,79,1,1,1,0,1,NA,NA
"760",2,80,1,1,1,0,1,NA,NA
"761",2,1,1,1,1,0,0,NA,NA
"762",2,2,1,1,1,1,0,NA,NA
"763",2,3,1,1,1,0,0,NA,NA
"764",2,4,1,1,1,0,0,NA,NA
"765",2,5,1,1,1,1,0,NA,NA
"766",2,6,1,1,1,1,0,NA,NA
"767",2,7,1,1,1,0,0,NA,NA
"768",2,8,1,1,1,1,0,NA,NA
"769",2,9,1,1,1,1,0,NA,NA
"770",2,10,1,1,1,1,0,NA,NA
"771",2,11,1,1,1,0,0,NA,NA
"772",2,12,1,1,1,0,0,NA,NA
"773",2,13,1,1,1,0,0,NA,NA
"774",2,14,1,1,1,0,0,NA,NA
"775",2,15,1,1,1,1,0,NA,NA
"776",2,16,1,1,1,1,0,NA,NA
"777",2,17,1,1,1,1,0,NA,NA
"778",2,18,1,1,1,0,0,NA,NA
"779",2,19,1,1,1,1,0,NA,NA
"780",2,20,1,1,1,1,0,NA,NA
"781",2,21,1,1,1,0,0,NA,NA
"782",2,22,1,1,1,0,0,NA,NA
"783",2,23,1,1,1,0,0,NA,NA
"784",2,24,1,1,1,0,0,NA,NA
"785",2,25,1,1,1,1,0,NA,NA
"786",2,26,1,1,1,0,0,NA,NA
"787",2,27,1,1,1,1,0,NA,NA
"788",2,28,1,1,1,0,0,NA,NA
"789",2,29,1,1,1,0,0,NA,NA
"790",2,30,1,1,1,0,0,NA,NA
"791",2,31,1,1,1,1,0,NA,NA
"792",2,32,1,1,1,0,0,NA,NA
"793",2,33,1,1,1,1,0,NA,NA
"794",2,34,1,1,1,1,0,NA,NA
"795",2,35,1,1,1,0,0,NA,NA
"796",2,36,1,1,1,0,0,NA,NA
"797",2,37,1,1,1,0,0,NA,NA
"798",2,38,1,1,1,1,0,NA,NA
"799",2,39,1,1,1,1,0,NA,NA
"800",2,40,1,1,1,1,0,NA,NA
"801",20,41,1,1,1,0,1,NA,NA
"802",20,42,1,1,1,0,1,NA,NA
"803",20,43,1,1,1,1,1,NA,NA
"804",20,44,1,1,1,0,1,NA,NA
"805",20,45,1,1,1,0,1,NA,NA
"806",20,46,1,1,1,1,1,NA,NA
"807",20,47,1,1,1,1,1,NA,NA
"808",20,48,1,1,1,1,1,NA,NA
"809",20,49,1,1,1,1,1,NA,NA
"810",20,50,1,1,1,1,1,NA,NA
"811",20,51,1,1,1,0,1,NA,NA
"812",20,52,1,1,1,1,1,NA,NA
"813",20,53,1,1,1,1,1,NA,NA
"814",20,54,1,1,1,1,1,NA,NA
"815",20,55,1,1,1,0,1,NA,NA
"816",20,56,1,1,1,1,1,NA,NA
"817",20,57,1,1,1,0,1,NA,NA
"818",20,58,1,1,1,1,1,NA,NA
"819",20,59,1,1,1,0,1,NA,NA
"820",20,81,1,1,1,0,1,NA,NA
"821",20,61,1,1,1,1,1,NA,NA
"822",20,62,1,1,1,0,1,NA,NA
"823",20,63,1,1,1,0,1,NA,NA
"824",20,64,1,1,1,1,1,NA,NA
"825",20,65,1,1,1,1,1,NA,NA
"826",20,66,1,1,1,1,1,NA,NA
"827",20,67,1,1,1,1,1,NA,NA
"828",20,68,1,1,1,1,1,NA,NA
"829",20,69,1,1,1,0,1,NA,NA
"830",20,70,1,1,1,1,1,NA,NA
"831",20,71,1,1,1,1,1,NA,NA
"832",20,72,1,1,1,0,1,NA,NA
"833",20,73,1,1,1,1,1,NA,NA
"834",20,74,1,1,1,0,1,NA,NA
"835",20,75,1,1,1,1,1,NA,NA
"836",20,76,1,1,1,1,1,NA,NA
"837",20,77,1,1,1,1,1,NA,NA
"838",20,78,1,1,1,1,1,NA,NA
"839",20,79,1,1,1,1,1,NA,NA
"840",20,80,1,1,1,0,1,NA,NA
"841",20,1,1,1,1,0,0,NA,NA
"842",20,2,1,1,1,1,0,NA,NA
"843",20,3,1,1,1,0,0,NA,NA
"844",20,4,1,1,1,1,0,NA,NA
"845",20,5,1,1,1,0,0,NA,NA
"846",20,6,1,1,1,0,0,NA,NA
"847",20,7,1,1,1,1,0,NA,NA
"848",20,8,1,1,1,0,0,NA,NA
"849",20,9,1,1,1,1,0,NA,NA
"850",20,10,1,1,1,0,0,NA,NA
"851",20,11,1,1,1,0,0,NA,NA
"852",20,12,1,1,1,0,0,NA,NA
"853",20,13,1,1,1,0,0,NA,NA
"854",20,14,1,1,1,1,0,NA,NA
"855",20,15,1,1,1,1,0,NA,NA
"856",20,16,1,1,1,1,0,NA,NA
"857",20,17,1,1,1,0,0,NA,NA
"858",20,18,1,1,1,1,0,NA,NA
"859",20,19,1,1,1,0,0,NA,NA
"860",20,20,1,1,1,1,0,NA,NA
"861",20,21,1,1,1,1,0,NA,NA
"862",20,22,1,1,1,0,0,NA,NA
"863",20,23,1,1,1,0,0,NA,NA
"864",20,24,1,1,1,1,0,NA,NA
"865",20,25,1,1,1,0,0,NA,NA
"866",20,26,1,1,1,1,0,NA,NA
"867",20,27,1,1,1,1,0,NA,NA
"868",20,28,1,1,1,0,0,NA,NA
"869",20,29,1,1,1,1,0,NA,NA
"870",20,30,1,1,1,1,0,NA,NA
"871",20,31,1,1,1,1,0,NA,NA
"872",20,32,1,1,1,1,0,NA,NA
"873",20,33,1,1,1,1,0,NA,NA
"874",20,34,1,1,1,1,0,NA,NA
"875",20,35,1,1,1,0,0,NA,NA
"876",20,36,1,1,1,1,0,NA,NA
"877",20,37,1,1,1,0,0,NA,NA
"878",20,38,1,1,1,1,0,NA,NA
"879",20,39,1,1,1,1,0,NA,NA
"880",20,40,1,1,1,0,0,NA,NA
"881",21,1,1,1,1,0,1,NA,NA
"882",21,2,1,1,1,0,1,NA,NA
"883",21,3,1,1,1,1,1,NA,NA
"884",21,4,1,1,1,1,1,NA,NA
"885",21,5,1,1,1,1,1,NA,NA
"886",21,6,1,1,1,0,1,NA,NA
"887",21,7,1,1,1,1,1,NA,NA
"888",21,8,1,1,1,0,1,NA,NA
"889",21,9,1,1,1,1,1,NA,NA
"890",21,10,1,1,1,1,1,NA,NA
"891",21,11,1,1,1,0,1,NA,NA
"892",21,12,1,1,1,0,1,NA,NA
"893",21,13,1,1,1,1,1,NA,NA
"894",21,14,1,1,1,1,1,NA,NA
"895",21,15,1,1,1,0,1,NA,NA
"896",21,16,1,1,1,0,1,NA,NA
"897",21,17,1,1,1,1,1,NA,NA
"898",21,18,1,1,1,0,1,NA,NA
"899",21,19,1,1,1,0,1,NA,NA
"900",21,20,1,1,1,1,1,NA,NA
"901",21,21,1,1,1,0,1,NA,NA
"902",21,22,1,1,1,0,1,NA,NA
"903",21,23,1,1,1,0,1,NA,NA
"904",21,24,1,1,1,1,1,NA,NA
"905",21,25,1,1,1,0,1,NA,NA
"906",21,26,1,1,1,0,1,NA,NA
"907",21,27,1,1,1,1,1,NA,NA
"908",21,28,1,1,1,1,1,NA,NA
"909",21,29,1,1,1,0,1,NA,NA
"910",21,30,1,1,1,0,1,NA,NA
"911",21,31,1,1,1,0,1,NA,NA
"912",21,32,1,1,1,1,1,NA,NA
"913",21,33,1,1,1,1,1,NA,NA
"914",21,34,1,1,1,1,1,NA,NA
"915",21,35,1,1,1,1,1,NA,NA
"916",21,36,1,1,1,1,1,NA,NA
"917",21,37,1,1,1,1,1,NA,NA
"918",21,38,1,1,1,1,1,NA,NA
"919",21,39,1,1,1,0,1,NA,NA
"920",21,40,1,1,1,0,1,NA,NA
"921",21,41,1,1,1,1,0,NA,NA
"922",21,42,1,1,1,0,0,NA,NA
"923",21,43,1,1,1,0,0,NA,NA
"924",21,44,1,1,1,1,0,NA,NA
"925",21,45,1,1,1,1,0,NA,NA
"926",21,46,1,1,1,0,0,NA,NA
"927",21,47,1,1,1,0,0,NA,NA
"928",21,48,1,1,1,0,0,NA,NA
"929",21,49,1,1,1,0,0,NA,NA
"930",21,50,1,1,1,1,0,NA,NA
"931",21,51,1,1,1,0,0,NA,NA
"932",21,52,1,1,1,1,0,NA,NA
"933",21,53,1,1,1,0,0,NA,NA
"934",21,54,1,1,1,1,0,NA,NA
"935",21,55,1,1,1,0,0,NA,NA
"936",21,56,1,1,1,1,0,NA,NA
"937",21,57,1,1,1,1,0,NA,NA
"938",21,58,1,1,1,1,0,NA,NA
"939",21,59,1,1,1,0,0,NA,NA
"940",21,60,1,1,1,0,0,NA,NA
"941",21,61,1,1,1,0,0,NA,NA
"942",21,62,1,1,1,1,0,NA,NA
"943",21,63,1,1,1,1,0,NA,NA
"944",21,64,1,1,1,1,0,NA,NA
"945",21,65,1,1,1,0,0,NA,NA
"946",21,66,1,1,1,0,0,NA,NA
"947",21,67,1,1,1,0,0,NA,NA
"948",21,68,1,1,1,0,0,NA,NA
"949",21,69,1,1,1,0,0,NA,NA
"950",21,70,1,1,1,1,0,NA,NA
"951",21,71,1,1,1,1,0,NA,NA
"952",21,72,1,1,1,0,0,NA,NA
"953",21,73,1,1,1,0,0,NA,NA
"954",21,74,1,1,1,0,0,NA,NA
"955",21,75,1,1,1,0,0,NA,NA
"956",21,76,1,1,1,0,0,NA,NA
"957",21,77,1,1,1,0,0,NA,NA
"958",21,78,1,1,1,0,0,NA,NA
"959",21,79,1,1,1,0,0,NA,NA
"960",21,80,1,1,1,1,0,NA,NA
"961",22,41,1,1,1,0,1,NA,NA
"962",22,42,1,1,1,1,1,NA,NA
"963",22,43,1,1,1,1,1,NA,NA
"964",22,44,1,1,1,0,1,NA,NA
"965",22,45,1,1,1,1,1,NA,NA
"966",22,46,1,1,1,1,1,NA,NA
"967",22,47,1,1,1,1,1,NA,NA
"968",22,48,1,1,1,1,1,NA,NA
"969",22,49,1,1,1,1,1,NA,NA
"970",22,50,1,1,1,0,1,NA,NA
"971",22,51,1,1,1,1,1,NA,NA
"972",22,52,1,1,1,1,1,NA,NA
"973",22,53,1,1,1,1,1,NA,NA
"974",22,54,1,1,1,1,1,NA,NA
"975",22,55,1,1,1,1,1,NA,NA
"976",22,56,1,1,1,1,1,NA,NA
"977",22,57,1,1,1,0,1,NA,NA
"978",22,58,1,1,1,1,1,NA,NA
"979",22,59,1,1,1,1,1,NA,NA
"980",22,81,1,1,1,1,1,NA,NA
"981",22,61,1,1,1,1,1,NA,NA
"982",22,62,1,1,1,1,1,NA,NA
"983",22,63,1,1,1,1,1,NA,NA
"984",22,64,1,1,1,0,1,NA,NA
"985",22,65,1,1,1,1,1,NA,NA
"986",22,66,1,1,1,0,1,NA,NA
"987",22,67,1,1,1,1,1,NA,NA
"988",22,68,1,1,1,0,1,NA,NA
"989",22,69,1,1,1,0,1,NA,NA
"990",22,70,1,1,1,1,1,NA,NA
"991",22,71,1,1,1,1,1,NA,NA
"992",22,72,1,1,1,1,1,NA,NA
"993",22,73,1,1,1,1,1,NA,NA
"994",22,74,1,1,1,1,1,NA,NA
"995",22,75,1,1,1,0,1,NA,NA
"996",22,76,1,1,1,1,1,NA,NA
"997",22,77,1,1,1,1,1,NA,NA
"998",22,78,1,1,1,0,1,NA,NA
"999",22,79,1,1,1,0,1,NA,NA
"1000",22,80,1,1,1,1,1,NA,NA
"1001",22,1,1,1,1,1,0,NA,NA
"1002",22,2,1,1,1,0,0,NA,NA
"1003",22,3,1,1,1,1,0,NA,NA
"1004",22,4,1,1,1,0,0,NA,NA
"1005",22,5,1,1,1,1,0,NA,NA
"1006",22,6,1,1,1,1,0,NA,NA
"1007",22,7,1,1,1,1,0,NA,NA
"1008",22,8,1,1,1,0,0,NA,NA
"1009",22,9,1,1,1,0,0,NA,NA
"1010",22,10,1,1,1,1,0,NA,NA
"1011",22,11,1,1,1,1,0,NA,NA
"1012",22,12,1,1,1,0,0,NA,NA
"1013",22,13,1,1,1,1,0,NA,NA
"1014",22,14,1,1,1,1,0,NA,NA
"1015",22,15,1,1,1,1,0,NA,NA
"1016",22,16,1,1,1,1,0,NA,NA
"1017",22,17,1,1,1,1,0,NA,NA
"1018",22,18,1,1,1,1,0,NA,NA
"1019",22,19,1,1,1,1,0,NA,NA
"1020",22,20,1,1,1,1,0,NA,NA
"1021",22,21,1,1,1,1,0,NA,NA
"1022",22,22,1,1,1,1,0,NA,NA
"1023",22,23,1,1,1,1,0,NA,NA
"1024",22,24,1,1,1,1,0,NA,NA
"1025",22,25,1,1,1,1,0,NA,NA
"1026",22,26,1,1,1,1,0,NA,NA
"1027",22,27,1,1,1,1,0,NA,NA
"1028",22,28,1,1,1,1,0,NA,NA
"1029",22,29,1,1,1,1,0,NA,NA
"1030",22,30,1,1,1,1,0,NA,NA
"1031",22,31,1,1,1,0,0,NA,NA
"1032",22,32,1,1,1,1,0,NA,NA
"1033",22,33,1,1,1,1,0,NA,NA
"1034",22,34,1,1,1,1,0,NA,NA
"1035",22,35,1,1,1,1,0,NA,NA
"1036",22,36,1,1,1,1,0,NA,NA
"1037",22,37,1,1,1,1,0,NA,NA
"1038",22,38,1,1,1,1,0,NA,NA
"1039",22,39,1,1,1,1,0,NA,NA
"1040",22,40,1,1,1,1,0,NA,NA
"1041",23,41,1,1,1,1,1,NA,NA
"1042",23,42,1,1,1,1,1,NA,NA
"1043",23,43,1,1,1,0,1,NA,NA
"1044",23,44,1,1,1,0,1,NA,NA
"1045",23,45,1,1,1,1,1,NA,NA
"1046",23,46,1,1,1,1,1,NA,NA
"1047",23,47,1,1,1,0,1,NA,NA
"1048",23,48,1,1,1,0,1,NA,NA
"1049",23,49,1,1,1,0,1,NA,NA
"1050",23,50,1,1,1,1,1,NA,NA
"1051",23,51,1,1,1,1,1,NA,NA
"1052",23,52,1,1,1,1,1,NA,NA
"1053",23,53,1,1,1,0,1,NA,NA
"1054",23,54,1,1,1,0,1,NA,NA
"1055",23,55,1,1,1,1,1,NA,NA
"1056",23,56,1,1,1,0,1,NA,NA
"1057",23,57,1,1,1,1,1,NA,NA
"1058",23,58,1,1,1,0,1,NA,NA
"1059",23,59,1,1,1,1,1,NA,NA
"1060",23,81,1,1,1,1,1,NA,NA
"1061",23,61,1,1,1,1,1,NA,NA
"1062",23,62,1,1,1,1,1,NA,NA
"1063",23,63,1,1,1,0,1,NA,NA
"1064",23,64,1,1,1,1,1,NA,NA
"1065",23,65,1,1,1,1,1,NA,NA
"1066",23,66,1,1,1,0,1,NA,NA
"1067",23,67,1,1,1,0,1,NA,NA
"1068",23,68,1,1,1,1,1,NA,NA
"1069",23,69,1,1,1,1,1,NA,NA
"1070",23,70,1,1,1,1,1,NA,NA
"1071",23,71,1,1,1,1,1,NA,NA
"1072",23,72,1,1,1,1,1,NA,NA
"1073",23,73,1,1,1,1,1,NA,NA
"1074",23,74,1,1,1,0,1,NA,NA
"1075",23,75,1,1,1,0,1,NA,NA
"1076",23,76,1,1,1,1,1,NA,NA
"1077",23,77,1,1,1,1,1,NA,NA
"1078",23,78,1,1,1,1,1,NA,NA
"1079",23,79,1,1,1,1,1,NA,NA
"1080",23,80,1,1,1,1,1,NA,NA
"1081",23,1,1,1,1,1,0,NA,NA
"1082",23,2,1,1,1,0,0,NA,NA
"1083",23,3,1,1,1,0,0,NA,NA
"1084",23,4,1,1,1,1,0,NA,NA
"1085",23,5,1,1,1,1,0,NA,NA
"1086",23,6,1,1,1,1,0,NA,NA
"1087",23,7,1,1,1,1,0,NA,NA
"1088",23,8,1,1,1,0,0,NA,NA
"1089",23,9,1,1,1,1,0,NA,NA
"1090",23,10,1,1,1,1,0,NA,NA
"1091",23,11,1,1,1,1,0,NA,NA
"1092",23,12,1,1,1,0,0,NA,NA
"1093",23,13,1,1,1,1,0,NA,NA
"1094",23,14,1,1,1,1,0,NA,NA
"1095",23,15,1,1,1,1,0,NA,NA
"1096",23,16,1,1,1,1,0,NA,NA
"1097",23,17,1,1,1,1,0,NA,NA
"1098",23,18,1,1,1,1,0,NA,NA
"1099",23,19,1,1,1,1,0,NA,NA
"1100",23,20,1,1,1,0,0,NA,NA
"1101",23,21,1,1,1,1,0,NA,NA
"1102",23,22,1,1,1,0,0,NA,NA
"1103",23,23,1,1,1,1,0,NA,NA
"1104",23,24,1,1,1,1,0,NA,NA
"1105",23,25,1,1,1,0,0,NA,NA
"1106",23,26,1,1,1,1,0,NA,NA
"1107",23,27,1,1,1,1,0,NA,NA
"1108",23,28,1,1,1,0,0,NA,NA
"1109",23,29,1,1,1,1,0,NA,NA
"1110",23,30,1,1,1,1,0,NA,NA
"1111",23,31,1,1,1,0,0,NA,NA
"1112",23,32,1,1,1,1,0,NA,NA
"1113",23,33,1,1,1,0,0,NA,NA
"1114",23,34,1,1,1,1,0,NA,NA
"1115",23,35,1,1,1,0,0,NA,NA
"1116",23,36,1,1,1,1,0,NA,NA
"1117",23,37,1,1,1,0,0,NA,NA
"1118",23,38,1,1,1,1,0,NA,NA
"1119",23,39,1,1,1,0,0,NA,NA
"1120",23,40,1,1,1,0,0,NA,NA
"1121",24,1,1,1,1,1,1,NA,NA
"1122",24,2,1,1,1,1,1,NA,NA
"1123",24,3,1,1,1,1,1,NA,NA
"1124",24,4,1,1,1,1,1,NA,NA
"1125",24,5,1,1,1,0,1,NA,NA
"1126",24,6,1,1,1,1,1,NA,NA
"1127",24,7,1,1,1,1,1,NA,NA
"1128",24,8,1,1,1,0,1,NA,NA
"1129",24,9,1,1,1,0,1,NA,NA
"1130",24,10,1,1,1,1,1,NA,NA
"1131",24,11,1,1,1,1,1,NA,NA
"1132",24,12,1,1,1,1,1,NA,NA
"1133",24,13,1,1,1,0,1,NA,NA
"1134",24,14,1,1,1,1,1,NA,NA
"1135",24,15,1,1,1,0,1,NA,NA
"1136",24,16,1,1,1,0,1,NA,NA
"1137",24,17,1,1,1,1,1,NA,NA
"1138",24,18,1,1,1,1,1,NA,NA
"1139",24,19,1,1,1,1,1,NA,NA
"1140",24,20,1,1,1,1,1,NA,NA
"1141",24,21,1,1,1,0,1,NA,NA
"1142",24,22,1,1,1,0,1,NA,NA
"1143",24,23,1,1,1,1,1,NA,NA
"1144",24,24,1,1,1,0,1,NA,NA
"1145",24,25,1,1,1,0,1,NA,NA
"1146",24,26,1,1,1,0,1,NA,NA
"1147",24,27,1,1,1,0,1,NA,NA
"1148",24,28,1,1,1,1,1,NA,NA
"1149",24,29,1,1,1,0,1,NA,NA
"1150",24,30,1,1,1,1,1,NA,NA
"1151",24,31,1,1,1,0,1,NA,NA
"1152",24,32,1,1,1,1,1,NA,NA
"1153",24,33,1,1,1,0,1,NA,NA
"1154",24,34,1,1,1,0,1,NA,NA
"1155",24,35,1,1,1,0,1,NA,NA
"1156",24,36,1,1,1,1,1,NA,NA
"1157",24,37,1,1,1,1,1,NA,NA
"1158",24,38,1,1,1,0,1,NA,NA
"1159",24,39,1,1,1,1,1,NA,NA
"1160",24,40,1,1,1,1,1,NA,NA
"1161",24,41,1,1,1,1,0,NA,NA
"1162",24,42,1,1,1,0,0,NA,NA
"1163",24,43,1,1,1,1,0,NA,NA
"1164",24,44,1,1,1,1,0,NA,NA
"1165",24,45,1,1,1,0,0,NA,NA
"1166",24,46,1,1,1,1,0,NA,NA
"1167",24,47,1,1,1,1,0,NA,NA
"1168",24,48,1,1,1,0,0,NA,NA
"1169",24,49,1,1,1,1,0,NA,NA
"1170",24,50,1,1,1,1,0,NA,NA
"1171",24,51,1,1,1,0,0,NA,NA
"1172",24,52,1,1,1,1,0,NA,NA
"1173",24,53,1,1,1,0,0,NA,NA
"1174",24,54,1,1,1,1,0,NA,NA
"1175",24,55,1,1,1,1,0,NA,NA
"1176",24,56,1,1,1,0,0,NA,NA
"1177",24,57,1,1,1,1,0,NA,NA
"1178",24,58,1,1,1,1,0,NA,NA
"1179",24,59,1,1,1,1,0,NA,NA
"1180",24,60,1,1,1,0,0,NA,NA
"1181",24,61,1,1,1,0,0,NA,NA
"1182",24,62,1,1,1,0,0,NA,NA
"1183",24,63,1,1,1,0,0,NA,NA
"1184",24,64,1,1,1,0,0,NA,NA
"1185",24,65,1,1,1,0,0,NA,NA
"1186",24,66,1,1,1,0,0,NA,NA
"1187",24,67,1,1,1,0,0,NA,NA
"1188",24,68,1,1,1,1,0,NA,NA
"1189",24,69,1,1,1,0,0,NA,NA
"1190",24,70,1,1,1,1,0,NA,NA
"1191",24,71,1,1,1,0,0,NA,NA
"1192",24,72,1,1,1,0,0,NA,NA
"1193",24,73,1,1,1,0,0,NA,NA
"1194",24,74,1,1,1,0,0,NA,NA
"1195",24,75,1,1,1,1,0,NA,NA
"1196",24,76,1,1,1,0,0,NA,NA
"1197",24,77,1,1,1,0,0,NA,NA
"1198",24,78,1,1,1,0,0,NA,NA
"1199",24,79,1,1,1,0,0,NA,NA
"1200",24,80,1,1,1,0,0,NA,NA
"1201",25,1,1,1,1,1,1,NA,NA
"1202",25,2,1,1,1,1,1,NA,NA
"1203",25,3,1,1,1,1,1,NA,NA
"1204",25,4,1,1,1,1,1,NA,NA
"1205",25,5,1,1,1,0,1,NA,NA
"1206",25,6,1,1,1,1,1,NA,NA
"1207",25,7,1,1,1,1,1,NA,NA
"1208",25,8,1,1,1,1,1,NA,NA
"1209",25,9,1,1,1,1,1,NA,NA
"1210",25,10,1,1,1,1,1,NA,NA
"1211",25,11,1,1,1,1,1,NA,NA
"1212",25,12,1,1,1,1,1,NA,NA
"1213",25,13,1,1,1,1,1,NA,NA
"1214",25,14,1,1,1,1,1,NA,NA
"1215",25,15,1,1,1,0,1,NA,NA
"1216",25,16,1,1,1,1,1,NA,NA
"1217",25,17,1,1,1,0,1,NA,NA
"1218",25,18,1,1,1,0,1,NA,NA
"1219",25,19,1,1,1,1,1,NA,NA
"1220",25,20,1,1,1,1,1,NA,NA
"1221",25,21,1,1,1,1,1,NA,NA
"1222",25,22,1,1,1,1,1,NA,NA
"1223",25,23,1,1,1,1,1,NA,NA
"1224",25,24,1,1,1,0,1,NA,NA
"1225",25,25,1,1,1,0,1,NA,NA
"1226",25,26,1,1,1,1,1,NA,NA
"1227",25,27,1,1,1,1,1,NA,NA
"1228",25,28,1,1,1,1,1,NA,NA
"1229",25,29,1,1,1,1,1,NA,NA
"1230",25,30,1,1,1,1,1,NA,NA
"1231",25,31,1,1,1,1,1,NA,NA
"1232",25,32,1,1,1,1,1,NA,NA
"1233",25,33,1,1,1,0,1,NA,NA
"1234",25,34,1,1,1,1,1,NA,NA
"1235",25,35,1,1,1,0,1,NA,NA
"1236",25,36,1,1,1,0,1,NA,NA
"1237",25,37,1,1,1,0,1,NA,NA
"1238",25,38,1,1,1,1,1,NA,NA
"1239",25,39,1,1,1,1,1,NA,NA
"1240",25,40,1,1,1,0,1,NA,NA
"1241",25,41,1,1,1,1,0,NA,NA
"1242",25,42,1,1,1,0,0,NA,NA
"1243",25,43,1,1,1,0,0,NA,NA
"1244",25,44,1,1,1,1,0,NA,NA
"1245",25,45,1,1,1,0,0,NA,NA
"1246",25,46,1,1,1,0,0,NA,NA
"1247",25,47,1,1,1,1,0,NA,NA
"1248",25,48,1,1,1,1,0,NA,NA
"1249",25,49,1,1,1,0,0,NA,NA
"1250",25,50,1,1,1,0,0,NA,NA
"1251",25,51,1,1,1,1,0,NA,NA
"1252",25,52,1,1,1,0,0,NA,NA
"1253",25,53,1,1,1,1,0,NA,NA
"1254",25,54,1,1,1,0,0,NA,NA
"1255",25,55,1,1,1,1,0,NA,NA
"1256",25,56,1,1,1,0,0,NA,NA
"1257",25,57,1,1,1,1,0,NA,NA
"1258",25,58,1,1,1,1,0,NA,NA
"1259",25,59,1,1,1,1,0,NA,NA
"1260",25,60,1,1,1,0,0,NA,NA
"1261",25,61,1,1,1,0,0,NA,NA
"1262",25,62,1,1,1,1,0,NA,NA
"1263",25,63,1,1,1,0,0,NA,NA
"1264",25,64,1,1,1,0,0,NA,NA
"1265",25,65,1,1,1,0,0,NA,NA
"1266",25,66,1,1,1,0,0,NA,NA
"1267",25,67,1,1,1,1,0,NA,NA
"1268",25,68,1,1,1,0,0,NA,NA
"1269",25,69,1,1,1,0,0,NA,NA
"1270",25,70,1,1,1,0,0,NA,NA
"1271",25,71,1,1,1,0,0,NA,NA
"1272",25,72,1,1,1,0,0,NA,NA
"1273",25,73,1,1,1,1,0,NA,NA
"1274",25,74,1,1,1,0,0,NA,NA
"1275",25,75,1,1,1,0,0,NA,NA
"1276",25,76,1,1,1,1,0,NA,NA
"1277",25,77,1,1,1,1,0,NA,NA
"1278",25,78,1,1,1,0,0,NA,NA
"1279",25,79,1,1,1,0,0,NA,NA
"1280",25,80,1,1,1,0,0,NA,NA
"1281",27,1,1,1,1,1,1,NA,NA
"1282",27,2,1,1,1,1,1,NA,NA
"1283",27,3,1,1,1,1,1,NA,NA
"1284",27,4,1,1,1,0,1,NA,NA
"1285",27,5,1,1,1,0,1,NA,NA
"1286",27,6,1,1,1,1,1,NA,NA
"1287",27,7,1,1,1,1,1,NA,NA
"1288",27,8,1,1,1,0,1,NA,NA
"1289",27,9,1,1,1,1,1,NA,NA
"1290",27,10,1,1,1,1,1,NA,NA
"1291",27,11,1,1,1,0,1,NA,NA
"1292",27,12,1,1,1,0,1,NA,NA
"1293",27,13,1,1,1,1,1,NA,NA
"1294",27,14,1,1,1,1,1,NA,NA
"1295",27,15,1,1,1,1,1,NA,NA
"1296",27,16,1,1,1,1,1,NA,NA
"1297",27,17,1,1,1,0,1,NA,NA
"1298",27,18,1,1,1,1,1,NA,NA
"1299",27,19,1,1,1,1,1,NA,NA
"1300",27,20,1,1,1,1,1,NA,NA
"1301",27,21,1,1,1,0,1,NA,NA
"1302",27,22,1,1,1,0,1,NA,NA
"1303",27,23,1,1,1,1,1,NA,NA
"1304",27,24,1,1,1,0,1,NA,NA
"1305",27,25,1,1,1,0,1,NA,NA
"1306",27,26,1,1,1,1,1,NA,NA
"1307",27,27,1,1,1,0,1,NA,NA
"1308",27,28,1,1,1,1,1,NA,NA
"1309",27,29,1,1,1,0,1,NA,NA
"1310",27,30,1,1,1,0,1,NA,NA
"1311",27,31,1,1,1,1,1,NA,NA
"1312",27,32,1,1,1,1,1,NA,NA
"1313",27,33,1,1,1,1,1,NA,NA
"1314",27,34,1,1,1,1,1,NA,NA
"1315",27,35,1,1,1,0,1,NA,NA
"1316",27,36,1,1,1,0,1,NA,NA
"1317",27,37,1,1,1,0,1,NA,NA
"1318",27,38,1,1,1,1,1,NA,NA
"1319",27,39,1,1,1,1,1,NA,NA
"1320",27,40,1,1,1,1,1,NA,NA
"1321",27,41,1,1,1,1,0,NA,NA
"1322",27,42,1,1,1,0,0,NA,NA
"1323",27,43,1,1,1,1,0,NA,NA
"1324",27,44,1,1,1,0,0,NA,NA
"1325",27,45,1,1,1,0,0,NA,NA
"1326",27,46,1,1,1,0,0,NA,NA
"1327",27,47,1,1,1,0,0,NA,NA
"1328",27,48,1,1,1,0,0,NA,NA
"1329",27,49,1,1,1,0,0,NA,NA
"1330",27,50,1,1,1,1,0,NA,NA
"1331",27,51,1,1,1,1,0,NA,NA
"1332",27,52,1,1,1,1,0,NA,NA
"1333",27,53,1,1,1,1,0,NA,NA
"1334",27,54,1,1,1,0,0,NA,NA
"1335",27,55,1,1,1,0,0,NA,NA
"1336",27,56,1,1,1,0,0,NA,NA
"1337",27,57,1,1,1,0,0,NA,NA
"1338",27,58,1,1,1,1,0,NA,NA
"1339",27,59,1,1,1,0,0,NA,NA
"1340",27,60,1,1,1,0,0,NA,NA
"1341",27,61,1,1,1,0,0,NA,NA
"1342",27,62,1,1,1,0,0,NA,NA
"1343",27,63,1,1,1,1,0,NA,NA
"1344",27,64,1,1,1,1,0,NA,NA
"1345",27,65,1,1,1,0,0,NA,NA
"1346",27,66,1,1,1,1,0,NA,NA
"1347",27,67,1,1,1,1,0,NA,NA
"1348",27,68,1,1,1,1,0,NA,NA
"1349",27,69,1,1,1,0,0,NA,NA
"1350",27,70,1,1,1,1,0,NA,NA
"1351",27,71,1,1,1,0,0,NA,NA
"1352",27,72,1,1,1,0,0,NA,NA
"1353",27,73,1,1,1,0,0,NA,NA
"1354",27,74,1,1,1,1,0,NA,NA
"1355",27,75,1,1,1,1,0,NA,NA
"1356",27,76,1,1,1,0,0,NA,NA
"1357",27,77,1,1,1,1,0,NA,NA
"1358",27,78,1,1,1,0,0,NA,NA
"1359",27,79,1,1,1,0,0,NA,NA
"1360",27,80,1,1,1,1,0,NA,NA
"1361",28,41,1,1,1,0,1,NA,NA
"1362",28,42,1,1,1,1,1,NA,NA
"1363",28,43,1,1,1,0,1,NA,NA
"1364",28,44,1,1,1,0,1,NA,NA
"1365",28,45,1,1,1,1,1,NA,NA
"1366",28,46,1,1,1,1,1,NA,NA
"1367",28,47,1,1,1,1,1,NA,NA
"1368",28,48,1,1,1,0,1,NA,NA
"1369",28,49,1,1,1,1,1,NA,NA
"1370",28,50,1,1,1,0,1,NA,NA
"1371",28,51,1,1,1,1,1,NA,NA
"1372",28,52,1,1,1,1,1,NA,NA
"1373",28,53,1,1,1,1,1,NA,NA
"1374",28,54,1,1,1,1,1,NA,NA
"1375",28,55,1,1,1,1,1,NA,NA
"1376",28,56,1,1,1,0,1,NA,NA
"1377",28,57,1,1,1,1,1,NA,NA
"1378",28,58,1,1,1,1,1,NA,NA
"1379",28,59,1,1,1,1,1,NA,NA
"1380",28,81,1,1,1,1,1,NA,NA
"1381",28,61,1,1,1,0,1,NA,NA
"1382",28,62,1,1,1,1,1,NA,NA
"1383",28,63,1,1,1,1,1,NA,NA
"1384",28,64,1,1,1,1,1,NA,NA
"1385",28,65,1,1,1,0,1,NA,NA
"1386",28,66,1,1,1,1,1,NA,NA
"1387",28,67,1,1,1,0,1,NA,NA
"1388",28,68,1,1,1,1,1,NA,NA
"1389",28,69,1,1,1,1,1,NA,NA
"1390",28,70,1,1,1,1,1,NA,NA
"1391",28,71,1,1,1,1,1,NA,NA
"1392",28,72,1,1,1,1,1,NA,NA
"1393",28,73,1,1,1,1,1,NA,NA
"1394",28,74,1,1,1,1,1,NA,NA
"1395",28,75,1,1,1,1,1,NA,NA
"1396",28,76,1,1,1,1,1,NA,NA
"1397",28,77,1,1,1,1,1,NA,NA
"1398",28,78,1,1,1,1,1,NA,NA
"1399",28,79,1,1,1,1,1,NA,NA
"1400",28,80,1,1,1,1,1,NA,NA
"1401",28,1,1,1,1,0,0,NA,NA
"1402",28,2,1,1,1,1,0,NA,NA
"1403",28,3,1,1,1,0,0,NA,NA
"1404",28,4,1,1,1,0,0,NA,NA
"1405",28,5,1,1,1,1,0,NA,NA
"1406",28,6,1,1,1,0,0,NA,NA
"1407",28,7,1,1,1,0,0,NA,NA
"1408",28,8,1,1,1,1,0,NA,NA
"1409",28,9,1,1,1,0,0,NA,NA
"1410",28,10,1,1,1,0,0,NA,NA
"1411",28,11,1,1,1,0,0,NA,NA
"1412",28,12,1,1,1,0,0,NA,NA
"1413",28,13,1,1,1,1,0,NA,NA
"1414",28,14,1,1,1,0,0,NA,NA
"1415",28,15,1,1,1,0,0,NA,NA
"1416",28,16,1,1,1,0,0,NA,NA
"1417",28,17,1,1,1,0,0,NA,NA
"1418",28,18,1,1,1,1,0,NA,NA
"1419",28,19,1,1,1,0,0,NA,NA
"1420",28,20,1,1,1,1,0,NA,NA
"1421",28,21,1,1,1,0,0,NA,NA
"1422",28,22,1,1,1,0,0,NA,NA
"1423",28,23,1,1,1,0,0,NA,NA
"1424",28,24,1,1,1,0,0,NA,NA
"1425",28,25,1,1,1,0,0,NA,NA
"1426",28,26,1,1,1,0,0,NA,NA
"1427",28,27,1,1,1,1,0,NA,NA
"1428",28,28,1,1,1,0,0,NA,NA
"1429",28,29,1,1,1,1,0,NA,NA
"1430",28,30,1,1,1,0,0,NA,NA
"1431",28,31,1,1,1,1,0,NA,NA
"1432",28,32,1,1,1,1,0,NA,NA
"1433",28,33,1,1,1,0,0,NA,NA
"1434",28,34,1,1,1,0,0,NA,NA
"1435",28,35,1,1,1,0,0,NA,NA
"1436",28,36,1,1,1,1,0,NA,NA
"1437",28,37,1,1,1,0,0,NA,NA
"1438",28,38,1,1,1,1,0,NA,NA
"1439",28,39,1,1,1,0,0,NA,NA
"1440",28,40,1,1,1,0,0,NA,NA
"1441",29,41,1,1,1,1,1,NA,NA
"1442",29,42,1,1,1,0,1,NA,NA
"1443",29,43,1,1,1,1,1,NA,NA
"1444",29,44,1,1,1,0,1,NA,NA
"1445",29,45,1,1,1,1,1,NA,NA
"1446",29,46,1,1,1,1,1,NA,NA
"1447",29,47,1,1,1,1,1,NA,NA
"1448",29,48,1,1,1,0,1,NA,NA
"1449",29,49,1,1,1,0,1,NA,NA
"1450",29,50,1,1,1,1,1,NA,NA
"1451",29,51,1,1,1,0,1,NA,NA
"1452",29,52,1,1,1,1,1,NA,NA
"1453",29,53,1,1,1,0,1,NA,NA
"1454",29,54,1,1,1,1,1,NA,NA
"1455",29,55,1,1,1,1,1,NA,NA
"1456",29,56,1,1,1,0,1,NA,NA
"1457",29,57,1,1,1,0,1,NA,NA
"1458",29,58,1,1,1,0,1,NA,NA
"1459",29,59,1,1,1,0,1,NA,NA
"1460",29,81,1,1,1,1,1,NA,NA
"1461",29,61,1,1,1,1,1,NA,NA
"1462",29,62,1,1,1,0,1,NA,NA
"1463",29,63,1,1,1,1,1,NA,NA
"1464",29,64,1,1,1,0,1,NA,NA
"1465",29,65,1,1,1,1,1,NA,NA
"1466",29,66,1,1,1,0,1,NA,NA
"1467",29,67,1,1,1,1,1,NA,NA
"1468",29,68,1,1,1,1,1,NA,NA
"1469",29,69,1,1,1,1,1,NA,NA
"1470",29,70,1,1,1,0,1,NA,NA
"1471",29,71,1,1,1,1,1,NA,NA
"1472",29,72,1,1,1,1,1,NA,NA
"1473",29,73,1,1,1,0,1,NA,NA
"1474",29,74,1,1,1,0,1,NA,NA
"1475",29,75,1,1,1,1,1,NA,NA
"1476",29,76,1,1,1,1,1,NA,NA
"1477",29,77,1,1,1,1,1,NA,NA
"1478",29,78,1,1,1,1,1,NA,NA
"1479",29,79,1,1,1,0,1,NA,NA
"1480",29,80,1,1,1,1,1,NA,NA
"1481",29,1,1,1,1,1,0,NA,NA
"1482",29,2,1,1,1,1,0,NA,NA
"1483",29,3,1,1,1,0,0,NA,NA
"1484",29,4,1,1,1,1,0,NA,NA
"1485",29,5,1,1,1,1,0,NA,NA
"1486",29,6,1,1,1,1,0,NA,NA
"1487",29,7,1,1,1,1,0,NA,NA
"1488",29,8,1,1,1,0,0,NA,NA
"1489",29,9,1,1,1,1,0,NA,NA
"1490",29,10,1,1,1,1,0,NA,NA
"1491",29,11,1,1,1,1,0,NA,NA
"1492",29,12,1,1,1,1,0,NA,NA
"1493",29,13,1,1,1,1,0,NA,NA
"1494",29,14,1,1,1,1,0,NA,NA
"1495",29,15,1,1,1,0,0,NA,NA
"1496",29,16,1,1,1,1,0,NA,NA
"1497",29,17,1,1,1,1,0,NA,NA
"1498",29,18,1,1,1,1,0,NA,NA
"1499",29,19,1,1,1,1,0,NA,NA
"1500",29,20,1,1,1,1,0,NA,NA
"1501",29,21,1,1,1,0,0,NA,NA
"1502",29,22,1,1,1,0,0,NA,NA
"1503",29,23,1,1,1,1,0,NA,NA
"1504",29,24,1,1,1,0,0,NA,NA
"1505",29,25,1,1,1,0,0,NA,NA
"1506",29,26,1,1,1,1,0,NA,NA
"1507",29,27,1,1,1,0,0,NA,NA
"1508",29,28,1,1,1,0,0,NA,NA
"1509",29,29,1,1,1,1,0,NA,NA
"1510",29,30,1,1,1,1,0,NA,NA
"1511",29,31,1,1,1,0,0,NA,NA
"1512",29,32,1,1,1,1,0,NA,NA
"1513",29,33,1,1,1,0,0,NA,NA
"1514",29,34,1,1,1,1,0,NA,NA
"1515",29,35,1,1,1,1,0,NA,NA
"1516",29,36,1,1,1,1,0,NA,NA
"1517",29,37,1,1,1,1,0,NA,NA
"1518",29,38,1,1,1,1,0,NA,NA
"1519",29,39,1,1,1,1,0,NA,NA
"1520",29,40,1,1,1,1,0,NA,NA
"1521",3,1,1,1,1,0,1,NA,NA
"1522",3,2,1,1,1,1,1,NA,NA
"1523",3,3,1,1,1,0,1,NA,NA
"1524",3,4,1,1,1,0,1,NA,NA
"1525",3,5,1,1,1,1,1,NA,NA
"1526",3,6,1,1,1,1,1,NA,NA
"1527",3,7,1,1,1,1,1,NA,NA
"1528",3,8,1,1,1,1,1,NA,NA
"1529",3,9,1,1,1,1,1,NA,NA
"1530",3,10,1,1,1,0,1,NA,NA
"1531",3,11,1,1,1,1,1,NA,NA
"1532",3,12,1,1,1,1,1,NA,NA
"1533",3,13,1,1,1,0,1,NA,NA
"1534",3,14,1,1,1,1,1,NA,NA
"1535",3,15,1,1,1,1,1,NA,NA
"1536",3,16,1,1,1,0,1,NA,NA
"1537",3,17,1,1,1,0,1,NA,NA
"1538",3,18,1,1,1,0,1,NA,NA
"1539",3,19,1,1,1,1,1,NA,NA
"1540",3,20,1,1,1,0,1,NA,NA
"1541",3,21,1,1,1,0,1,NA,NA
"1542",3,22,1,1,1,1,1,NA,NA
"1543",3,23,1,1,1,0,1,NA,NA
"1544",3,24,1,1,1,1,1,NA,NA
"1545",3,25,1,1,1,1,1,NA,NA
"1546",3,26,1,1,1,1,1,NA,NA
"1547",3,27,1,1,1,1,1,NA,NA
"1548",3,28,1,1,1,1,1,NA,NA
"1549",3,29,1,1,1,1,1,NA,NA
"1550",3,30,1,1,1,0,1,NA,NA
"1551",3,31,1,1,1,1,1,NA,NA
"1552",3,32,1,1,1,1,1,NA,NA
"1553",3,33,1,1,1,1,1,NA,NA
"1554",3,34,1,1,1,1,1,NA,NA
"1555",3,35,1,1,1,1,1,NA,NA
"1556",3,36,1,1,1,1,1,NA,NA
"1557",3,37,1,1,1,0,1,NA,NA
"1558",3,38,1,1,1,1,1,NA,NA
"1559",3,39,1,1,1,0,1,NA,NA
"1560",3,40,1,1,1,1,1,NA,NA
"1561",3,41,1,1,1,1,0,NA,NA
"1562",3,42,1,1,1,0,0,NA,NA
"1563",3,43,1,1,1,1,0,NA,NA
"1564",3,44,1,1,1,0,0,NA,NA
"1565",3,45,1,1,1,0,0,NA,NA
"1566",3,46,1,1,1,1,0,NA,NA
"1567",3,47,1,1,1,1,0,NA,NA
"1568",3,48,1,1,1,0,0,NA,NA
"1569",3,49,1,1,1,0,0,NA,NA
"1570",3,50,1,1,1,1,0,NA,NA
"1571",3,51,1,1,1,1,0,NA,NA
"1572",3,52,1,1,1,1,0,NA,NA
"1573",3,53,1,1,1,0,0,NA,NA
"1574",3,54,1,1,1,1,0,NA,NA
"1575",3,55,1,1,1,1,0,NA,NA
"1576",3,56,1,1,1,1,0,NA,NA
"1577",3,57,1,1,1,0,0,NA,NA
"1578",3,58,1,1,1,0,0,NA,NA
"1579",3,59,1,1,1,1,0,NA,NA
"1580",3,60,1,1,1,1,0,NA,NA
"1581",3,61,1,1,1,0,0,NA,NA
"1582",3,62,1,1,1,1,0,NA,NA
"1583",3,63,1,1,1,0,0,NA,NA
"1584",3,64,1,1,1,1,0,NA,NA
"1585",3,65,1,1,1,0,0,NA,NA
"1586",3,66,1,1,1,1,0,NA,NA
"1587",3,67,1,1,1,1,0,NA,NA
"1588",3,68,1,1,1,0,0,NA,NA
"1589",3,69,1,1,1,0,0,NA,NA
"1590",3,70,1,1,1,0,0,NA,NA
"1591",3,71,1,1,1,1,0,NA,NA
"1592",3,72,1,1,1,0,0,NA,NA
"1593",3,73,1,1,1,1,0,NA,NA
"1594",3,74,1,1,1,1,0,NA,NA
"1595",3,75,1,1,1,0,0,NA,NA
"1596",3,76,1,1,1,1,0,NA,NA
"1597",3,77,1,1,1,1,0,NA,NA
"1598",3,78,1,1,1,0,0,NA,NA
"1599",3,79,1,1,1,1,0,NA,NA
"1600",3,80,1,1,1,0,0,NA,NA
"1601",30,1,1,1,1,0,1,NA,NA
"1602",30,2,1,1,1,0,1,NA,NA
"1603",30,3,1,1,1,0,1,NA,NA
"1604",30,4,1,1,1,1,1,NA,NA
"1605",30,5,1,1,1,0,1,NA,NA
"1606",30,6,1,1,1,0,1,NA,NA
"1607",30,7,1,1,1,1,1,NA,NA
"1608",30,8,1,1,1,0,1,NA,NA
"1609",30,9,1,1,1,1,1,NA,NA
"1610",30,10,1,1,1,0,1,NA,NA
"1611",30,11,1,1,1,1,1,NA,NA
"1612",30,12,1,1,1,0,1,NA,NA
"1613",30,13,1,1,1,1,1,NA,NA
"1614",30,14,1,1,1,1,1,NA,NA
"1615",30,15,1,1,1,1,1,NA,NA
"1616",30,16,1,1,1,1,1,NA,NA
"1617",30,17,1,1,1,1,1,NA,NA
"1618",30,18,1,1,1,0,1,NA,NA
"1619",30,19,1,1,1,0,1,NA,NA
"1620",30,20,1,1,1,0,1,NA,NA
"1621",30,21,1,1,1,0,1,NA,NA
"1622",30,22,1,1,1,1,1,NA,NA
"1623",30,23,1,1,1,0,1,NA,NA
"1624",30,24,1,1,1,1,1,NA,NA
"1625",30,25,1,1,1,1,1,NA,NA
"1626",30,26,1,1,1,0,1,NA,NA
"1627",30,27,1,1,1,1,1,NA,NA
"1628",30,28,1,1,1,1,1,NA,NA
"1629",30,29,1,1,1,1,1,NA,NA
"1630",30,30,1,1,1,1,1,NA,NA
"1631",30,31,1,1,1,1,1,NA,NA
"1632",30,32,1,1,1,1,1,NA,NA
"1633",30,33,1,1,1,1,1,NA,NA
"1634",30,34,1,1,1,0,1,NA,NA
"1635",30,35,1,1,1,1,1,NA,NA
"1636",30,36,1,1,1,1,1,NA,NA
"1637",30,37,1,1,1,0,1,NA,NA
"1638",30,38,1,1,1,1,1,NA,NA
"1639",30,39,1,1,1,1,1,NA,NA
"1640",30,40,1,1,1,1,1,NA,NA
"1641",30,41,1,1,1,0,0,NA,NA
"1642",30,42,1,1,1,0,0,NA,NA
"1643",30,43,1,1,1,1,0,NA,NA
"1644",30,44,1,1,1,1,0,NA,NA
"1645",30,45,1,1,1,1,0,NA,NA
"1646",30,46,1,1,1,1,0,NA,NA
"1647",30,47,1,1,1,1,0,NA,NA
"1648",30,48,1,1,1,1,0,NA,NA
"1649",30,49,1,1,1,1,0,NA,NA
"1650",30,50,1,1,1,1,0,NA,NA
"1651",30,51,1,1,1,0,0,NA,NA
"1652",30,52,1,1,1,1,0,NA,NA
"1653",30,53,1,1,1,1,0,NA,NA
"1654",30,54,1,1,1,1,0,NA,NA
"1655",30,55,1,1,1,1,0,NA,NA
"1656",30,56,1,1,1,1,0,NA,NA
"1657",30,57,1,1,1,0,0,NA,NA
"1658",30,58,1,1,1,1,0,NA,NA
"1659",30,59,1,1,1,0,0,NA,NA
"1660",30,60,1,1,1,1,0,NA,NA
"1661",30,61,1,1,1,1,0,NA,NA
"1662",30,62,1,1,1,0,0,NA,NA
"1663",30,63,1,1,1,0,0,NA,NA
"1664",30,64,1,1,1,0,0,NA,NA
"1665",30,65,1,1,1,1,0,NA,NA
"1666",30,66,1,1,1,1,0,NA,NA
"1667",30,67,1,1,1,1,0,NA,NA
"1668",30,68,1,1,1,1,0,NA,NA
"1669",30,69,1,1,1,1,0,NA,NA
"1670",30,70,1,1,1,0,0,NA,NA
"1671",30,71,1,1,1,0,0,NA,NA
"1672",30,72,1,1,1,1,0,NA,NA
"1673",30,73,1,1,1,1,0,NA,NA
"1674",30,74,1,1,1,1,0,NA,NA
"1675",30,75,1,1,1,0,0,NA,NA
"1676",30,76,1,1,1,1,0,NA,NA
"1677",30,77,1,1,1,1,0,NA,NA
"1678",30,78,1,1,1,0,0,NA,NA
"1679",30,79,1,1,1,0,0,NA,NA
"1680",30,80,1,1,1,1,0,NA,NA
"1681",31,1,1,1,1,0,1,NA,NA
"1682",31,2,1,1,1,0,1,NA,NA
"1683",31,3,1,1,1,0,1,NA,NA
"1684",31,4,1,1,1,0,1,NA,NA
"1685",31,5,1,1,1,1,1,NA,NA
"1686",31,6,1,1,1,0,1,NA,NA
"1687",31,7,1,1,1,1,1,NA,NA
"1688",31,8,1,1,1,0,1,NA,NA
"1689",31,9,1,1,1,1,1,NA,NA
"1690",31,10,1,1,1,0,1,NA,NA
"1691",31,11,1,1,1,1,1,NA,NA
"1692",31,12,1,1,1,1,1,NA,NA
"1693",31,13,1,1,1,1,1,NA,NA
"1694",31,14,1,1,1,0,1,NA,NA
"1695",31,15,1,1,1,1,1,NA,NA
"1696",31,16,1,1,1,0,1,NA,NA
"1697",31,17,1,1,1,1,1,NA,NA
"1698",31,18,1,1,1,1,1,NA,NA
"1699",31,19,1,1,1,1,1,NA,NA
"1700",31,20,1,1,1,0,1,NA,NA
"1701",31,21,1,1,1,0,1,NA,NA
"1702",31,22,1,1,1,1,1,NA,NA
"1703",31,23,1,1,1,1,1,NA,NA
"1704",31,24,1,1,1,0,1,NA,NA
"1705",31,25,1,1,1,1,1,NA,NA
"1706",31,26,1,1,1,0,1,NA,NA
"1707",31,27,1,1,1,0,1,NA,NA
"1708",31,28,1,1,1,0,1,NA,NA
"1709",31,29,1,1,1,0,1,NA,NA
"1710",31,30,1,1,1,1,1,NA,NA
"1711",31,31,1,1,1,0,1,NA,NA
"1712",31,32,1,1,1,1,1,NA,NA
"1713",31,33,1,1,1,0,1,NA,NA
"1714",31,34,1,1,1,1,1,NA,NA
"1715",31,35,1,1,1,0,1,NA,NA
"1716",31,36,1,1,1,1,1,NA,NA
"1717",31,37,1,1,1,0,1,NA,NA
"1718",31,38,1,1,1,0,1,NA,NA
"1719",31,39,1,1,1,1,1,NA,NA
"1720",31,40,1,1,1,0,1,NA,NA
"1721",31,41,1,1,1,1,0,NA,NA
"1722",31,42,1,1,1,0,0,NA,NA
"1723",31,43,1,1,1,0,0,NA,NA
"1724",31,44,1,1,1,0,0,NA,NA
"1725",31,45,1,1,1,0,0,NA,NA
"1726",31,46,1,1,1,0,0,NA,NA
"1727",31,47,1,1,1,1,0,NA,NA
"1728",31,48,1,1,1,1,0,NA,NA
"1729",31,49,1,1,1,0,0,NA,NA
"1730",31,50,1,1,1,1,0,NA,NA
"1731",31,51,1,1,1,1,0,NA,NA
"1732",31,52,1,1,1,1,0,NA,NA
"1733",31,53,1,1,1,0,0,NA,NA
"1734",31,54,1,1,1,1,0,NA,NA
"1735",31,55,1,1,1,1,0,NA,NA
"1736",31,56,1,1,1,0,0,NA,NA
"1737",31,57,1,1,1,1,0,NA,NA
"1738",31,58,1,1,1,0,0,NA,NA
"1739",31,59,1,1,1,0,0,NA,NA
"1740",31,60,1,1,1,0,0,NA,NA
"1741",31,61,1,1,1,0,0,NA,NA
"1742",31,62,1,1,1,1,0,NA,NA
"1743",31,63,1,1,1,0,0,NA,NA
"1744",31,64,1,1,1,0,0,NA,NA
"1745",31,65,1,1,1,1,0,NA,NA
"1746",31,66,1,1,1,0,0,NA,NA
"1747",31,67,1,1,1,0,0,NA,NA
"1748",31,68,1,1,1,0,0,NA,NA
"1749",31,69,1,1,1,1,0,NA,NA
"1750",31,70,1,1,1,0,0,NA,NA
"1751",31,71,1,1,1,1,0,NA,NA
"1752",31,72,1,1,1,0,0,NA,NA
"1753",31,73,1,1,1,0,0,NA,NA
"1754",31,74,1,1,1,0,0,NA,NA
"1755",31,75,1,1,1,0,0,NA,NA
"1756",31,76,1,1,1,1,0,NA,NA
"1757",31,77,1,1,1,1,0,NA,NA
"1758",31,78,1,1,1,1,0,NA,NA
"1759",31,79,1,1,1,1,0,NA,NA
"1760",31,80,1,1,1,0,0,NA,NA
"1761",32,41,1,1,1,0,1,NA,NA
"1762",32,42,1,1,1,0,1,NA,NA
"1763",32,43,1,1,1,0,1,NA,NA
"1764",32,44,1,1,1,0,1,NA,NA
"1765",32,45,1,1,1,0,1,NA,NA
"1766",32,46,1,1,1,1,1,NA,NA
"1767",32,47,1,1,1,0,1,NA,NA
"1768",32,48,1,1,1,0,1,NA,NA
"1769",32,49,1,1,1,1,1,NA,NA
"1770",32,50,1,1,1,1,1,NA,NA
"1771",32,51,1,1,1,1,1,NA,NA
"1772",32,52,1,1,1,0,1,NA,NA
"1773",32,53,1,1,1,0,1,NA,NA
"1774",32,54,1,1,1,0,1,NA,NA
"1775",32,55,1,1,1,0,1,NA,NA
"1776",32,56,1,1,1,0,1,NA,NA
"1777",32,57,1,1,1,1,1,NA,NA
"1778",32,58,1,1,1,0,1,NA,NA
"1779",32,59,1,1,1,1,1,NA,NA
"1780",32,81,1,1,1,1,1,NA,NA
"1781",32,61,1,1,1,1,1,NA,NA
"1782",32,62,1,1,1,1,1,NA,NA
"1783",32,63,1,1,1,0,1,NA,NA
"1784",32,64,1,1,1,1,1,NA,NA
"1785",32,65,1,1,1,1,1,NA,NA
"1786",32,66,1,1,1,1,1,NA,NA
"1787",32,67,1,1,1,0,1,NA,NA
"1788",32,68,1,1,1,0,1,NA,NA
"1789",32,69,1,1,1,0,1,NA,NA
"1790",32,70,1,1,1,0,1,NA,NA
"1791",32,71,1,1,1,1,1,NA,NA
"1792",32,72,1,1,1,0,1,NA,NA
"1793",32,73,1,1,1,1,1,NA,NA
"1794",32,74,1,1,1,0,1,NA,NA
"1795",32,75,1,1,1,1,1,NA,NA
"1796",32,76,1,1,1,1,1,NA,NA
"1797",32,77,1,1,1,0,1,NA,NA
"1798",32,78,1,1,1,1,1,NA,NA
"1799",32,79,1,1,1,0,1,NA,NA
"1800",32,80,1,1,1,0,1,NA,NA
"1801",32,1,1,1,1,0,0,NA,NA
"1802",32,2,1,1,1,0,0,NA,NA
"1803",32,3,1,1,1,0,0,NA,NA
"1804",32,4,1,1,1,0,0,NA,NA
"1805",32,5,1,1,1,0,0,NA,NA
"1806",32,6,1,1,1,1,0,NA,NA
"1807",32,7,1,1,1,0,0,NA,NA
"1808",32,8,1,1,1,0,0,NA,NA
"1809",32,9,1,1,1,0,0,NA,NA
"1810",32,10,1,1,1,0,0,NA,NA
"1811",32,11,1,1,1,0,0,NA,NA
"1812",32,12,1,1,1,0,0,NA,NA
"1813",32,13,1,1,1,0,0,NA,NA
"1814",32,14,1,1,1,0,0,NA,NA
"1815",32,15,1,1,1,0,0,NA,NA
"1816",32,16,1,1,1,0,0,NA,NA
"1817",32,17,1,1,1,0,0,NA,NA
"1818",32,18,1,1,1,0,0,NA,NA
"1819",32,19,1,1,1,1,0,NA,NA
"1820",32,20,1,1,1,1,0,NA,NA
"1821",32,21,1,1,1,0,0,NA,NA
"1822",32,22,1,1,1,0,0,NA,NA
"1823",32,23,1,1,1,0,0,NA,NA
"1824",32,24,1,1,1,0,0,NA,NA
"1825",32,25,1,1,1,0,0,NA,NA
"1826",32,26,1,1,1,0,0,NA,NA
"1827",32,27,1,1,1,1,0,NA,NA
"1828",32,28,1,1,1,0,0,NA,NA
"1829",32,29,1,1,1,0,0,NA,NA
"1830",32,30,1,1,1,0,0,NA,NA
"1831",32,31,1,1,1,0,0,NA,NA
"1832",32,32,1,1,1,0,0,NA,NA
"1833",32,33,1,1,1,1,0,NA,NA
"1834",32,34,1,1,1,1,0,NA,NA
"1835",32,35,1,1,1,0,0,NA,NA
"1836",32,36,1,1,1,1,0,NA,NA
"1837",32,37,1,1,1,0,0,NA,NA
"1838",32,38,1,1,1,0,0,NA,NA
"1839",32,39,1,1,1,0,0,NA,NA
"1840",32,40,1,1,1,0,0,NA,NA
"1841",33,41,1,1,1,1,1,NA,NA
"1842",33,42,1,1,1,1,1,NA,NA
"1843",33,43,1,1,1,1,1,NA,NA
"1844",33,44,1,1,1,0,1,NA,NA
"1845",33,45,1,1,1,1,1,NA,NA
"1846",33,46,1,1,1,1,1,NA,NA
"1847",33,47,1,1,1,1,1,NA,NA
"1848",33,48,1,1,1,1,1,NA,NA
"1849",33,49,1,1,1,0,1,NA,NA
"1850",33,50,1,1,1,1,1,NA,NA
"1851",33,51,1,1,1,1,1,NA,NA
"1852",33,52,1,1,1,1,1,NA,NA
"1853",33,53,1,1,1,0,1,NA,NA
"1854",33,54,1,1,1,1,1,NA,NA
"1855",33,55,1,1,1,1,1,NA,NA
"1856",33,56,1,1,1,1,1,NA,NA
"1857",33,57,1,1,1,1,1,NA,NA
"1858",33,58,1,1,1,1,1,NA,NA
"1859",33,59,1,1,1,1,1,NA,NA
"1860",33,81,1,1,1,1,1,NA,NA
"1861",33,61,1,1,1,0,1,NA,NA
"1862",33,62,1,1,1,1,1,NA,NA
"1863",33,63,1,1,1,1,1,NA,NA
"1864",33,64,1,1,1,1,1,NA,NA
"1865",33,65,1,1,1,0,1,NA,NA
"1866",33,66,1,1,1,0,1,NA,NA
"1867",33,67,1,1,1,1,1,NA,NA
"1868",33,68,1,1,1,1,1,NA,NA
"1869",33,69,1,1,1,0,1,NA,NA
"1870",33,70,1,1,1,1,1,NA,NA
"1871",33,71,1,1,1,1,1,NA,NA
"1872",33,72,1,1,1,1,1,NA,NA
"1873",33,73,1,1,1,0,1,NA,NA
"1874",33,74,1,1,1,0,1,NA,NA
"1875",33,75,1,1,1,1,1,NA,NA
"1876",33,76,1,1,1,1,1,NA,NA
"1877",33,77,1,1,1,1,1,NA,NA
"1878",33,78,1,1,1,0,1,NA,NA
"1879",33,79,1,1,1,0,1,NA,NA
"1880",33,80,1,1,1,0,1,NA,NA
"1881",33,1,1,1,1,1,0,NA,NA
"1882",33,2,1,1,1,1,0,NA,NA
"1883",33,3,1,1,1,0,0,NA,NA
"1884",33,4,1,1,1,0,0,NA,NA
"1885",33,5,1,1,1,0,0,NA,NA
"1886",33,6,1,1,1,0,0,NA,NA
"1887",33,7,1,1,1,0,0,NA,NA
"1888",33,8,1,1,1,0,0,NA,NA
"1889",33,9,1,1,1,1,0,NA,NA
"1890",33,10,1,1,1,0,0,NA,NA
"1891",33,11,1,1,1,0,0,NA,NA
"1892",33,12,1,1,1,0,0,NA,NA
"1893",33,13,1,1,1,0,0,NA,NA
"1894",33,14,1,1,1,1,0,NA,NA
"1895",33,15,1,1,1,1,0,NA,NA
"1896",33,16,1,1,1,1,0,NA,NA
"1897",33,17,1,1,1,1,0,NA,NA
"1898",33,18,1,1,1,1,0,NA,NA
"1899",33,19,1,1,1,1,0,NA,NA
"1900",33,20,1,1,1,1,0,NA,NA
"1901",33,21,1,1,1,0,0,NA,NA
"1902",33,22,1,1,1,0,0,NA,NA
"1903",33,23,1,1,1,1,0,NA,NA
"1904",33,24,1,1,1,0,0,NA,NA
"1905",33,25,1,1,1,1,0,NA,NA
"1906",33,26,1,1,1,0,0,NA,NA
"1907",33,27,1,1,1,1,0,NA,NA
"1908",33,28,1,1,1,0,0,NA,NA
"1909",33,29,1,1,1,1,0,NA,NA
"1910",33,30,1,1,1,0,0,NA,NA
"1911",33,31,1,1,1,0,0,NA,NA
"1912",33,32,1,1,1,0,0,NA,NA
"1913",33,33,1,1,1,1,0,NA,NA
"1914",33,34,1,1,1,1,0,NA,NA
"1915",33,35,1,1,1,0,0,NA,NA
"1916",33,36,1,1,1,0,0,NA,NA
"1917",33,37,1,1,1,1,0,NA,NA
"1918",33,38,1,1,1,1,0,NA,NA
"1919",33,39,1,1,1,1,0,NA,NA
"1920",33,40,1,1,1,1,0,NA,NA
"1921",34,1,1,1,1,1,1,NA,NA
"1922",34,2,1,1,1,1,1,NA,NA
"1923",34,3,1,1,1,0,1,NA,NA
"1924",34,4,1,1,1,0,1,NA,NA
"1925",34,5,1,1,1,1,1,NA,NA
"1926",34,6,1,1,1,0,1,NA,NA
"1927",34,7,1,1,1,1,1,NA,NA
"1928",34,8,1,1,1,0,1,NA,NA
"1929",34,9,1,1,1,1,1,NA,NA
"1930",34,10,1,1,1,0,1,NA,NA
"1931",34,11,1,1,1,1,1,NA,NA
"1932",34,12,1,1,1,1,1,NA,NA
"1933",34,13,1,1,1,1,1,NA,NA
"1934",34,14,1,1,1,1,1,NA,NA
"1935",34,15,1,1,1,0,1,NA,NA
"1936",34,16,1,1,1,1,1,NA,NA
"1937",34,17,1,1,1,1,1,NA,NA
"1938",34,18,1,1,1,1,1,NA,NA
"1939",34,19,1,1,1,1,1,NA,NA
"1940",34,20,1,1,1,1,1,NA,NA
"1941",34,21,1,1,1,0,1,NA,NA
"1942",34,22,1,1,1,0,1,NA,NA
"1943",34,23,1,1,1,1,1,NA,NA
"1944",34,24,1,1,1,1,1,NA,NA
"1945",34,25,1,1,1,0,1,NA,NA
"1946",34,26,1,1,1,1,1,NA,NA
"1947",34,27,1,1,1,1,1,NA,NA
"1948",34,28,1,1,1,0,1,NA,NA
"1949",34,29,1,1,1,1,1,NA,NA
"1950",34,30,1,1,1,0,1,NA,NA
"1951",34,31,1,1,1,1,1,NA,NA
"1952",34,32,1,1,1,1,1,NA,NA
"1953",34,33,1,1,1,1,1,NA,NA
"1954",34,34,1,1,1,1,1,NA,NA
"1955",34,35,1,1,1,0,1,NA,NA
"1956",34,36,1,1,1,1,1,NA,NA
"1957",34,37,1,1,1,1,1,NA,NA
"1958",34,38,1,1,1,0,1,NA,NA
"1959",34,39,1,1,1,1,1,NA,NA
"1960",34,40,1,1,1,1,1,NA,NA
"1961",34,41,1,1,1,1,0,NA,NA
"1962",34,42,1,1,1,1,0,NA,NA
"1963",34,43,1,1,1,1,0,NA,NA
"1964",34,44,1,1,1,0,0,NA,NA
"1965",34,45,1,1,1,0,0,NA,NA
"1966",34,46,1,1,1,0,0,NA,NA
"1967",34,47,1,1,1,1,0,NA,NA
"1968",34,48,1,1,1,0,0,NA,NA
"1969",34,49,1,1,1,0,0,NA,NA
"1970",34,50,1,1,1,1,0,NA,NA
"1971",34,51,1,1,1,1,0,NA,NA
"1972",34,52,1,1,1,1,0,NA,NA
"1973",34,53,1,1,1,1,0,NA,NA
"1974",34,54,1,1,1,1,0,NA,NA
"1975",34,55,1,1,1,0,0,NA,NA
"1976",34,56,1,1,1,1,0,NA,NA
"1977",34,57,1,1,1,0,0,NA,NA
"1978",34,58,1,1,1,1,0,NA,NA
"1979",34,59,1,1,1,1,0,NA,NA
"1980",34,60,1,1,1,1,0,NA,NA
"1981",34,61,1,1,1,0,0,NA,NA
"1982",34,62,1,1,1,1,0,NA,NA
"1983",34,63,1,1,1,0,0,NA,NA
"1984",34,64,1,1,1,0,0,NA,NA
"1985",34,65,1,1,1,0,0,NA,NA
"1986",34,66,1,1,1,0,0,NA,NA
"1987",34,67,1,1,1,0,0,NA,NA
"1988",34,68,1,1,1,0,0,NA,NA
"1989",34,69,1,1,1,1,0,NA,NA
"1990",34,70,1,1,1,1,0,NA,NA
"1991",34,71,1,1,1,1,0,NA,NA
"1992",34,72,1,1,1,0,0,NA,NA
"1993",34,73,1,1,1,0,0,NA,NA
"1994",34,74,1,1,1,1,0,NA,NA
"1995",34,75,1,1,1,0,0,NA,NA
"1996",34,76,1,1,1,1,0,NA,NA
"1997",34,77,1,1,1,0,0,NA,NA
"1998",34,78,1,1,1,1,0,NA,NA
"1999",34,79,1,1,1,1,0,NA,NA
"2000",34,80,1,1,1,1,0,NA,NA
"2001",35,41,1,1,1,1,1,NA,NA
"2002",35,42,1,1,1,1,1,NA,NA
"2003",35,43,1,1,1,1,1,NA,NA
"2004",35,44,1,1,1,1,1,NA,NA
"2005",35,45,1,1,1,0,1,NA,NA
"2006",35,46,1,1,1,0,1,NA,NA
"2007",35,47,1,1,1,1,1,NA,NA
"2008",35,48,1,1,1,1,1,NA,NA
"2009",35,49,1,1,1,1,1,NA,NA
"2010",35,50,1,1,1,0,1,NA,NA
"2011",35,51,1,1,1,1,1,NA,NA
"2012",35,52,1,1,1,1,1,NA,NA
"2013",35,53,1,1,1,1,1,NA,NA
"2014",35,54,1,1,1,0,1,NA,NA
"2015",35,55,1,1,1,1,1,NA,NA
"2016",35,56,1,1,1,0,1,NA,NA
"2017",35,57,1,1,1,1,1,NA,NA
"2018",35,58,1,1,1,0,1,NA,NA
"2019",35,59,1,1,1,1,1,NA,NA
"2020",35,81,1,1,1,1,1,NA,NA
"2021",35,61,1,1,1,0,1,NA,NA
"2022",35,62,1,1,1,1,1,NA,NA
"2023",35,63,1,1,1,0,1,NA,NA
"2024",35,64,1,1,1,1,1,NA,NA
"2025",35,65,1,1,1,0,1,NA,NA
"2026",35,66,1,1,1,0,1,NA,NA
"2027",35,67,1,1,1,1,1,NA,NA
"2028",35,68,1,1,1,1,1,NA,NA
"2029",35,69,1,1,1,0,1,NA,NA
"2030",35,70,1,1,1,0,1,NA,NA
"2031",35,71,1,1,1,0,1,NA,NA
"2032",35,72,1,1,1,0,1,NA,NA
"2033",35,73,1,1,1,0,1,NA,NA
"2034",35,74,1,1,1,0,1,NA,NA
"2035",35,75,1,1,1,1,1,NA,NA
"2036",35,76,1,1,1,1,1,NA,NA
"2037",35,77,1,1,1,0,1,NA,NA
"2038",35,78,1,1,1,1,1,NA,NA
"2039",35,79,1,1,1,0,1,NA,NA
"2040",35,80,1,1,1,0,1,NA,NA
"2041",35,1,1,1,1,0,0,NA,NA
"2042",35,2,1,1,1,1,0,NA,NA
"2043",35,3,1,1,1,1,0,NA,NA
"2044",35,4,1,1,1,1,0,NA,NA
"2045",35,5,1,1,1,0,0,NA,NA
"2046",35,6,1,1,1,0,0,NA,NA
"2047",35,7,1,1,1,0,0,NA,NA
"2048",35,8,1,1,1,1,0,NA,NA
"2049",35,9,1,1,1,1,0,NA,NA
"2050",35,10,1,1,1,0,0,NA,NA
"2051",35,11,1,1,1,0,0,NA,NA
"2052",35,12,1,1,1,1,0,NA,NA
"2053",35,13,1,1,1,0,0,NA,NA
"2054",35,14,1,1,1,1,0,NA,NA
"2055",35,15,1,1,1,0,0,NA,NA
"2056",35,16,1,1,1,0,0,NA,NA
"2057",35,17,1,1,1,1,0,NA,NA
"2058",35,18,1,1,1,0,0,NA,NA
"2059",35,19,1,1,1,1,0,NA,NA
"2060",35,20,1,1,1,1,0,NA,NA
"2061",35,21,1,1,1,0,0,NA,NA
"2062",35,22,1,1,1,0,0,NA,NA
"2063",35,23,1,1,1,1,0,NA,NA
"2064",35,24,1,1,1,0,0,NA,NA
"2065",35,25,1,1,1,0,0,NA,NA
"2066",35,26,1,1,1,1,0,NA,NA
"2067",35,27,1,1,1,0,0,NA,NA
"2068",35,28,1,1,1,0,0,NA,NA
"2069",35,29,1,1,1,0,0,NA,NA
"2070",35,30,1,1,1,0,0,NA,NA
"2071",35,31,1,1,1,0,0,NA,NA
"2072",35,32,1,1,1,0,0,NA,NA
"2073",35,33,1,1,1,0,0,NA,NA
"2074",35,34,1,1,1,0,0,NA,NA
"2075",35,35,1,1,1,1,0,NA,NA
"2076",35,36,1,1,1,1,0,NA,NA
"2077",35,37,1,1,1,1,0,NA,NA
"2078",35,38,1,1,1,0,0,NA,NA
"2079",35,39,1,1,1,0,0,NA,NA
"2080",35,40,1,1,1,1,0,NA,NA
"2081",36,1,1,1,1,1,1,NA,NA
"2082",36,2,1,1,1,0,1,NA,NA
"2083",36,3,1,1,1,1,1,NA,NA
"2084",36,4,1,1,1,1,1,NA,NA
"2085",36,5,1,1,1,1,1,NA,NA
"2086",36,6,1,1,1,1,1,NA,NA
"2087",36,7,1,1,1,1,1,NA,NA
"2088",36,8,1,1,1,1,1,NA,NA
"2089",36,9,1,1,1,1,1,NA,NA
"2090",36,10,1,1,1,1,1,NA,NA
"2091",36,11,1,1,1,1,1,NA,NA
"2092",36,12,1,1,1,1,1,NA,NA
"2093",36,13,1,1,1,1,1,NA,NA
"2094",36,14,1,1,1,1,1,NA,NA
"2095",36,15,1,1,1,1,1,NA,NA
"2096",36,16,1,1,1,1,1,NA,NA
"2097",36,17,1,1,1,1,1,NA,NA
"2098",36,18,1,1,1,1,1,NA,NA
"2099",36,19,1,1,1,1,1,NA,NA
"2100",36,20,1,1,1,1,1,NA,NA
"2101",36,21,1,1,1,1,1,NA,NA
"2102",36,22,1,1,1,1,1,NA,NA
"2103",36,23,1,1,1,0,1,NA,NA
"2104",36,24,1,1,1,1,1,NA,NA
"2105",36,25,1,1,1,0,1,NA,NA
"2106",36,26,1,1,1,1,1,NA,NA
"2107",36,27,1,1,1,1,1,NA,NA
"2108",36,28,1,1,1,1,1,NA,NA
"2109",36,29,1,1,1,1,1,NA,NA
"2110",36,30,1,1,1,1,1,NA,NA
"2111",36,31,1,1,1,0,1,NA,NA
"2112",36,32,1,1,1,1,1,NA,NA
"2113",36,33,1,1,1,1,1,NA,NA
"2114",36,34,1,1,1,1,1,NA,NA
"2115",36,35,1,1,1,1,1,NA,NA
"2116",36,36,1,1,1,1,1,NA,NA
"2117",36,37,1,1,1,1,1,NA,NA
"2118",36,38,1,1,1,1,1,NA,NA
"2119",36,39,1,1,1,1,1,NA,NA
"2120",36,40,1,1,1,1,1,NA,NA
"2121",36,41,1,1,1,1,0,NA,NA
"2122",36,42,1,1,1,1,0,NA,NA
"2123",36,43,1,1,1,1,0,NA,NA
"2124",36,44,1,1,1,1,0,NA,NA
"2125",36,45,1,1,1,0,0,NA,NA
"2126",36,46,1,1,1,1,0,NA,NA
"2127",36,47,1,1,1,1,0,NA,NA
"2128",36,48,1,1,1,1,0,NA,NA
"2129",36,49,1,1,1,0,0,NA,NA
"2130",36,50,1,1,1,0,0,NA,NA
"2131",36,51,1,1,1,1,0,NA,NA
"2132",36,52,1,1,1,1,0,NA,NA
"2133",36,53,1,1,1,0,0,NA,NA
"2134",36,54,1,1,1,1,0,NA,NA
"2135",36,55,1,1,1,0,0,NA,NA
"2136",36,56,1,1,1,1,0,NA,NA
"2137",36,57,1,1,1,0,0,NA,NA
"2138",36,58,1,1,1,1,0,NA,NA
"2139",36,59,1,1,1,0,0,NA,NA
"2140",36,60,1,1,1,1,0,NA,NA
"2141",36,61,1,1,1,0,0,NA,NA
"2142",36,62,1,1,1,1,0,NA,NA
"2143",36,63,1,1,1,0,0,NA,NA
"2144",36,64,1,1,1,0,0,NA,NA
"2145",36,65,1,1,1,0,0,NA,NA
"2146",36,66,1,1,1,0,0,NA,NA
"2147",36,67,1,1,1,0,0,NA,NA
"2148",36,68,1,1,1,1,0,NA,NA
"2149",36,69,1,1,1,1,0,NA,NA
"2150",36,70,1,1,1,0,0,NA,NA
"2151",36,71,1,1,1,1,0,NA,NA
"2152",36,72,1,1,1,0,0,NA,NA
"2153",36,73,1,1,1,1,0,NA,NA
"2154",36,74,1,1,1,0,0,NA,NA
"2155",36,75,1,1,1,1,0,NA,NA
"2156",36,76,1,1,1,1,0,NA,NA
"2157",36,77,1,1,1,1,0,NA,NA
"2158",36,78,1,1,1,1,0,NA,NA
"2159",36,79,1,1,1,0,0,NA,NA
"2160",36,80,1,1,1,1,0,NA,NA
"2161",37,1,1,1,1,1,1,NA,NA
"2162",37,2,1,1,1,0,1,NA,NA
"2163",37,3,1,1,1,0,1,NA,NA
"2164",37,4,1,1,1,0,1,NA,NA
"2165",37,5,1,1,1,1,1,NA,NA
"2166",37,6,1,1,1,1,1,NA,NA
"2167",37,7,1,1,1,0,1,NA,NA
"2168",37,8,1,1,1,0,1,NA,NA
"2169",37,9,1,1,1,0,1,NA,NA
"2170",37,10,1,1,1,1,1,NA,NA
"2171",37,11,1,1,1,1,1,NA,NA
"2172",37,12,1,1,1,0,1,NA,NA
"2173",37,13,1,1,1,1,1,NA,NA
"2174",37,14,1,1,1,1,1,NA,NA
"2175",37,15,1,1,1,0,1,NA,NA
"2176",37,16,1,1,1,1,1,NA,NA
"2177",37,17,1,1,1,0,1,NA,NA
"2178",37,18,1,1,1,1,1,NA,NA
"2179",37,19,1,1,1,0,1,NA,NA
"2180",37,20,1,1,1,0,1,NA,NA
"2181",37,21,1,1,1,1,1,NA,NA
"2182",37,22,1,1,1,1,1,NA,NA
"2183",37,23,1,1,1,0,1,NA,NA
"2184",37,24,1,1,1,0,1,NA,NA
"2185",37,25,1,1,1,0,1,NA,NA
"2186",37,26,1,1,1,0,1,NA,NA
"2187",37,27,1,1,1,1,1,NA,NA
"2188",37,28,1,1,1,0,1,NA,NA
"2189",37,29,1,1,1,1,1,NA,NA
"2190",37,30,1,1,1,1,1,NA,NA
"2191",37,31,1,1,1,1,1,NA,NA
"2192",37,32,1,1,1,0,1,NA,NA
"2193",37,33,1,1,1,0,1,NA,NA
"2194",37,34,1,1,1,0,1,NA,NA
"2195",37,35,1,1,1,1,1,NA,NA
"2196",37,36,1,1,1,1,1,NA,NA
"2197",37,37,1,1,1,0,1,NA,NA
"2198",37,38,1,1,1,1,1,NA,NA
"2199",37,39,1,1,1,1,1,NA,NA
"2200",37,40,1,1,1,0,1,NA,NA
"2201",37,41,1,1,1,0,0,NA,NA
"2202",37,42,1,1,1,1,0,NA,NA
"2203",37,43,1,1,1,0,0,NA,NA
"2204",37,44,1,1,1,1,0,NA,NA
"2205",37,45,1,1,1,1,0,NA,NA
"2206",37,46,1,1,1,1,0,NA,NA
"2207",37,47,1,1,1,1,0,NA,NA
"2208",37,48,1,1,1,1,0,NA,NA
"2209",37,49,1,1,1,1,0,NA,NA
"2210",37,50,1,1,1,0,0,NA,NA
"2211",37,51,1,1,1,1,0,NA,NA
"2212",37,52,1,1,1,1,0,NA,NA
"2213",37,53,1,1,1,1,0,NA,NA
"2214",37,54,1,1,1,0,0,NA,NA
"2215",37,55,1,1,1,1,0,NA,NA
"2216",37,56,1,1,1,1,0,NA,NA
"2217",37,57,1,1,1,0,0,NA,NA
"2218",37,58,1,1,1,0,0,NA,NA
"2219",37,59,1,1,1,1,0,NA,NA
"2220",37,60,1,1,1,1,0,NA,NA
"2221",37,61,1,1,1,0,0,NA,NA
"2222",37,62,1,1,1,1,0,NA,NA
"2223",37,63,1,1,1,0,0,NA,NA
"2224",37,64,1,1,1,0,0,NA,NA
"2225",37,65,1,1,1,1,0,NA,NA
"2226",37,66,1,1,1,1,0,NA,NA
"2227",37,67,1,1,1,1,0,NA,NA
"2228",37,68,1,1,1,1,0,NA,NA
"2229",37,69,1,1,1,0,0,NA,NA
"2230",37,70,1,1,1,1,0,NA,NA
"2231",37,71,1,1,1,1,0,NA,NA
"2232",37,72,1,1,1,1,0,NA,NA
"2233",37,73,1,1,1,1,0,NA,NA
"2234",37,74,1,1,1,0,0,NA,NA
"2235",37,75,1,1,1,0,0,NA,NA
"2236",37,76,1,1,1,0,0,NA,NA
"2237",37,77,1,1,1,1,0,NA,NA
"2238",37,78,1,1,1,0,0,NA,NA
"2239",37,79,1,1,1,1,0,NA,NA
"2240",37,80,1,1,1,1,0,NA,NA
"2241",39,1,1,1,1,0,1,NA,NA
"2242",39,2,1,1,1,1,1,NA,NA
"2243",39,3,1,1,1,1,1,NA,NA
"2244",39,4,1,1,1,0,1,NA,NA
"2245",39,5,1,1,1,0,1,NA,NA
"2246",39,6,1,1,1,1,1,NA,NA
"2247",39,7,1,1,1,1,1,NA,NA
"2248",39,8,1,1,1,0,1,NA,NA
"2249",39,9,1,1,1,0,1,NA,NA
"2250",39,10,1,1,1,0,1,NA,NA
"2251",39,11,1,1,1,0,1,NA,NA
"2252",39,12,1,1,1,1,1,NA,NA
"2253",39,13,1,1,1,0,1,NA,NA
"2254",39,14,1,1,1,1,1,NA,NA
"2255",39,15,1,1,1,1,1,NA,NA
"2256",39,16,1,1,1,1,1,NA,NA
"2257",39,17,1,1,1,0,1,NA,NA
"2258",39,18,1,1,1,0,1,NA,NA
"2259",39,19,1,1,1,1,1,NA,NA
"2260",39,20,1,1,1,1,1,NA,NA
"2261",39,21,1,1,1,0,1,NA,NA
"2262",39,22,1,1,1,0,1,NA,NA
"2263",39,23,1,1,1,1,1,NA,NA
"2264",39,24,1,1,1,0,1,NA,NA
"2265",39,25,1,1,1,0,1,NA,NA
"2266",39,26,1,1,1,1,1,NA,NA
"2267",39,27,1,1,1,1,1,NA,NA
"2268",39,28,1,1,1,1,1,NA,NA
"2269",39,29,1,1,1,0,1,NA,NA
"2270",39,30,1,1,1,0,1,NA,NA
"2271",39,31,1,1,1,0,1,NA,NA
"2272",39,32,1,1,1,0,1,NA,NA
"2273",39,33,1,1,1,1,1,NA,NA
"2274",39,34,1,1,1,0,1,NA,NA
"2275",39,35,1,1,1,0,1,NA,NA
"2276",39,36,1,1,1,1,1,NA,NA
"2277",39,37,1,1,1,0,1,NA,NA
"2278",39,38,1,1,1,0,1,NA,NA
"2279",39,39,1,1,1,1,1,NA,NA
"2280",39,40,1,1,1,1,1,NA,NA
"2281",39,41,1,1,1,1,0,NA,NA
"2282",39,42,1,1,1,0,0,NA,NA
"2283",39,43,1,1,1,1,0,NA,NA
"2284",39,44,1,1,1,1,0,NA,NA
"2285",39,45,1,1,1,0,0,NA,NA
"2286",39,46,1,1,1,0,0,NA,NA
"2287",39,47,1,1,1,1,0,NA,NA
"2288",39,48,1,1,1,1,0,NA,NA
"2289",39,49,1,1,1,1,0,NA,NA
"2290",39,50,1,1,1,1,0,NA,NA
"2291",39,51,1,1,1,1,0,NA,NA
"2292",39,52,1,1,1,0,0,NA,NA
"2293",39,53,1,1,1,0,0,NA,NA
"2294",39,54,1,1,1,1,0,NA,NA
"2295",39,55,1,1,1,1,0,NA,NA
"2296",39,56,1,1,1,1,0,NA,NA
"2297",39,57,1,1,1,1,0,NA,NA
"2298",39,58,1,1,1,1,0,NA,NA
"2299",39,59,1,1,1,1,0,NA,NA
"2300",39,60,1,1,1,0,0,NA,NA
"2301",39,61,1,1,1,0,0,NA,NA
"2302",39,62,1,1,1,0,0,NA,NA
"2303",39,63,1,1,1,0,0,NA,NA
"2304",39,64,1,1,1,0,0,NA,NA
"2305",39,65,1,1,1,0,0,NA,NA
"2306",39,66,1,1,1,1,0,NA,NA
"2307",39,67,1,1,1,1,0,NA,NA
"2308",39,68,1,1,1,0,0,NA,NA
"2309",39,69,1,1,1,0,0,NA,NA
"2310",39,70,1,1,1,0,0,NA,NA
"2311",39,71,1,1,1,1,0,NA,NA
"2312",39,72,1,1,1,0,0,NA,NA
"2313",39,73,1,1,1,0,0,NA,NA
"2314",39,74,1,1,1,0,0,NA,NA
"2315",39,75,1,1,1,1,0,NA,NA
"2316",39,76,1,1,1,1,0,NA,NA
"2317",39,77,1,1,1,1,0,NA,NA
"2318",39,78,1,1,1,1,0,NA,NA
"2319",39,79,1,1,1,0,0,NA,NA
"2320",39,80,1,1,1,0,0,NA,NA
"2321",4,41,1,1,1,0,1,NA,NA
"2322",4,42,1,1,1,1,1,NA,NA
"2323",4,43,1,1,1,1,1,NA,NA
"2324",4,44,1,1,1,0,1,NA,NA
"2325",4,45,1,1,1,0,1,NA,NA
"2326",4,46,1,1,1,1,1,NA,NA
"2327",4,47,1,1,1,1,1,NA,NA
"2328",4,48,1,1,1,0,1,NA,NA
"2329",4,49,1,1,1,1,1,NA,NA
"2330",4,50,1,1,1,1,1,NA,NA
"2331",4,51,1,1,1,0,1,NA,NA
"2332",4,52,1,1,1,1,1,NA,NA
"2333",4,53,1,1,1,1,1,NA,NA
"2334",4,54,1,1,1,1,1,NA,NA
"2335",4,55,1,1,1,0,1,NA,NA
"2336",4,56,1,1,1,1,1,NA,NA
"2337",4,57,1,1,1,0,1,NA,NA
"2338",4,58,1,1,1,1,1,NA,NA
"2339",4,59,1,1,1,1,1,NA,NA
"2340",4,81,1,1,1,1,1,NA,NA
"2341",4,61,1,1,1,0,1,NA,NA
"2342",4,62,1,1,1,1,1,NA,NA
"2343",4,63,1,1,1,0,1,NA,NA
"2344",4,64,1,1,1,0,1,NA,NA
"2345",4,65,1,1,1,1,1,NA,NA
"2346",4,66,1,1,1,0,1,NA,NA
"2347",4,67,1,1,1,0,1,NA,NA
"2348",4,68,1,1,1,0,1,NA,NA
"2349",4,69,1,1,1,0,1,NA,NA
"2350",4,70,1,1,1,0,1,NA,NA
"2351",4,71,1,1,1,0,1,NA,NA
"2352",4,72,1,1,1,0,1,NA,NA
"2353",4,73,1,1,1,1,1,NA,NA
"2354",4,74,1,1,1,1,1,NA,NA
"2355",4,75,1,1,1,0,1,NA,NA
"2356",4,76,1,1,1,1,1,NA,NA
"2357",4,77,1,1,1,0,1,NA,NA
"2358",4,78,1,1,1,1,1,NA,NA
"2359",4,79,1,1,1,0,1,NA,NA
"2360",4,80,1,1,1,1,1,NA,NA
"2361",4,1,1,1,1,0,0,NA,NA
"2362",4,2,1,1,1,0,0,NA,NA
"2363",4,3,1,1,1,1,0,NA,NA
"2364",4,4,1,1,1,1,0,NA,NA
"2365",4,5,1,1,1,1,0,NA,NA
"2366",4,6,1,1,1,0,0,NA,NA
"2367",4,7,1,1,1,1,0,NA,NA
"2368",4,8,1,1,1,0,0,NA,NA
"2369",4,9,1,1,1,1,0,NA,NA
"2370",4,10,1,1,1,0,0,NA,NA
"2371",4,11,1,1,1,0,0,NA,NA
"2372",4,12,1,1,1,1,0,NA,NA
"2373",4,13,1,1,1,0,0,NA,NA
"2374",4,14,1,1,1,1,0,NA,NA
"2375",4,15,1,1,1,0,0,NA,NA
"2376",4,16,1,1,1,1,0,NA,NA
"2377",4,17,1,1,1,0,0,NA,NA
"2378",4,18,1,1,1,0,0,NA,NA
"2379",4,19,1,1,1,0,0,NA,NA
"2380",4,20,1,1,1,1,0,NA,NA
"2381",4,21,1,1,1,1,0,NA,NA
"2382",4,22,1,1,1,0,0,NA,NA
"2383",4,23,1,1,1,1,0,NA,NA
"2384",4,24,1,1,1,0,0,NA,NA
"2385",4,25,1,1,1,1,0,NA,NA
"2386",4,26,1,1,1,0,0,NA,NA
"2387",4,27,1,1,1,1,0,NA,NA
"2388",4,28,1,1,1,1,0,NA,NA
"2389",4,29,1,1,1,0,0,NA,NA
"2390",4,30,1,1,1,1,0,NA,NA
"2391",4,31,1,1,1,0,0,NA,NA
"2392",4,32,1,1,1,1,0,NA,NA
"2393",4,33,1,1,1,0,0,NA,NA
"2394",4,34,1,1,1,1,0,NA,NA
"2395",4,35,1,1,1,1,0,NA,NA
"2396",4,36,1,1,1,1,0,NA,NA
"2397",4,37,1,1,1,1,0,NA,NA
"2398",4,38,1,1,1,0,0,NA,NA
"2399",4,39,1,1,1,0,0,NA,NA
"2400",4,40,1,1,1,1,0,NA,NA
"2401",40,41,1,1,1,1,1,NA,NA
"2402",40,42,1,1,1,1,1,NA,NA
"2403",40,43,1,1,1,1,1,NA,NA
"2404",40,44,1,1,1,1,1,NA,NA
"2405",40,45,1,1,1,0,1,NA,NA
"2406",40,46,1,1,1,1,1,NA,NA
"2407",40,47,1,1,1,1,1,NA,NA
"2408",40,48,1,1,1,1,1,NA,NA
"2409",40,49,1,1,1,1,1,NA,NA
"2410",40,50,1,1,1,0,1,NA,NA
"2411",40,51,1,1,1,1,1,NA,NA
"2412",40,52,1,1,1,0,1,NA,NA
"2413",40,53,1,1,1,1,1,NA,NA
"2414",40,54,1,1,1,1,1,NA,NA
"2415",40,55,1,1,1,1,1,NA,NA
"2416",40,56,1,1,1,0,1,NA,NA
"2417",40,57,1,1,1,1,1,NA,NA
"2418",40,58,1,1,1,1,1,NA,NA
"2419",40,59,1,1,1,1,1,NA,NA
"2420",40,81,1,1,1,0,1,NA,NA
"2421",40,61,1,1,1,0,1,NA,NA
"2422",40,62,1,1,1,1,1,NA,NA
"2423",40,63,1,1,1,0,1,NA,NA
"2424",40,64,1,1,1,0,1,NA,NA
"2425",40,65,1,1,1,0,1,NA,NA
"2426",40,66,1,1,1,1,1,NA,NA
"2427",40,67,1,1,1,0,1,NA,NA
"2428",40,68,1,1,1,0,1,NA,NA
"2429",40,69,1,1,1,0,1,NA,NA
"2430",40,70,1,1,1,0,1,NA,NA
"2431",40,71,1,1,1,0,1,NA,NA
"2432",40,72,1,1,1,0,1,NA,NA
"2433",40,73,1,1,1,0,1,NA,NA
"2434",40,74,1,1,1,1,1,NA,NA
"2435",40,75,1,1,1,1,1,NA,NA
"2436",40,76,1,1,1,1,1,NA,NA
"2437",40,77,1,1,1,1,1,NA,NA
"2438",40,78,1,1,1,1,1,NA,NA
"2439",40,79,1,1,1,0,1,NA,NA
"2440",40,80,1,1,1,1,1,NA,NA
"2441",40,1,1,1,1,0,0,NA,NA
"2442",40,2,1,1,1,0,0,NA,NA
"2443",40,3,1,1,1,1,0,NA,NA
"2444",40,4,1,1,1,1,0,NA,NA
"2445",40,5,1,1,1,0,0,NA,NA
"2446",40,6,1,1,1,0,0,NA,NA
"2447",40,7,1,1,1,1,0,NA,NA
"2448",40,8,1,1,1,0,0,NA,NA
"2449",40,9,1,1,1,0,0,NA,NA
"2450",40,10,1,1,1,1,0,NA,NA
"2451",40,11,1,1,1,1,0,NA,NA
"2452",40,12,1,1,1,0,0,NA,NA
"2453",40,13,1,1,1,0,0,NA,NA
"2454",40,14,1,1,1,1,0,NA,NA
"2455",40,15,1,1,1,0,0,NA,NA
"2456",40,16,1,1,1,0,0,NA,NA
"2457",40,17,1,1,1,0,0,NA,NA
"2458",40,18,1,1,1,0,0,NA,NA
"2459",40,19,1,1,1,0,0,NA,NA
"2460",40,20,1,1,1,0,0,NA,NA
"2461",40,21,1,1,1,0,0,NA,NA
"2462",40,22,1,1,1,0,0,NA,NA
"2463",40,23,1,1,1,1,0,NA,NA
"2464",40,24,1,1,1,0,0,NA,NA
"2465",40,25,1,1,1,0,0,NA,NA
"2466",40,26,1,1,1,1,0,NA,NA
"2467",40,27,1,1,1,0,0,NA,NA
"2468",40,28,1,1,1,0,0,NA,NA
"2469",40,29,1,1,1,1,0,NA,NA
"2470",40,30,1,1,1,1,0,NA,NA
"2471",40,31,1,1,1,1,0,NA,NA
"2472",40,32,1,1,1,1,0,NA,NA
"2473",40,33,1,1,1,0,0,NA,NA
"2474",40,34,1,1,1,1,0,NA,NA
"2475",40,35,1,1,1,0,0,NA,NA
"2476",40,36,1,1,1,0,0,NA,NA
"2477",40,37,1,1,1,0,0,NA,NA
"2478",40,38,1,1,1,1,0,NA,NA
"2479",40,39,1,1,1,1,0,NA,NA
"2480",40,40,1,1,1,0,0,NA,NA
"2481",41,41,1,1,1,0,1,NA,NA
"2482",41,42,1,1,1,1,1,NA,NA
"2483",41,43,1,1,1,1,1,NA,NA
"2484",41,44,1,1,1,0,1,NA,NA
"2485",41,45,1,1,1,1,1,NA,NA
"2486",41,46,1,1,1,1,1,NA,NA
"2487",41,47,1,1,1,0,1,NA,NA
"2488",41,48,1,1,1,0,1,NA,NA
"2489",41,49,1,1,1,0,1,NA,NA
"2490",41,50,1,1,1,1,1,NA,NA
"2491",41,51,1,1,1,1,1,NA,NA
"2492",41,52,1,1,1,1,1,NA,NA
"2493",41,53,1,1,1,0,1,NA,NA
"2494",41,54,1,1,1,1,1,NA,NA
"2495",41,55,1,1,1,0,1,NA,NA
"2496",41,56,1,1,1,0,1,NA,NA
"2497",41,57,1,1,1,0,1,NA,NA
"2498",41,58,1,1,1,0,1,NA,NA
"2499",41,59,1,1,1,0,1,NA,NA
"2500",41,81,1,1,1,0,1,NA,NA
"2501",41,61,1,1,1,0,1,NA,NA
"2502",41,62,1,1,1,1,1,NA,NA
"2503",41,63,1,1,1,0,1,NA,NA
"2504",41,64,1,1,1,0,1,NA,NA
"2505",41,65,1,1,1,1,1,NA,NA
"2506",41,66,1,1,1,1,1,NA,NA
"2507",41,67,1,1,1,0,1,NA,NA
"2508",41,68,1,1,1,0,1,NA,NA
"2509",41,69,1,1,1,0,1,NA,NA
"2510",41,70,1,1,1,1,1,NA,NA
"2511",41,71,1,1,1,0,1,NA,NA
"2512",41,72,1,1,1,0,1,NA,NA
"2513",41,73,1,1,1,0,1,NA,NA
"2514",41,74,1,1,1,0,1,NA,NA
"2515",41,75,1,1,1,1,1,NA,NA
"2516",41,76,1,1,1,0,1,NA,NA
"2517",41,77,1,1,1,0,1,NA,NA
"2518",41,78,1,1,1,1,1,NA,NA
"2519",41,79,1,1,1,0,1,NA,NA
"2520",41,80,1,1,1,1,1,NA,NA
"2521",41,1,1,1,1,1,0,NA,NA
"2522",41,2,1,1,1,0,0,NA,NA
"2523",41,3,1,1,1,0,0,NA,NA
"2524",41,4,1,1,1,0,0,NA,NA
"2525",41,5,1,1,1,0,0,NA,NA
"2526",41,6,1,1,1,0,0,NA,NA
"2527",41,7,1,1,1,0,0,NA,NA
"2528",41,8,1,1,1,1,0,NA,NA
"2529",41,9,1,1,1,0,0,NA,NA
"2530",41,10,1,1,1,0,0,NA,NA
"2531",41,11,1,1,1,0,0,NA,NA
"2532",41,12,1,1,1,1,0,NA,NA
"2533",41,13,1,1,1,0,0,NA,NA
"2534",41,14,1,1,1,0,0,NA,NA
"2535",41,15,1,1,1,0,0,NA,NA
"2536",41,16,1,1,1,1,0,NA,NA
"2537",41,17,1,1,1,0,0,NA,NA
"2538",41,18,1,1,1,1,0,NA,NA
"2539",41,19,1,1,1,0,0,NA,NA
"2540",41,20,1,1,1,1,0,NA,NA
"2541",41,21,1,1,1,0,0,NA,NA
"2542",41,22,1,1,1,0,0,NA,NA
"2543",41,23,1,1,1,0,0,NA,NA
"2544",41,24,1,1,1,0,0,NA,NA
"2545",41,25,1,1,1,0,0,NA,NA
"2546",41,26,1,1,1,0,0,NA,NA
"2547",41,27,1,1,1,0,0,NA,NA
"2548",41,28,1,1,1,1,0,NA,NA
"2549",41,29,1,1,1,1,0,NA,NA
"2550",41,30,1,1,1,0,0,NA,NA
"2551",41,31,1,1,1,0,0,NA,NA
"2552",41,32,1,1,1,0,0,NA,NA
"2553",41,33,1,1,1,1,0,NA,NA
"2554",41,34,1,1,1,1,0,NA,NA
"2555",41,35,1,1,1,0,0,NA,NA
"2556",41,36,1,1,1,0,0,NA,NA
"2557",41,37,1,1,1,0,0,NA,NA
"2558",41,38,1,1,1,0,0,NA,NA
"2559",41,39,1,1,1,1,0,NA,NA
"2560",41,40,1,1,1,1,0,NA,NA
"2561",42,1,1,1,1,1,1,NA,NA
"2562",42,2,1,1,1,0,1,NA,NA
"2563",42,3,1,1,1,0,1,NA,NA
"2564",42,4,1,1,1,1,1,NA,NA
"2565",42,5,1,1,1,0,1,NA,NA
"2566",42,6,1,1,1,1,1,NA,NA
"2567",42,7,1,1,1,1,1,NA,NA
"2568",42,8,1,1,1,0,1,NA,NA
"2569",42,9,1,1,1,0,1,NA,NA
"2570",42,10,1,1,1,0,1,NA,NA
"2571",42,11,1,1,1,1,1,NA,NA
"2572",42,12,1,1,1,0,1,NA,NA
"2573",42,13,1,1,1,1,1,NA,NA
"2574",42,14,1,1,1,1,1,NA,NA
"2575",42,15,1,1,1,0,1,NA,NA
"2576",42,16,1,1,1,1,1,NA,NA
"2577",42,17,1,1,1,1,1,NA,NA
"2578",42,18,1,1,1,0,1,NA,NA
"2579",42,19,1,1,1,1,1,NA,NA
"2580",42,20,1,1,1,1,1,NA,NA
"2581",42,21,1,1,1,1,1,NA,NA
"2582",42,22,1,1,1,0,1,NA,NA
"2583",42,23,1,1,1,1,1,NA,NA
"2584",42,24,1,1,1,0,1,NA,NA
"2585",42,25,1,1,1,0,1,NA,NA
"2586",42,26,1,1,1,0,1,NA,NA
"2587",42,27,1,1,1,0,1,NA,NA
"2588",42,28,1,1,1,1,1,NA,NA
"2589",42,29,1,1,1,1,1,NA,NA
"2590",42,30,1,1,1,1,1,NA,NA
"2591",42,31,1,1,1,0,1,NA,NA
"2592",42,32,1,1,1,0,1,NA,NA
"2593",42,33,1,1,1,0,1,NA,NA
"2594",42,34,1,1,1,0,1,NA,NA
"2595",42,35,1,1,1,0,1,NA,NA
"2596",42,36,1,1,1,1,1,NA,NA
"2597",42,37,1,1,1,1,1,NA,NA
"2598",42,38,1,1,1,0,1,NA,NA
"2599",42,39,1,1,1,1,1,NA,NA
"2600",42,40,1,1,1,1,1,NA,NA
"2601",42,41,1,1,1,1,0,NA,NA
"2602",42,42,1,1,1,1,0,NA,NA
"2603",42,43,1,1,1,0,0,NA,NA
"2604",42,44,1,1,1,0,0,NA,NA
"2605",42,45,1,1,1,0,0,NA,NA
"2606",42,46,1,1,1,0,0,NA,NA
"2607",42,47,1,1,1,0,0,NA,NA
"2608",42,48,1,1,1,0,0,NA,NA
"2609",42,49,1,1,1,1,0,NA,NA
"2610",42,50,1,1,1,0,0,NA,NA
"2611",42,51,1,1,1,0,0,NA,NA
"2612",42,52,1,1,1,1,0,NA,NA
"2613",42,53,1,1,1,0,0,NA,NA
"2614",42,54,1,1,1,0,0,NA,NA
"2615",42,55,1,1,1,1,0,NA,NA
"2616",42,56,1,1,1,0,0,NA,NA
"2617",42,57,1,1,1,0,0,NA,NA
"2618",42,58,1,1,1,0,0,NA,NA
"2619",42,59,1,1,1,1,0,NA,NA
"2620",42,60,1,1,1,0,0,NA,NA
"2621",42,61,1,1,1,0,0,NA,NA
"2622",42,62,1,1,1,1,0,NA,NA
"2623",42,63,1,1,1,0,0,NA,NA
"2624",42,64,1,1,1,1,0,NA,NA
"2625",42,65,1,1,1,0,0,NA,NA
"2626",42,66,1,1,1,0,0,NA,NA
"2627",42,67,1,1,1,1,0,NA,NA
"2628",42,68,1,1,1,0,0,NA,NA
"2629",42,69,1,1,1,0,0,NA,NA
"2630",42,70,1,1,1,0,0,NA,NA
"2631",42,71,1,1,1,0,0,NA,NA
"2632",42,72,1,1,1,0,0,NA,NA
"2633",42,73,1,1,1,0,0,NA,NA
"2634",42,74,1,1,1,1,0,NA,NA
"2635",42,75,1,1,1,0,0,NA,NA
"2636",42,76,1,1,1,1,0,NA,NA
"2637",42,77,1,1,1,1,0,NA,NA
"2638",42,78,1,1,1,0,0,NA,NA
"2639",42,79,1,1,1,0,0,NA,NA
"2640",42,80,1,1,1,0,0,NA,NA
"2641",43,1,1,1,1,1,1,NA,NA
"2642",43,2,1,1,1,1,1,NA,NA
"2643",43,3,1,1,1,1,1,NA,NA
"2644",43,4,1,1,1,0,1,NA,NA
"2645",43,5,1,1,1,0,1,NA,NA
"2646",43,6,1,1,1,1,1,NA,NA
"2647",43,7,1,1,1,1,1,NA,NA
"2648",43,8,1,1,1,1,1,NA,NA
"2649",43,9,1,1,1,1,1,NA,NA
"2650",43,10,1,1,1,1,1,NA,NA
"2651",43,11,1,1,1,1,1,NA,NA
"2652",43,12,1,1,1,0,1,NA,NA
"2653",43,13,1,1,1,1,1,NA,NA
"2654",43,14,1,1,1,1,1,NA,NA
"2655",43,15,1,1,1,1,1,NA,NA
"2656",43,16,1,1,1,0,1,NA,NA
"2657",43,17,1,1,1,0,1,NA,NA
"2658",43,18,1,1,1,1,1,NA,NA
"2659",43,19,1,1,1,1,1,NA,NA
"2660",43,20,1,1,1,1,1,NA,NA
"2661",43,21,1,1,1,1,1,NA,NA
"2662",43,22,1,1,1,0,1,NA,NA
"2663",43,23,1,1,1,0,1,NA,NA
"2664",43,24,1,1,1,1,1,NA,NA
"2665",43,25,1,1,1,1,1,NA,NA
"2666",43,26,1,1,1,0,1,NA,NA
"2667",43,27,1,1,1,1,1,NA,NA
"2668",43,28,1,1,1,1,1,NA,NA
"2669",43,29,1,1,1,1,1,NA,NA
"2670",43,30,1,1,1,1,1,NA,NA
"2671",43,31,1,1,1,1,1,NA,NA
"2672",43,32,1,1,1,1,1,NA,NA
"2673",43,33,1,1,1,1,1,NA,NA
"2674",43,34,1,1,1,1,1,NA,NA
"2675",43,35,1,1,1,1,1,NA,NA
"2676",43,36,1,1,1,0,1,NA,NA
"2677",43,37,1,1,1,1,1,NA,NA
"2678",43,38,1,1,1,1,1,NA,NA
"2679",43,39,1,1,1,1,1,NA,NA
"2680",43,40,1,1,1,1,1,NA,NA
"2681",43,41,1,1,1,1,0,NA,NA
"2682",43,42,1,1,1,1,0,NA,NA
"2683",43,43,1,1,1,1,0,NA,NA
"2684",43,44,1,1,1,0,0,NA,NA
"2685",43,45,1,1,1,1,0,NA,NA
"2686",43,46,1,1,1,1,0,NA,NA
"2687",43,47,1,1,1,1,0,NA,NA
"2688",43,48,1,1,1,1,0,NA,NA
"2689",43,49,1,1,1,1,0,NA,NA
"2690",43,50,1,1,1,1,0,NA,NA
"2691",43,51,1,1,1,0,0,NA,NA
"2692",43,52,1,1,1,1,0,NA,NA
"2693",43,53,1,1,1,1,0,NA,NA
"2694",43,54,1,1,1,1,0,NA,NA
"2695",43,55,1,1,1,1,0,NA,NA
"2696",43,56,1,1,1,1,0,NA,NA
"2697",43,57,1,1,1,0,0,NA,NA
"2698",43,58,1,1,1,1,0,NA,NA
"2699",43,59,1,1,1,1,0,NA,NA
"2700",43,60,1,1,1,1,0,NA,NA
"2701",43,61,1,1,1,0,0,NA,NA
"2702",43,62,1,1,1,1,0,NA,NA
"2703",43,63,1,1,1,0,0,NA,NA
"2704",43,64,1,1,1,1,0,NA,NA
"2705",43,65,1,1,1,1,0,NA,NA
"2706",43,66,1,1,1,1,0,NA,NA
"2707",43,67,1,1,1,0,0,NA,NA
"2708",43,68,1,1,1,1,0,NA,NA
"2709",43,69,1,1,1,1,0,NA,NA
"2710",43,70,1,1,1,0,0,NA,NA
"2711",43,71,1,1,1,1,0,NA,NA
"2712",43,72,1,1,1,0,0,NA,NA
"2713",43,73,1,1,1,1,0,NA,NA
"2714",43,74,1,1,1,0,0,NA,NA
"2715",43,75,1,1,1,1,0,NA,NA
"2716",43,76,1,1,1,1,0,NA,NA
"2717",43,77,1,1,1,1,0,NA,NA
"2718",43,78,1,1,1,1,0,NA,NA
"2719",43,79,1,1,1,0,0,NA,NA
"2720",43,80,1,1,1,1,0,NA,NA
"2721",44,41,1,1,1,1,1,NA,NA
"2722",44,42,1,1,1,0,1,NA,NA
"2723",44,43,1,1,1,1,1,NA,NA
"2724",44,44,1,1,1,1,1,NA,NA
"2725",44,45,1,1,1,1,1,NA,NA
"2726",44,46,1,1,1,1,1,NA,NA
"2727",44,47,1,1,1,1,1,NA,NA
"2728",44,48,1,1,1,0,1,NA,NA
"2729",44,49,1,1,1,1,1,NA,NA
"2730",44,50,1,1,1,1,1,NA,NA
"2731",44,51,1,1,1,1,1,NA,NA
"2732",44,52,1,1,1,1,1,NA,NA
"2733",44,53,1,1,1,1,1,NA,NA
"2734",44,54,1,1,1,1,1,NA,NA
"2735",44,55,1,1,1,1,1,NA,NA
"2736",44,56,1,1,1,1,1,NA,NA
"2737",44,57,1,1,1,1,1,NA,NA
"2738",44,58,1,1,1,1,1,NA,NA
"2739",44,59,1,1,1,1,1,NA,NA
"2740",44,81,1,1,1,1,1,NA,NA
"2741",44,61,1,1,1,1,1,NA,NA
"2742",44,62,1,1,1,1,1,NA,NA
"2743",44,63,1,1,1,0,1,NA,NA
"2744",44,64,1,1,1,1,1,NA,NA
"2745",44,65,1,1,1,1,1,NA,NA
"2746",44,66,1,1,1,0,1,NA,NA
"2747",44,67,1,1,1,1,1,NA,NA
"2748",44,68,1,1,1,1,1,NA,NA
"2749",44,69,1,1,1,1,1,NA,NA
"2750",44,70,1,1,1,1,1,NA,NA
"2751",44,71,1,1,1,1,1,NA,NA
"2752",44,72,1,1,1,1,1,NA,NA
"2753",44,73,1,1,1,0,1,NA,NA
"2754",44,74,1,1,1,1,1,NA,NA
"2755",44,75,1,1,1,1,1,NA,NA
"2756",44,76,1,1,1,1,1,NA,NA
"2757",44,77,1,1,1,0,1,NA,NA
"2758",44,78,1,1,1,0,1,NA,NA
"2759",44,79,1,1,1,1,1,NA,NA
"2760",44,80,1,1,1,0,1,NA,NA
"2761",44,1,1,1,1,0,0,NA,NA
"2762",44,2,1,1,1,1,0,NA,NA
"2763",44,3,1,1,1,1,0,NA,NA
"2764",44,4,1,1,1,0,0,NA,NA
"2765",44,5,1,1,1,1,0,NA,NA
"2766",44,6,1,1,1,1,0,NA,NA
"2767",44,7,1,1,1,1,0,NA,NA
"2768",44,8,1,1,1,0,0,NA,NA
"2769",44,9,1,1,1,1,0,NA,NA
"2770",44,10,1,1,1,1,0,NA,NA
"2771",44,11,1,1,1,1,0,NA,NA
"2772",44,12,1,1,1,1,0,NA,NA
"2773",44,13,1,1,1,1,0,NA,NA
"2774",44,14,1,1,1,1,0,NA,NA
"2775",44,15,1,1,1,1,0,NA,NA
"2776",44,16,1,1,1,0,0,NA,NA
"2777",44,17,1,1,1,0,0,NA,NA
"2778",44,18,1,1,1,0,0,NA,NA
"2779",44,19,1,1,1,0,0,NA,NA
"2780",44,20,1,1,1,1,0,NA,NA
"2781",44,21,1,1,1,0,0,NA,NA
"2782",44,22,1,1,1,0,0,NA,NA
"2783",44,23,1,1,1,1,0,NA,NA
"2784",44,24,1,1,1,0,0,NA,NA
"2785",44,25,1,1,1,1,0,NA,NA
"2786",44,26,1,1,1,1,0,NA,NA
"2787",44,27,1,1,1,1,0,NA,NA
"2788",44,28,1,1,1,1,0,NA,NA
"2789",44,29,1,1,1,1,0,NA,NA
"2790",44,30,1,1,1,1,0,NA,NA
"2791",44,31,1,1,1,1,0,NA,NA
"2792",44,32,1,1,1,1,0,NA,NA
"2793",44,33,1,1,1,1,0,NA,NA
"2794",44,34,1,1,1,0,0,NA,NA
"2795",44,35,1,1,1,0,0,NA,NA
"2796",44,36,1,1,1,0,0,NA,NA
"2797",44,37,1,1,1,0,0,NA,NA
"2798",44,38,1,1,1,0,0,NA,NA
"2799",44,39,1,1,1,1,0,NA,NA
"2800",44,40,1,1,1,1,0,NA,NA
"2801",45,41,1,1,1,0,1,NA,NA
"2802",45,42,1,1,1,1,1,NA,NA
"2803",45,43,1,1,1,1,1,NA,NA
"2804",45,44,1,1,1,0,1,NA,NA
"2805",45,45,1,1,1,1,1,NA,NA
"2806",45,46,1,1,1,0,1,NA,NA
"2807",45,47,1,1,1,0,1,NA,NA
"2808",45,48,1,1,1,1,1,NA,NA
"2809",45,49,1,1,1,1,1,NA,NA
"2810",45,50,1,1,1,0,1,NA,NA
"2811",45,51,1,1,1,0,1,NA,NA
"2812",45,52,1,1,1,1,1,NA,NA
"2813",45,53,1,1,1,1,1,NA,NA
"2814",45,54,1,1,1,1,1,NA,NA
"2815",45,55,1,1,1,1,1,NA,NA
"2816",45,56,1,1,1,0,1,NA,NA
"2817",45,57,1,1,1,0,1,NA,NA
"2818",45,58,1,1,1,0,1,NA,NA
"2819",45,59,1,1,1,0,1,NA,NA
"2820",45,81,1,1,1,1,1,NA,NA
"2821",45,61,1,1,1,0,1,NA,NA
"2822",45,62,1,1,1,0,1,NA,NA
"2823",45,63,1,1,1,1,1,NA,NA
"2824",45,64,1,1,1,1,1,NA,NA
"2825",45,65,1,1,1,1,1,NA,NA
"2826",45,66,1,1,1,0,1,NA,NA
"2827",45,67,1,1,1,1,1,NA,NA
"2828",45,68,1,1,1,1,1,NA,NA
"2829",45,69,1,1,1,0,1,NA,NA
"2830",45,70,1,1,1,0,1,NA,NA
"2831",45,71,1,1,1,1,1,NA,NA
"2832",45,72,1,1,1,0,1,NA,NA
"2833",45,73,1,1,1,1,1,NA,NA
"2834",45,74,1,1,1,0,1,NA,NA
"2835",45,75,1,1,1,0,1,NA,NA
"2836",45,76,1,1,1,1,1,NA,NA
"2837",45,77,1,1,1,1,1,NA,NA
"2838",45,78,1,1,1,1,1,NA,NA
"2839",45,79,1,1,1,0,1,NA,NA
"2840",45,80,1,1,1,1,1,NA,NA
"2841",45,1,1,1,1,0,0,NA,NA
"2842",45,2,1,1,1,0,0,NA,NA
"2843",45,3,1,1,1,1,0,NA,NA
"2844",45,4,1,1,1,0,0,NA,NA
"2845",45,5,1,1,1,1,0,NA,NA
"2846",45,6,1,1,1,0,0,NA,NA
"2847",45,7,1,1,1,1,0,NA,NA
"2848",45,8,1,1,1,0,0,NA,NA
"2849",45,9,1,1,1,0,0,NA,NA
"2850",45,10,1,1,1,1,0,NA,NA
"2851",45,11,1,1,1,1,0,NA,NA
"2852",45,12,1,1,1,0,0,NA,NA
"2853",45,13,1,1,1,0,0,NA,NA
"2854",45,14,1,1,1,0,0,NA,NA
"2855",45,15,1,1,1,1,0,NA,NA
"2856",45,16,1,1,1,0,0,NA,NA
"2857",45,17,1,1,1,0,0,NA,NA
"2858",45,18,1,1,1,1,0,NA,NA
"2859",45,19,1,1,1,1,0,NA,NA
"2860",45,20,1,1,1,0,0,NA,NA
"2861",45,21,1,1,1,0,0,NA,NA
"2862",45,22,1,1,1,0,0,NA,NA
"2863",45,23,1,1,1,0,0,NA,NA
"2864",45,24,1,1,1,0,0,NA,NA
"2865",45,25,1,1,1,1,0,NA,NA
"2866",45,26,1,1,1,0,0,NA,NA
"2867",45,27,1,1,1,1,0,NA,NA
"2868",45,28,1,1,1,0,0,NA,NA
"2869",45,29,1,1,1,0,0,NA,NA
"2870",45,30,1,1,1,0,0,NA,NA
"2871",45,31,1,1,1,0,0,NA,NA
"2872",45,32,1,1,1,1,0,NA,NA
"2873",45,33,1,1,1,0,0,NA,NA
"2874",45,34,1,1,1,1,0,NA,NA
"2875",45,35,1,1,1,0,0,NA,NA
"2876",45,36,1,1,1,1,0,NA,NA
"2877",45,37,1,1,1,0,0,NA,NA
"2878",45,38,1,1,1,0,0,NA,NA
"2879",45,39,1,1,1,1,0,NA,NA
"2880",45,40,1,1,1,0,0,NA,NA
"2881",46,1,1,1,1,0,1,NA,NA
"2882",46,2,1,1,1,0,1,NA,NA
"2883",46,3,1,1,1,1,1,NA,NA
"2884",46,4,1,1,1,1,1,NA,NA
"2885",46,5,1,1,1,1,1,NA,NA
"2886",46,6,1,1,1,1,1,NA,NA
"2887",46,7,1,1,1,0,1,NA,NA
"2888",46,8,1,1,1,0,1,NA,NA
"2889",46,9,1,1,1,1,1,NA,NA
"2890",46,10,1,1,1,1,1,NA,NA
"2891",46,11,1,1,1,1,1,NA,NA
"2892",46,12,1,1,1,1,1,NA,NA
"2893",46,13,1,1,1,1,1,NA,NA
"2894",46,14,1,1,1,1,1,NA,NA
"2895",46,15,1,1,1,1,1,NA,NA
"2896",46,16,1,1,1,1,1,NA,NA
"2897",46,17,1,1,1,1,1,NA,NA
"2898",46,18,1,1,1,1,1,NA,NA
"2899",46,19,1,1,1,1,1,NA,NA
"2900",46,20,1,1,1,1,1,NA,NA
"2901",46,21,1,1,1,1,1,NA,NA
"2902",46,22,1,1,1,0,1,NA,NA
"2903",46,23,1,1,1,1,1,NA,NA
"2904",46,24,1,1,1,1,1,NA,NA
"2905",46,25,1,1,1,0,1,NA,NA
"2906",46,26,1,1,1,1,1,NA,NA
"2907",46,27,1,1,1,1,1,NA,NA
"2908",46,28,1,1,1,1,1,NA,NA
"2909",46,29,1,1,1,0,1,NA,NA
"2910",46,30,1,1,1,1,1,NA,NA
"2911",46,31,1,1,1,1,1,NA,NA
"2912",46,32,1,1,1,1,1,NA,NA
"2913",46,33,1,1,1,1,1,NA,NA
"2914",46,34,1,1,1,1,1,NA,NA
"2915",46,35,1,1,1,1,1,NA,NA
"2916",46,36,1,1,1,1,1,NA,NA
"2917",46,37,1,1,1,0,1,NA,NA
"2918",46,38,1,1,1,1,1,NA,NA
"2919",46,39,1,1,1,1,1,NA,NA
"2920",46,40,1,1,1,1,1,NA,NA
"2921",46,41,1,1,1,1,0,NA,NA
"2922",46,42,1,1,1,0,0,NA,NA
"2923",46,43,1,1,1,1,0,NA,NA
"2924",46,44,1,1,1,0,0,NA,NA
"2925",46,45,1,1,1,1,0,NA,NA
"2926",46,46,1,1,1,1,0,NA,NA
"2927",46,47,1,1,1,0,0,NA,NA
"2928",46,48,1,1,1,1,0,NA,NA
"2929",46,49,1,1,1,1,0,NA,NA
"2930",46,50,1,1,1,1,0,NA,NA
"2931",46,51,1,1,1,0,0,NA,NA
"2932",46,52,1,1,1,1,0,NA,NA
"2933",46,53,1,1,1,1,0,NA,NA
"2934",46,54,1,1,1,1,0,NA,NA
"2935",46,55,1,1,1,1,0,NA,NA
"2936",46,56,1,1,1,1,0,NA,NA
"2937",46,57,1,1,1,0,0,NA,NA
"2938",46,58,1,1,1,1,0,NA,NA
"2939",46,59,1,1,1,1,0,NA,NA
"2940",46,60,1,1,1,1,0,NA,NA
"2941",46,61,1,1,1,0,0,NA,NA
"2942",46,62,1,1,1,1,0,NA,NA
"2943",46,63,1,1,1,1,0,NA,NA
"2944",46,64,1,1,1,1,0,NA,NA
"2945",46,65,1,1,1,0,0,NA,NA
"2946",46,66,1,1,1,1,0,NA,NA
"2947",46,67,1,1,1,1,0,NA,NA
"2948",46,68,1,1,1,1,0,NA,NA
"2949",46,69,1,1,1,1,0,NA,NA
"2950",46,70,1,1,1,1,0,NA,NA
"2951",46,71,1,1,1,0,0,NA,NA
"2952",46,72,1,1,1,0,0,NA,NA
"2953",46,73,1,1,1,1,0,NA,NA
"2954",46,74,1,1,1,1,0,NA,NA
"2955",46,75,1,1,1,0,0,NA,NA
"2956",46,76,1,1,1,1,0,NA,NA
"2957",46,77,1,1,1,0,0,NA,NA
"2958",46,78,1,1,1,1,0,NA,NA
"2959",46,79,1,1,1,0,0,NA,NA
"2960",46,80,1,1,1,0,0,NA,NA
"2961",47,41,1,1,1,0,1,NA,NA
"2962",47,42,1,1,1,1,1,NA,NA
"2963",47,43,1,1,1,1,1,NA,NA
"2964",47,44,1,1,1,0,1,NA,NA
"2965",47,45,1,1,1,1,1,NA,NA
"2966",47,46,1,1,1,1,1,NA,NA
"2967",47,47,1,1,1,1,1,NA,NA
"2968",47,48,1,1,1,0,1,NA,NA
"2969",47,49,1,1,1,1,1,NA,NA
"2970",47,50,1,1,1,1,1,NA,NA
"2971",47,51,1,1,1,1,1,NA,NA
"2972",47,52,1,1,1,0,1,NA,NA
"2973",47,53,1,1,1,1,1,NA,NA
"2974",47,54,1,1,1,0,1,NA,NA
"2975",47,55,1,1,1,1,1,NA,NA
"2976",47,56,1,1,1,0,1,NA,NA
"2977",47,57,1,1,1,1,1,NA,NA
"2978",47,58,1,1,1,1,1,NA,NA
"2979",47,59,1,1,1,1,1,NA,NA
"2980",47,81,1,1,1,1,1,NA,NA
"2981",47,61,1,1,1,0,1,NA,NA
"2982",47,62,1,1,1,1,1,NA,NA
"2983",47,63,1,1,1,1,1,NA,NA
"2984",47,64,1,1,1,0,1,NA,NA
"2985",47,65,1,1,1,0,1,NA,NA
"2986",47,66,1,1,1,1,1,NA,NA
"2987",47,67,1,1,1,1,1,NA,NA
"2988",47,68,1,1,1,1,1,NA,NA
"2989",47,69,1,1,1,1,1,NA,NA
"2990",47,70,1,1,1,1,1,NA,NA
"2991",47,71,1,1,1,1,1,NA,NA
"2992",47,72,1,1,1,1,1,NA,NA
"2993",47,73,1,1,1,1,1,NA,NA
"2994",47,74,1,1,1,1,1,NA,NA
"2995",47,75,1,1,1,1,1,NA,NA
"2996",47,76,1,1,1,1,1,NA,NA
"2997",47,77,1,1,1,1,1,NA,NA
"2998",47,78,1,1,1,1,1,NA,NA
"2999",47,79,1,1,1,1,1,NA,NA
"3000",47,80,1,1,1,1,1,NA,NA
"3001",47,1,1,1,1,1,0,NA,NA
"3002",47,2,1,1,1,1,0,NA,NA
"3003",47,3,1,1,1,0,0,NA,NA
"3004",47,4,1,1,1,1,0,NA,NA
"3005",47,5,1,1,1,1,0,NA,NA
"3006",47,6,1,1,1,1,0,NA,NA
"3007",47,7,1,1,1,1,0,NA,NA
"3008",47,8,1,1,1,0,0,NA,NA
"3009",47,9,1,1,1,0,0,NA,NA
"3010",47,10,1,1,1,1,0,NA,NA
"3011",47,11,1,1,1,0,0,NA,NA
"3012",47,12,1,1,1,0,0,NA,NA
"3013",47,13,1,1,1,1,0,NA,NA
"3014",47,14,1,1,1,1,0,NA,NA
"3015",47,15,1,1,1,1,0,NA,NA
"3016",47,16,1,1,1,1,0,NA,NA
"3017",47,17,1,1,1,1,0,NA,NA
"3018",47,18,1,1,1,0,0,NA,NA
"3019",47,19,1,1,1,1,0,NA,NA
"3020",47,20,1,1,1,1,0,NA,NA
"3021",47,21,1,1,1,1,0,NA,NA
"3022",47,22,1,1,1,1,0,NA,NA
"3023",47,23,1,1,1,1,0,NA,NA
"3024",47,24,1,1,1,0,0,NA,NA
"3025",47,25,1,1,1,0,0,NA,NA
"3026",47,26,1,1,1,1,0,NA,NA
"3027",47,27,1,1,1,0,0,NA,NA
"3028",47,28,1,1,1,0,0,NA,NA
"3029",47,29,1,1,1,1,0,NA,NA
"3030",47,30,1,1,1,1,0,NA,NA
"3031",47,31,1,1,1,1,0,NA,NA
"3032",47,32,1,1,1,1,0,NA,NA
"3033",47,33,1,1,1,1,0,NA,NA
"3034",47,34,1,1,1,1,0,NA,NA
"3035",47,35,1,1,1,0,0,NA,NA
"3036",47,36,1,1,1,1,0,NA,NA
"3037",47,37,1,1,1,0,0,NA,NA
"3038",47,38,1,1,1,1,0,NA,NA
"3039",47,39,1,1,1,1,0,NA,NA
"3040",47,40,1,1,1,0,0,NA,NA
"3041",48,1,1,1,1,0,1,NA,NA
"3042",48,2,1,1,1,0,1,NA,NA
"3043",48,3,1,1,1,0,1,NA,NA
"3044",48,4,1,1,1,0,1,NA,NA
"3045",48,5,1,1,1,1,1,NA,NA
"3046",48,6,1,1,1,1,1,NA,NA
"3047",48,7,1,1,1,1,1,NA,NA
"3048",48,8,1,1,1,1,1,NA,NA
"3049",48,9,1,1,1,0,1,NA,NA
"3050",48,10,1,1,1,0,1,NA,NA
"3051",48,11,1,1,1,1,1,NA,NA
"3052",48,12,1,1,1,1,1,NA,NA
"3053",48,13,1,1,1,1,1,NA,NA
"3054",48,14,1,1,1,1,1,NA,NA
"3055",48,15,1,1,1,1,1,NA,NA
"3056",48,16,1,1,1,0,1,NA,NA
"3057",48,17,1,1,1,1,1,NA,NA
"3058",48,18,1,1,1,0,1,NA,NA
"3059",48,19,1,1,1,1,1,NA,NA
"3060",48,20,1,1,1,1,1,NA,NA
"3061",48,21,1,1,1,0,1,NA,NA
"3062",48,22,1,1,1,1,1,NA,NA
"3063",48,23,1,1,1,0,1,NA,NA
"3064",48,24,1,1,1,0,1,NA,NA
"3065",48,25,1,1,1,1,1,NA,NA
"3066",48,26,1,1,1,1,1,NA,NA
"3067",48,27,1,1,1,0,1,NA,NA
"3068",48,28,1,1,1,0,1,NA,NA
"3069",48,29,1,1,1,1,1,NA,NA
"3070",48,30,1,1,1,0,1,NA,NA
"3071",48,31,1,1,1,1,1,NA,NA
"3072",48,32,1,1,1,0,1,NA,NA
"3073",48,33,1,1,1,0,1,NA,NA
"3074",48,34,1,1,1,1,1,NA,NA
"3075",48,35,1,1,1,1,1,NA,NA
"3076",48,36,1,1,1,0,1,NA,NA
"3077",48,37,1,1,1,0,1,NA,NA
"3078",48,38,1,1,1,0,1,NA,NA
"3079",48,39,1,1,1,1,1,NA,NA
"3080",48,40,1,1,1,1,1,NA,NA
"3081",48,41,1,1,1,0,0,NA,NA
"3082",48,42,1,1,1,0,0,NA,NA
"3083",48,43,1,1,1,1,0,NA,NA
"3084",48,44,1,1,1,0,0,NA,NA
"3085",48,45,1,1,1,1,0,NA,NA
"3086",48,46,1,1,1,0,0,NA,NA
"3087",48,47,1,1,1,0,0,NA,NA
"3088",48,48,1,1,1,0,0,NA,NA
"3089",48,49,1,1,1,0,0,NA,NA
"3090",48,50,1,1,1,0,0,NA,NA
"3091",48,51,1,1,1,0,0,NA,NA
"3092",48,52,1,1,1,0,0,NA,NA
"3093",48,53,1,1,1,0,0,NA,NA
"3094",48,54,1,1,1,1,0,NA,NA
"3095",48,55,1,1,1,0,0,NA,NA
"3096",48,56,1,1,1,0,0,NA,NA
"3097",48,57,1,1,1,0,0,NA,NA
"3098",48,58,1,1,1,0,0,NA,NA
"3099",48,59,1,1,1,1,0,NA,NA
"3100",48,60,1,1,1,0,0,NA,NA
"3101",48,61,1,1,1,0,0,NA,NA
"3102",48,62,1,1,1,0,0,NA,NA
"3103",48,63,1,1,1,0,0,NA,NA
"3104",48,64,1,1,1,0,0,NA,NA
"3105",48,65,1,1,1,0,0,NA,NA
"3106",48,66,1,1,1,0,0,NA,NA
"3107",48,67,1,1,1,0,0,NA,NA
"3108",48,68,1,1,1,1,0,NA,NA
"3109",48,69,1,1,1,1,0,NA,NA
"3110",48,70,1,1,1,0,0,NA,NA
"3111",48,71,1,1,1,1,0,NA,NA
"3112",48,72,1,1,1,0,0,NA,NA
"3113",48,73,1,1,1,0,0,NA,NA
"3114",48,74,1,1,1,0,0,NA,NA
"3115",48,75,1,1,1,0,0,NA,NA
"3116",48,76,1,1,1,1,0,NA,NA
"3117",48,77,1,1,1,0,0,NA,NA
"3118",48,78,1,1,1,1,0,NA,NA
"3119",48,79,1,1,1,0,0,NA,NA
"3120",48,80,1,1,1,1,0,NA,NA
"3121",49,41,1,1,1,0,1,NA,NA
"3122",49,42,1,1,1,1,1,NA,NA
"3123",49,43,1,1,1,0,1,NA,NA
"3124",49,44,1,1,1,0,1,NA,NA
"3125",49,45,1,1,1,1,1,NA,NA
"3126",49,46,1,1,1,0,1,NA,NA
"3127",49,47,1,1,1,1,1,NA,NA
"3128",49,48,1,1,1,0,1,NA,NA
"3129",49,49,1,1,1,1,1,NA,NA
"3130",49,50,1,1,1,1,1,NA,NA
"3131",49,51,1,1,1,1,1,NA,NA
"3132",49,52,1,1,1,1,1,NA,NA
"3133",49,53,1,1,1,0,1,NA,NA
"3134",49,54,1,1,1,0,1,NA,NA
"3135",49,55,1,1,1,1,1,NA,NA
"3136",49,56,1,1,1,1,1,NA,NA
"3137",49,57,1,1,1,1,1,NA,NA
"3138",49,58,1,1,1,0,1,NA,NA
"3139",49,59,1,1,1,0,1,NA,NA
"3140",49,81,1,1,1,0,1,NA,NA
"3141",49,61,1,1,1,0,1,NA,NA
"3142",49,62,1,1,1,0,1,NA,NA
"3143",49,63,1,1,1,0,1,NA,NA
"3144",49,64,1,1,1,1,1,NA,NA
"3145",49,65,1,1,1,1,1,NA,NA
"3146",49,66,1,1,1,1,1,NA,NA
"3147",49,67,1,1,1,1,1,NA,NA
"3148",49,68,1,1,1,1,1,NA,NA
"3149",49,69,1,1,1,0,1,NA,NA
"3150",49,70,1,1,1,1,1,NA,NA
"3151",49,71,1,1,1,0,1,NA,NA
"3152",49,72,1,1,1,1,1,NA,NA
"3153",49,73,1,1,1,0,1,NA,NA
"3154",49,74,1,1,1,1,1,NA,NA
"3155",49,75,1,1,1,1,1,NA,NA
"3156",49,76,1,1,1,1,1,NA,NA
"3157",49,77,1,1,1,0,1,NA,NA
"3158",49,78,1,1,1,0,1,NA,NA
"3159",49,79,1,1,1,0,1,NA,NA
"3160",49,80,1,1,1,0,1,NA,NA
"3161",49,1,1,1,1,0,0,NA,NA
"3162",49,2,1,1,1,0,0,NA,NA
"3163",49,3,1,1,1,0,0,NA,NA
"3164",49,4,1,1,1,0,0,NA,NA
"3165",49,5,1,1,1,1,0,NA,NA
"3166",49,6,1,1,1,0,0,NA,NA
"3167",49,7,1,1,1,0,0,NA,NA
"3168",49,8,1,1,1,0,0,NA,NA
"3169",49,9,1,1,1,1,0,NA,NA
"3170",49,10,1,1,1,0,0,NA,NA
"3171",49,11,1,1,1,0,0,NA,NA
"3172",49,12,1,1,1,1,0,NA,NA
"3173",49,13,1,1,1,0,0,NA,NA
"3174",49,14,1,1,1,0,0,NA,NA
"3175",49,15,1,1,1,0,0,NA,NA
"3176",49,16,1,1,1,1,0,NA,NA
"3177",49,17,1,1,1,0,0,NA,NA
"3178",49,18,1,1,1,1,0,NA,NA
"3179",49,19,1,1,1,0,0,NA,NA
"3180",49,20,1,1,1,0,0,NA,NA
"3181",49,21,1,1,1,0,0,NA,NA
"3182",49,22,1,1,1,0,0,NA,NA
"3183",49,23,1,1,1,0,0,NA,NA
"3184",49,24,1,1,1,0,0,NA,NA
"3185",49,25,1,1,1,0,0,NA,NA
"3186",49,26,1,1,1,0,0,NA,NA
"3187",49,27,1,1,1,0,0,NA,NA
"3188",49,28,1,1,1,0,0,NA,NA
"3189",49,29,1,1,1,1,0,NA,NA
"3190",49,30,1,1,1,0,0,NA,NA
"3191",49,31,1,1,1,1,0,NA,NA
"3192",49,32,1,1,1,0,0,NA,NA
"3193",49,33,1,1,1,1,0,NA,NA
"3194",49,34,1,1,1,0,0,NA,NA
"3195",49,35,1,1,1,0,0,NA,NA
"3196",49,36,1,1,1,0,0,NA,NA
"3197",49,37,1,1,1,0,0,NA,NA
"3198",49,38,1,1,1,0,0,NA,NA
"3199",49,39,1,1,1,1,0,NA,NA
"3200",49,40,1,1,1,0,0,NA,NA
"3201",5,1,1,1,1,0,1,NA,NA
"3202",5,2,1,1,1,0,1,NA,NA
"3203",5,3,1,1,1,0,1,NA,NA
"3204",5,4,1,1,1,1,1,NA,NA
"3205",5,5,1,1,1,0,1,NA,NA
"3206",5,6,1,1,1,0,1,NA,NA
"3207",5,7,1,1,1,1,1,NA,NA
"3208",5,8,1,1,1,1,1,NA,NA
"3209",5,9,1,1,1,0,1,NA,NA
"3210",5,10,1,1,1,0,1,NA,NA
"3211",5,11,1,1,1,1,1,NA,NA
"3212",5,12,1,1,1,1,1,NA,NA
"3213",5,13,1,1,1,0,1,NA,NA
"3214",5,14,1,1,1,0,1,NA,NA
"3215",5,15,1,1,1,0,1,NA,NA
"3216",5,16,1,1,1,1,1,NA,NA
"3217",5,17,1,1,1,1,1,NA,NA
"3218",5,18,1,1,1,1,1,NA,NA
"3219",5,19,1,1,1,0,1,NA,NA
"3220",5,20,1,1,1,0,1,NA,NA
"3221",5,21,1,1,1,1,1,NA,NA
"3222",5,22,1,1,1,0,1,NA,NA
"3223",5,23,1,1,1,0,1,NA,NA
"3224",5,24,1,1,1,0,1,NA,NA
"3225",5,25,1,1,1,0,1,NA,NA
"3226",5,26,1,1,1,0,1,NA,NA
"3227",5,27,1,1,1,0,1,NA,NA
"3228",5,28,1,1,1,0,1,NA,NA
"3229",5,29,1,1,1,0,1,NA,NA
"3230",5,30,1,1,1,0,1,NA,NA
"3231",5,31,1,1,1,0,1,NA,NA
"3232",5,32,1,1,1,1,1,NA,NA
"3233",5,33,1,1,1,1,1,NA,NA
"3234",5,34,1,1,1,1,1,NA,NA
"3235",5,35,1,1,1,1,1,NA,NA
"3236",5,36,1,1,1,1,1,NA,NA
"3237",5,37,1,1,1,1,1,NA,NA
"3238",5,38,1,1,1,0,1,NA,NA
"3239",5,39,1,1,1,0,1,NA,NA
"3240",5,40,1,1,1,0,1,NA,NA
"3241",5,41,1,1,1,1,0,NA,NA
"3242",5,42,1,1,1,0,0,NA,NA
"3243",5,43,1,1,1,0,0,NA,NA
"3244",5,44,1,1,1,0,0,NA,NA
"3245",5,45,1,1,1,0,0,NA,NA
"3246",5,46,1,1,1,0,0,NA,NA
"3247",5,47,1,1,1,1,0,NA,NA
"3248",5,48,1,1,1,0,0,NA,NA
"3249",5,49,1,1,1,0,0,NA,NA
"3250",5,50,1,1,1,0,0,NA,NA
"3251",5,51,1,1,1,0,0,NA,NA
"3252",5,52,1,1,1,1,0,NA,NA
"3253",5,53,1,1,1,1,0,NA,NA
"3254",5,54,1,1,1,1,0,NA,NA
"3255",5,55,1,1,1,1,0,NA,NA
"3256",5,56,1,1,1,0,0,NA,NA
"3257",5,57,1,1,1,1,0,NA,NA
"3258",5,58,1,1,1,1,0,NA,NA
"3259",5,59,1,1,1,0,0,NA,NA
"3260",5,60,1,1,1,0,0,NA,NA
"3261",5,61,1,1,1,0,0,NA,NA
"3262",5,62,1,1,1,1,0,NA,NA
"3263",5,63,1,1,1,0,0,NA,NA
"3264",5,64,1,1,1,0,0,NA,NA
"3265",5,65,1,1,1,1,0,NA,NA
"3266",5,66,1,1,1,1,0,NA,NA
"3267",5,67,1,1,1,1,0,NA,NA
"3268",5,68,1,1,1,0,0,NA,NA
"3269",5,69,1,1,1,0,0,NA,NA
"3270",5,70,1,1,1,0,0,NA,NA
"3271",5,71,1,1,1,0,0,NA,NA
"3272",5,72,1,1,1,0,0,NA,NA
"3273",5,73,1,1,1,0,0,NA,NA
"3274",5,74,1,1,1,0,0,NA,NA
"3275",5,75,1,1,1,0,0,NA,NA
"3276",5,76,1,1,1,1,0,NA,NA
"3277",5,77,1,1,1,1,0,NA,NA
"3278",5,78,1,1,1,1,0,NA,NA
"3279",5,79,1,1,1,0,0,NA,NA
"3280",5,80,1,1,1,0,0,NA,NA
"3281",50,1,1,1,1,0,1,NA,NA
"3282",50,2,1,1,1,1,1,NA,NA
"3283",50,3,1,1,1,0,1,NA,NA
"3284",50,4,1,1,1,1,1,NA,NA
"3285",50,5,1,1,1,1,1,NA,NA
"3286",50,6,1,1,1,1,1,NA,NA
"3287",50,7,1,1,1,1,1,NA,NA
"3288",50,8,1,1,1,0,1,NA,NA
"3289",50,9,1,1,1,1,1,NA,NA
"3290",50,10,1,1,1,1,1,NA,NA
"3291",50,11,1,1,1,1,1,NA,NA
"3292",50,12,1,1,1,1,1,NA,NA
"3293",50,13,1,1,1,1,1,NA,NA
"3294",50,14,1,1,1,1,1,NA,NA
"3295",50,15,1,1,1,0,1,NA,NA
"3296",50,16,1,1,1,1,1,NA,NA
"3297",50,17,1,1,1,0,1,NA,NA
"3298",50,18,1,1,1,1,1,NA,NA
"3299",50,19,1,1,1,1,1,NA,NA
"3300",50,20,1,1,1,1,1,NA,NA
"3301",50,21,1,1,1,0,1,NA,NA
"3302",50,22,1,1,1,0,1,NA,NA
"3303",50,23,1,1,1,1,1,NA,NA
"3304",50,24,1,1,1,1,1,NA,NA
"3305",50,25,1,1,1,1,1,NA,NA
"3306",50,26,1,1,1,0,1,NA,NA
"3307",50,27,1,1,1,1,1,NA,NA
"3308",50,28,1,1,1,1,1,NA,NA
"3309",50,29,1,1,1,0,1,NA,NA
"3310",50,30,1,1,1,1,1,NA,NA
"3311",50,31,1,1,1,1,1,NA,NA
"3312",50,32,1,1,1,1,1,NA,NA
"3313",50,33,1,1,1,1,1,NA,NA
"3314",50,34,1,1,1,0,1,NA,NA
"3315",50,35,1,1,1,1,1,NA,NA
"3316",50,36,1,1,1,1,1,NA,NA
"3317",50,37,1,1,1,1,1,NA,NA
"3318",50,38,1,1,1,1,1,NA,NA
"3319",50,39,1,1,1,1,1,NA,NA
"3320",50,40,1,1,1,1,1,NA,NA
"3321",50,41,1,1,1,1,0,NA,NA
"3322",50,42,1,1,1,0,0,NA,NA
"3323",50,43,1,1,1,0,0,NA,NA
"3324",50,44,1,1,1,0,0,NA,NA
"3325",50,45,1,1,1,0,0,NA,NA
"3326",50,46,1,1,1,0,0,NA,NA
"3327",50,47,1,1,1,0,0,NA,NA
"3328",50,48,1,1,1,1,0,NA,NA
"3329",50,49,1,1,1,0,0,NA,NA
"3330",50,50,1,1,1,1,0,NA,NA
"3331",50,51,1,1,1,1,0,NA,NA
"3332",50,52,1,1,1,1,0,NA,NA
"3333",50,53,1,1,1,0,0,NA,NA
"3334",50,54,1,1,1,1,0,NA,NA
"3335",50,55,1,1,1,1,0,NA,NA
"3336",50,56,1,1,1,0,0,NA,NA
"3337",50,57,1,1,1,0,0,NA,NA
"3338",50,58,1,1,1,1,0,NA,NA
"3339",50,59,1,1,1,0,0,NA,NA
"3340",50,60,1,1,1,1,0,NA,NA
"3341",50,61,1,1,1,1,0,NA,NA
"3342",50,62,1,1,1,1,0,NA,NA
"3343",50,63,1,1,1,0,0,NA,NA
"3344",50,64,1,1,1,0,0,NA,NA
"3345",50,65,1,1,1,1,0,NA,NA
"3346",50,66,1,1,1,1,0,NA,NA
"3347",50,67,1,1,1,1,0,NA,NA
"3348",50,68,1,1,1,1,0,NA,NA
"3349",50,69,1,1,1,0,0,NA,NA
"3350",50,70,1,1,1,1,0,NA,NA
"3351",50,71,1,1,1,1,0,NA,NA
"3352",50,72,1,1,1,0,0,NA,NA
"3353",50,73,1,1,1,0,0,NA,NA
"3354",50,74,1,1,1,1,0,NA,NA
"3355",50,75,1,1,1,0,0,NA,NA
"3356",50,76,1,1,1,1,0,NA,NA
"3357",50,77,1,1,1,0,0,NA,NA
"3358",50,78,1,1,1,1,0,NA,NA
"3359",50,79,1,1,1,0,0,NA,NA
"3360",50,80,1,1,1,0,0,NA,NA
"3361",51,1,1,1,1,1,1,NA,NA
"3362",51,2,1,1,1,1,1,NA,NA
"3363",51,3,1,1,1,1,1,NA,NA
"3364",51,4,1,1,1,0,1,NA,NA
"3365",51,5,1,1,1,1,1,NA,NA
"3366",51,6,1,1,1,1,1,NA,NA
"3367",51,7,1,1,1,0,1,NA,NA
"3368",51,8,1,1,1,0,1,NA,NA
"3369",51,9,1,1,1,1,1,NA,NA
"3370",51,10,1,1,1,1,1,NA,NA
"3371",51,11,1,1,1,1,1,NA,NA
"3372",51,12,1,1,1,0,1,NA,NA
"3373",51,13,1,1,1,1,1,NA,NA
"3374",51,14,1,1,1,1,1,NA,NA
"3375",51,15,1,1,1,1,1,NA,NA
"3376",51,16,1,1,1,1,1,NA,NA
"3377",51,17,1,1,1,1,1,NA,NA
"3378",51,18,1,1,1,1,1,NA,NA
"3379",51,19,1,1,1,0,1,NA,NA
"3380",51,20,1,1,1,1,1,NA,NA
"3381",51,21,1,1,1,1,1,NA,NA
"3382",51,22,1,1,1,1,1,NA,NA
"3383",51,23,1,1,1,1,1,NA,NA
"3384",51,24,1,1,1,1,1,NA,NA
"3385",51,25,1,1,1,1,1,NA,NA
"3386",51,26,1,1,1,1,1,NA,NA
"3387",51,27,1,1,1,1,1,NA,NA
"3388",51,28,1,1,1,1,1,NA,NA
"3389",51,29,1,1,1,1,1,NA,NA
"3390",51,30,1,1,1,1,1,NA,NA
"3391",51,31,1,1,1,1,1,NA,NA
"3392",51,32,1,1,1,1,1,NA,NA
"3393",51,33,1,1,1,1,1,NA,NA
"3394",51,34,1,1,1,1,1,NA,NA
"3395",51,35,1,1,1,1,1,NA,NA
"3396",51,36,1,1,1,1,1,NA,NA
"3397",51,37,1,1,1,1,1,NA,NA
"3398",51,38,1,1,1,1,1,NA,NA
"3399",51,39,1,1,1,1,1,NA,NA
"3400",51,40,1,1,1,0,1,NA,NA
"3401",51,41,1,1,1,1,0,NA,NA
"3402",51,42,1,1,1,1,0,NA,NA
"3403",51,43,1,1,1,0,0,NA,NA
"3404",51,44,1,1,1,1,0,NA,NA
"3405",51,45,1,1,1,1,0,NA,NA
"3406",51,46,1,1,1,0,0,NA,NA
"3407",51,47,1,1,1,1,0,NA,NA
"3408",51,48,1,1,1,0,0,NA,NA
"3409",51,49,1,1,1,1,0,NA,NA
"3410",51,50,1,1,1,0,0,NA,NA
"3411",51,51,1,1,1,1,0,NA,NA
"3412",51,52,1,1,1,1,0,NA,NA
"3413",51,53,1,1,1,1,0,NA,NA
"3414",51,54,1,1,1,0,0,NA,NA
"3415",51,55,1,1,1,1,0,NA,NA
"3416",51,56,1,1,1,1,0,NA,NA
"3417",51,57,1,1,1,0,0,NA,NA
"3418",51,58,1,1,1,0,0,NA,NA
"3419",51,59,1,1,1,1,0,NA,NA
"3420",51,60,1,1,1,1,0,NA,NA
"3421",51,61,1,1,1,1,0,NA,NA
"3422",51,62,1,1,1,1,0,NA,NA
"3423",51,63,1,1,1,0,0,NA,NA
"3424",51,64,1,1,1,0,0,NA,NA
"3425",51,65,1,1,1,1,0,NA,NA
"3426",51,66,1,1,1,0,0,NA,NA
"3427",51,67,1,1,1,1,0,NA,NA
"3428",51,68,1,1,1,1,0,NA,NA
"3429",51,69,1,1,1,0,0,NA,NA
"3430",51,70,1,1,1,1,0,NA,NA
"3431",51,71,1,1,1,1,0,NA,NA
"3432",51,72,1,1,1,0,0,NA,NA
"3433",51,73,1,1,1,0,0,NA,NA
"3434",51,74,1,1,1,0,0,NA,NA
"3435",51,75,1,1,1,0,0,NA,NA
"3436",51,76,1,1,1,1,0,NA,NA
"3437",51,77,1,1,1,1,0,NA,NA
"3438",51,78,1,1,1,1,0,NA,NA
"3439",51,79,1,1,1,1,0,NA,NA
"3440",51,80,1,1,1,1,0,NA,NA
"3441",53,41,1,1,1,1,1,NA,NA
"3442",53,42,1,1,1,1,1,NA,NA
"3443",53,43,1,1,1,1,1,NA,NA
"3444",53,44,1,1,1,0,1,NA,NA
"3445",53,45,1,1,1,1,1,NA,NA
"3446",53,46,1,1,1,1,1,NA,NA
"3447",53,47,1,1,1,1,1,NA,NA
"3448",53,48,1,1,1,1,1,NA,NA
"3449",53,49,1,1,1,1,1,NA,NA
"3450",53,50,1,1,1,1,1,NA,NA
"3451",53,51,1,1,1,0,1,NA,NA
"3452",53,52,1,1,1,1,1,NA,NA
"3453",53,53,1,1,1,1,1,NA,NA
"3454",53,54,1,1,1,1,1,NA,NA
"3455",53,55,1,1,1,1,1,NA,NA
"3456",53,56,1,1,1,1,1,NA,NA
"3457",53,57,1,1,1,1,1,NA,NA
"3458",53,58,1,1,1,1,1,NA,NA
"3459",53,59,1,1,1,1,1,NA,NA
"3460",53,81,1,1,1,1,1,NA,NA
"3461",53,61,1,1,1,1,1,NA,NA
"3462",53,62,1,1,1,1,1,NA,NA
"3463",53,63,1,1,1,0,1,NA,NA
"3464",53,64,1,1,1,0,1,NA,NA
"3465",53,65,1,1,1,0,1,NA,NA
"3466",53,66,1,1,1,0,1,NA,NA
"3467",53,67,1,1,1,0,1,NA,NA
"3468",53,68,1,1,1,1,1,NA,NA
"3469",53,69,1,1,1,0,1,NA,NA
"3470",53,70,1,1,1,1,1,NA,NA
"3471",53,71,1,1,1,0,1,NA,NA
"3472",53,72,1,1,1,1,1,NA,NA
"3473",53,73,1,1,1,1,1,NA,NA
"3474",53,74,1,1,1,0,1,NA,NA
"3475",53,75,1,1,1,1,1,NA,NA
"3476",53,76,1,1,1,1,1,NA,NA
"3477",53,77,1,1,1,1,1,NA,NA
"3478",53,78,1,1,1,0,1,NA,NA
"3479",53,79,1,1,1,0,1,NA,NA
"3480",53,80,1,1,1,1,1,NA,NA
"3481",53,1,1,1,1,0,0,NA,NA
"3482",53,2,1,1,1,0,0,NA,NA
"3483",53,3,1,1,1,0,0,NA,NA
"3484",53,4,1,1,1,0,0,NA,NA
"3485",53,5,1,1,1,0,0,NA,NA
"3486",53,6,1,1,1,0,0,NA,NA
"3487",53,7,1,1,1,1,0,NA,NA
"3488",53,8,1,1,1,0,0,NA,NA
"3489",53,9,1,1,1,0,0,NA,NA
"3490",53,10,1,1,1,0,0,NA,NA
"3491",53,11,1,1,1,0,0,NA,NA
"3492",53,12,1,1,1,0,0,NA,NA
"3493",53,13,1,1,1,0,0,NA,NA
"3494",53,14,1,1,1,1,0,NA,NA
"3495",53,15,1,1,1,1,0,NA,NA
"3496",53,16,1,1,1,1,0,NA,NA
"3497",53,17,1,1,1,1,0,NA,NA
"3498",53,18,1,1,1,0,0,NA,NA
"3499",53,19,1,1,1,1,0,NA,NA
"3500",53,20,1,1,1,1,0,NA,NA
"3501",53,21,1,1,1,0,0,NA,NA
"3502",53,22,1,1,1,0,0,NA,NA
"3503",53,23,1,1,1,0,0,NA,NA
"3504",53,24,1,1,1,1,0,NA,NA
"3505",53,25,1,1,1,0,0,NA,NA
"3506",53,26,1,1,1,0,0,NA,NA
"3507",53,27,1,1,1,0,0,NA,NA
"3508",53,28,1,1,1,0,0,NA,NA
"3509",53,29,1,1,1,1,0,NA,NA
