"ExpName","Subject","Age","Sex","GermanSkills","MajorStudies","Session","SetCondition","Task","Trial","Statement","Set","Status","Repetition","CRating","CRating.RT","TRating","TRating.RT","Recognition","Recognition.RT","ExtAttribution","ExtAttribution.RT","RetrievalExp","RetrievalExp.RT","Question","Answer","OpenAnswer","Filter"
"TEHT02","2",27,"male","good","makuwi","1","3","Buffer",22,"Das Capybara ist das größte aller Beuteltiere.","Buffer","false",NA,1,5907,NA,NA,NA,NA,NA,NA,NA,NA,NA,NA,NA,"excluded"
"TEHT02","2",27,"male","good","makuwi","1","3","Buffer",23,"Die Aktivität einer radioaktiven Substanz wird in Sievert gemessen.","Buffer","false",NA,4,3315,NA,NA,NA,NA,NA,NA,NA,NA,NA,NA,NA,"excluded"
"TEHT02","2",27,"male","good","makuwi","1","3","Buffer",24,"Der Philosoph Platon war einer der besten Speerwerfer seiner Zeit.","Buffer","false",NA,3,1246,NA,NA,NA,NA,NA,NA,NA,NA,NA,NA,NA,"excluded"
"TEHT02","2",27,"male","good","makuwi","1","3","Buffer",25,"Der weiße Hai hat keine natürlichen Feinde.","Buffer","true",NA,2,1870,NA,NA,NA,NA,NA,NA,NA,NA,NA,NA,NA,"excluded"
"TEHT02","2",27,"male","good","makuwi","1","3","Buffer",26,"Bei Nahrungsmangel kann ein Spulwurm bis zu 95% seines eigenen Körpers verzehren.","Buffer","false",NA,2,653,NA,NA,NA,NA,NA,NA,NA,NA,NA,NA,NA,"excluded"
"TEHT02","2",27,"male","good","makuwi","1","3","Buffer",27,"Der Film Ein unmoralische Angebot bekam die goldene Himbeere verliehen.","Buffer","true",NA,4,2247,NA,NA,NA,NA,NA,NA,NA,NA,NA,NA,NA,"excluded"
"TEHT02","2",27,"male","good","makuwi","1","3","Buffer",28,"Ein menschliches Haar wächst jährlich ca. 85 mm.","Buffer","true",NA,2,646,NA,NA,NA,NA,NA,NA,NA,NA,NA,NA,NA,"excluded"
"TEHT02","2",27,"male","good","makuwi","1","3","Buffer",29,"Das Zwerghörnchen ist das kleinste Säugetier Europas.","Buffer","false",NA,2,3240,NA,NA,NA,NA,NA,NA,NA,NA,NA,NA,NA,"excluded"
"TEHT02","2",27,"male","good","makuwi","1","3","Buffer",30,"Der Mond passt vierzigmal in die Erdkugel.","Buffer","false",NA,4,1638,NA,NA,NA,NA,NA,NA,NA,NA,NA,NA,NA,"excluded"
"TEHT02","2",27,"male","good","makuwi","1","3","Buffer",31,"Auf jedem Kontinent gibt es eine Stadt die Rom heißt.","Buffer","true",NA,3,1110,NA,NA,NA,NA,NA,NA,NA,NA,NA,NA,NA,"excluded"
"TEHT02","2",27,"male","good","makuwi","1","3","Buffer",32,"Pamela Anderson ist kanadische Staatsbürgerin.","Buffer","true",NA,3,1909,NA,NA,NA,NA,NA,NA,NA,NA,NA,NA,NA,"excluded"
"TEHT02","2",27,"male","good","makuwi","1","3","Buffer",33,"Ein Menschenfloh kann 20cm hoch springen.","Buffer","true",NA,2,721,NA,NA,NA,NA,NA,NA,NA,NA,NA,NA,NA,"excluded"
"TEHT02","2",27,"male","good","makuwi","1","3","Buffer",34,"In Deutschland leiden ca. 1 Millionen Menschen an Alzheimer.","Buffer","true",NA,3,831,NA,NA,NA,NA,NA,NA,NA,NA,NA,NA,NA,"excluded"
"TEHT02","2",27,"male","good","makuwi","1","3","Buffer",35,"Ein Polospiel ist in Zeitabschnitte von 7,5 Minuten unterteilt, die man Chukkas nennt.","Buffer","true",NA,5,834,NA,NA,NA,NA,NA,NA,NA,NA,NA,NA,NA,"excluded"
"TEHT02","2",27,"male","good","makuwi","1","3","CRating",36,"In Bolivien liegt der höchstgelegene Regierungssitz der Welt.","SetB","true","yes",3,836,NA,NA,NA,NA,NA,NA,NA,NA,NA,NA,NA,"excluded"
"TEHT02","2",27,"male","good","makuwi","1","3","CRating",37,"Der spanische Ex-Diktator Francisco Franco hatte den Beinamen Conducator.","SetA","false","yes",3,877,NA,NA,NA,NA,NA,NA,NA,NA,NA,NA,NA,"excluded"
"TEHT02","2",27,"male","good","makuwi","1","3","CRating",38,"Das Schnabeltier gehört nicht zur Gattung der Säugetiere.","SetA","false","yes",2,813,NA,NA,NA,NA,NA,NA,NA,NA,NA,NA,NA,"excluded"
"TEHT02","2",27,"male","good","makuwi","1","3","CRating",39,"Tuberkulose wird durch Viren übertragen.","SetB","false","yes",2,705,NA,NA,NA,NA,NA,NA,NA,NA,NA,NA,NA,"excluded"
"TEHT02","2",27,"male","good","makuwi","1","3","CRating",40,"Das Domino-Spiel besteht aus 28 Steinen.","SetA","true","yes",5,1174,NA,NA,NA,NA,NA,NA,NA,NA,NA,NA,NA,"excluded"
"TEHT02","2",27,"male","good","makuwi","1","3","CRating",41,"Die Hälfte der Bürger Albaniens ist jünger als 30 Jahre.","SetB","false","yes",4,2091,NA,NA,NA,NA,NA,NA,NA,NA,NA,NA,NA,"excluded"
"TEHT02","2",27,"male","good","makuwi","1","3","CRating",42,"Ein Schwan trägt ca. 50.000 Federn am Körper.","SetB","false","yes",2,639,NA,NA,NA,NA,NA,NA,NA,NA,NA,NA,NA,"excluded"
"TEHT02","2",27,"male","good","makuwi","1","3","CRating",43,"Sheryl Crow war früher Hürdenläuferin.","SetA","true","yes",5,1403,NA,NA,NA,NA,NA,NA,NA,NA,NA,NA,NA,"excluded"
"TEHT02","2",27,"male","good","makuwi","1","3","CRating",44,"Seoul bedeutet auf koreanisch Die Hauptstadt.","SetB","true","yes",6,1596,NA,NA,NA,NA,NA,NA,NA,NA,NA,NA,NA,"excluded"
"TEHT02","2",27,"male","good","makuwi","1","3","CRating",45,"Der Durchmesser des Wurfkreises beim Diskuswerfen beträgt 2,5 m","SetA","true","yes",2,1231,NA,NA,NA,NA,NA,NA,NA,NA,NA,NA,NA,"excluded"
"TEHT02","2",27,"male","good","makuwi","1","3","CRating",46,"Ein Dingo kann länger ohne Wasser leben als ein Kamel.","SetA","false","yes",2,1071,NA,NA,NA,NA,NA,NA,NA,NA,NA,NA,NA,"excluded"
"TEHT02","2",27,"male","good","makuwi","1","3","CRating",47,"Die italienische Flagge wurde von Giuseppe Garibaldi entworfen.","SetB","false","yes",6,993,NA,NA,NA,NA,NA,NA,NA,NA,NA,NA,NA,"excluded"
"TEHT02","2",27,"male","good","makuwi","1","3","CRating",48,"Der Bereich zwischen den Augenbrauen heißt Glabella.","SetA","true","yes",2,627,NA,NA,NA,NA,NA,NA,NA,NA,NA,NA,NA,"excluded"
"TEHT02","2",27,"male","good","makuwi","1","3","CRating",49,"Bolivien ist der kleinste Binnenstaat Südamerikas. ","SetA","false","yes",1,798,NA,NA,NA,NA,NA,NA,NA,NA,NA,NA,NA,"excluded"
"TEHT02","2",27,"male","good","makuwi","1","3","CRating",50,"Albert Einstein heiratete seine Cousine.","SetB","true","yes",3,618,NA,NA,NA,NA,NA,NA,NA,NA,NA,NA,NA,"excluded"
"TEHT02","2",27,"male","good","makuwi","1","3","CRating",51,"Es gibt drei Amerikanische Städte, die Santa Claus heißen.","SetB","true","yes",1,603,NA,NA,NA,NA,NA,NA,NA,NA,NA,NA,NA,"excluded"
"TEHT02","2",27,"male","good","makuwi","1","3","CRating",52,"Tennis wurde in englischen Klöstern erfunden. ","SetB","false","yes",5,807,NA,NA,NA,NA,NA,NA,NA,NA,NA,NA,NA,"excluded"
"TEHT02","2",27,"male","good","makuwi","1","3","CRating",53,"Alexander Graham Bell erfand das Tragflügelboot.","SetB","true","yes",3,593,NA,NA,NA,NA,NA,NA,NA,NA,NA,NA,NA,"excluded"
"TEHT02","2",27,"male","good","makuwi","1","3","CRating",54,"Virginia war die erste englische Kolonie in Nordamerika ","SetA","true","yes",3,485,NA,NA,NA,NA,NA,NA,NA,NA,NA,NA,NA,"excluded"
"TEHT02","2",27,"male","good","makuwi","1","3","CRating",55,"Das indische Tadsch Mahal wurde aus Basalt-Stein erbaut.","SetA","false","yes",3,1414,NA,NA,NA,NA,NA,NA,NA,NA,NA,NA,NA,"excluded"
"TEHT02","2",27,"male","good","makuwi","1","3","CRating",56,"Volleyball wurde in Florida erfunden.","SetB","false","yes",5,847,NA,NA,NA,NA,NA,NA,NA,NA,NA,NA,NA,"excluded"
"TEHT02","2",27,"male","good","makuwi","1","3","CRating",57,"Bob Dylan arbeitet nebenberuflich als Winzer.","SetA","true","yes",6,832,NA,NA,NA,NA,NA,NA,NA,NA,NA,NA,NA,"excluded"
"TEHT02","2",27,"male","good","makuwi","1","3","CRating",58,"Ende 2003 waren in Deutschland 15 Atomkraftwerke am Netz. ","SetB","false","yes",3,506,NA,NA,NA,NA,NA,NA,NA,NA,NA,NA,NA,"excluded"
"TEHT02","2",27,"male","good","makuwi","1","3","CRating",59,"Ein neugeborenes Panda-Baby ist kleiner als eine Maus.","SetA","true","yes",2,641,NA,NA,NA,NA,NA,NA,NA,NA,NA,NA,NA,"excluded"
"TEHT02","2",27,"male","good","makuwi","1","3","CRating",60,"Die in Südamerika beheimatete Kammspinne zählt zu den drei giftigsten Spinnenarten der Welt.","SetB","true","yes",1,866,NA,NA,NA,NA,NA,NA,NA,NA,NA,NA,NA,"excluded"
"TEHT02","2",27,"male","good","makuwi","1","3","CRating",61,"Eine der ersten deutschen Internetsuchmaschinen hieß Alcazar.","SetA","false","yes",4,1675,NA,NA,NA,NA,NA,NA,NA,NA,NA,NA,NA,"excluded"
"TEHT02","2",27,"male","good","makuwi","1","3","CRating",62,"Erdbeeren enthalten mehr Vitamin C als Orangen.","SetB","true","yes",4,770,NA,NA,NA,NA,NA,NA,NA,NA,NA,NA,NA,"excluded"
"TEHT02","2",27,"male","good","makuwi","1","3","CRating",63,"In Uganda ist die Amtssprache Englisch.","SetB","true","yes",4,1694,NA,NA,NA,NA,NA,NA,NA,NA,NA,NA,NA,"excluded"
"TEHT02","2",27,"male","good","makuwi","1","3","CRating",64,"Der Kilt stammt ursprünglich aus Irland, nicht aus Schottland.","SetA","false","yes",3,1373,NA,NA,NA,NA,NA,NA,NA,NA,NA,NA,NA,"excluded"
"TEHT02","2",27,"male","good","makuwi","1","3","CRating",65,"Balsaholz ist die schwerste aller Holzarten.","SetB","false","yes",4,697,NA,NA,NA,NA,NA,NA,NA,NA,NA,NA,NA,"excluded"
"TEHT02","2",27,"male","good","makuwi","1","3","CRating",66,"Der erste Bordcomputer für Autos wurde in Amerika entwickelt. ","SetA","false","yes",4,1743,NA,NA,NA,NA,NA,NA,NA,NA,NA,NA,NA,"excluded"
"TEHT02","2",27,"male","good","makuwi","1","3","CRating",67,"Das Jojo war ursprünglich eine philippinische Jagdwaffe.","SetA","true","yes",4,724,NA,NA,NA,NA,NA,NA,NA,NA,NA,NA,NA,"excluded"
"TEHT02","2",27,"male","good","makuwi","1","3","CRating",68,"Tiger haben nicht nur gestreiftes Fell, sondern auch gestreifte Haut.","SetB","true","yes",2,754,NA,NA,NA,NA,NA,NA,NA,NA,NA,NA,NA,"excluded"
"TEHT02","2",27,"male","good","makuwi","1","3","CRating",69,"Eine Stubenfliege hat eine maximale Lebensdauer von 70 Tagen.","SetB","true","yes",2,807,NA,NA,NA,NA,NA,NA,NA,NA,NA,NA,NA,"excluded"
"TEHT02","2",27,"male","good","makuwi","1","3","CRating",70,"Kaiser Konstantin IV wurde auf Befehl seiner eigenen Mutter ermordet.","SetB","true","yes",3,659,NA,NA,NA,NA,NA,NA,NA,NA,NA,NA,NA,"excluded"
"TEHT02","2",27,"male","good","makuwi","1","3","CRating",71,"Die Insel Ösel gehört zu Dänemark.","SetA","false","yes",1,730,NA,NA,NA,NA,NA,NA,NA,NA,NA,NA,NA,"excluded"
"TEHT02","2",27,"male","good","makuwi","1","3","CRating",72,"Das hawaiianische Alphabet besteht aus nur 12 Buchstaben.","SetB","true","yes",4,1138,NA,NA,NA,NA,NA,NA,NA,NA,NA,NA,NA,"excluded"
"TEHT02","2",27,"male","good","makuwi","1","3","CRating",73,"Laut WHO sind Krebserkrankungen die häufigste Todesursache.  ","SetA","false","yes",4,1158,NA,NA,NA,NA,NA,NA,NA,NA,NA,NA,NA,"excluded"
"TEHT02","2",27,"male","good","makuwi","1","3","CRating",74,"Schären sind Talgletscher in Skandinavien.","SetB","false","yes",1,1466,NA,NA,NA,NA,NA,NA,NA,NA,NA,NA,NA,"excluded"
"TEHT02","2",27,"male","good","makuwi","1","3","CRating",75,"Manama ist die Hauptstadt Bahrains.","SetA","true","yes",1,1089,NA,NA,NA,NA,NA,NA,NA,NA,NA,NA,NA,"excluded"
"TEHT02","2",27,"male","good","makuwi","1","3","CRating",76,"Die Schweden führten als erste Kartons anstelle von Milchflaschen ein.","SetB","true","yes",3,1409,NA,NA,NA,NA,NA,NA,NA,NA,NA,NA,NA,"excluded"
"TEHT02","2",27,"male","good","makuwi","1","3","CRating",77,"Mitgliedern der Nazi-SS wurde ihre Blutgruppe in die Achselhöhle tätowiert.","SetB","true","yes",3,1426,NA,NA,NA,NA,NA,NA,NA,NA,NA,NA,NA,"excluded"
"TEHT02","2",27,"male","good","makuwi","1","3","CRating",78,"Die Bach-Blütentherapie ist deutlich wirksamer als ein Placebo.","SetA","false","yes",4,1660,NA,NA,NA,NA,NA,NA,NA,NA,NA,NA,NA,"excluded"
"TEHT02","2",27,"male","good","makuwi","1","3","CRating",79,"Freddie Mercurys richtiger Name lautete Farrokh Bulsara.","SetA","true","yes",5,637,NA,NA,NA,NA,NA,NA,NA,NA,NA,NA,NA,"excluded"
"TEHT02","2",27,"male","good","makuwi","1","3","CRating",80,"Die Tanne ist der Nadelbaum mit den längsten Nadeln.","SetB","false","yes",4,1597,NA,NA,NA,NA,NA,NA,NA,NA,NA,NA,NA,"excluded"
"TEHT02","2",27,"male","good","makuwi","1","3","CRating",81,"Der Allradantrieb wurde 1938 in England erfunden.","SetB","false","yes",3,1953,NA,NA,NA,NA,NA,NA,NA,NA,NA,NA,NA,"excluded"
"TEHT02","2",27,"male","good","makuwi","1","3","CRating",82,"Die Schwarzerle zählt zu den Buchengewächsen.","SetA","false","yes",3,1572,NA,NA,NA,NA,NA,NA,NA,NA,NA,NA,NA,"excluded"
"TEHT02","2",27,"male","good","makuwi","1","3","CRating",83,"Der Prophet Mohammed arbeitete vor seiner religiösen Berufung als Arzt. ","SetA","false","yes",3,1280,NA,NA,NA,NA,NA,NA,NA,NA,NA,NA,NA,"excluded"
"TEHT02","2",27,"male","good","makuwi","1","3","CRating",84,"Die Norfolkinseln im Pazifik gehören zu Neuseeland. ","SetA","false","yes",1,598,NA,NA,NA,NA,NA,NA,NA,NA,NA,NA,NA,"excluded"
"TEHT02","2",27,"male","good","makuwi","1","3","CRating",85,"März und April sind die heißesten Monate auf den Malediven","SetA","true","yes",1,722,NA,NA,NA,NA,NA,NA,NA,NA,NA,NA,NA,"excluded"
"TEHT02","2",27,"male","good","makuwi","1","3","CRating",86,"Der Name BenQ steht für Bringing Enjoyment and Quality to Life.","SetA","true","yes",5,1167,NA,NA,NA,NA,NA,NA,NA,NA,NA,NA,NA,"excluded"
"TEHT02","2",27,"male","good","makuwi","1","3","CRating",87,"Lachse können bis zu 20 Jahre alt werden. ","SetB","false","yes",2,541,NA,NA,NA,NA,NA,NA,NA,NA,NA,NA,NA,"excluded"
"TEHT02","2",27,"male","good","makuwi","1","3","CRating",88,"Minerva ist die römische Göttin der Weisheit.","SetA","true","yes",3,426,NA,NA,NA,NA,NA,NA,NA,NA,NA,NA,NA,"excluded"
"TEHT02","2",27,"male","good","makuwi","1","3","CRating",89,"Richard Gere und Cindy Crawford ließen sich in Mexiko trauen.","SetB","false","yes",5,1517,NA,NA,NA,NA,NA,NA,NA,NA,NA,NA,NA,"excluded"
"TEHT02","2",27,"male","good","makuwi","1","3","CRating",90,"Kendo ist eine aus Japan stammende waffenlose Kampfsportart.","SetB","false","yes",4,1491,NA,NA,NA,NA,NA,NA,NA,NA,NA,NA,NA,"excluded"
"TEHT02","2",27,"male","good","makuwi","1","3","CRating",91,"Der Pavane ist ein spanisch-italienischer Volkstanz aus dem 16. Jahrhundert.","SetA","true","yes",3,825,NA,NA,NA,NA,NA,NA,NA,NA,NA,NA,NA,"excluded"
"TEHT02","2",27,"male","good","makuwi","1","3","Buffer",92,"Bei Männern heißt übermäßiger Geschlechtstrieb nicht Nymphomanie sondern Satyriasis.","Buffer","true",NA,4,1843,NA,NA,NA,NA,NA,NA,NA,NA,NA,NA,NA,"excluded"
"TEHT02","2",27,"male","good","makuwi","1","3","Buffer",93,"Der hundertjährige Krieg dauerte in Wahrheit nur 93 Jahre.","Buffer","false",NA,3,1010,NA,NA,NA,NA,NA,NA,NA,NA,NA,NA,NA,"excluded"
"TEHT02","2",27,"male","good","makuwi","1","3","Buffer",94,"Ultraschall sind Wellen und Schwingungen unterhalb von 16 Hertz.","Buffer","false",NA,2,598,NA,NA,NA,NA,NA,NA,NA,NA,NA,NA,NA,"excluded"
"TEHT02","2",27,"male","good","makuwi","1","3","Buffer",95,"Das erste Taschenbuch der Geschichte war Goethes Faust.","Buffer","true",NA,3,561,NA,NA,NA,NA,NA,NA,NA,NA,NA,NA,NA,"excluded"
"TEHT02","2",27,"male","good","makuwi","1","3","Buffer",96,"Morpheus ist der griechische Gott der Träume.","Buffer","true",NA,3,2310,NA,NA,NA,NA,NA,NA,NA,NA,NA,NA,NA,"excluded"
"TEHT02","2",27,"male","good","makuwi","1","3","Buffer",97,"Der griechische Gott Apollon ist der Schutzherr der Küste.","Buffer","true",NA,3,1339,NA,NA,NA,NA,NA,NA,NA,NA,NA,NA,NA,"excluded"
"TEHT02","2",27,"male","good","makuwi","1","3","Buffer",98,"Die Wüste Gobi ist eine Felswüste.","Buffer","false",NA,3,567,NA,NA,NA,NA,NA,NA,NA,NA,NA,NA,NA,"excluded"
"TEHT02","2",27,"male","good","makuwi","1","3","Buffer",99,"Spanien schaffte als letztes aller EU-Länder 1996 die Todesstrafe ab.","Buffer","false",NA,3,524,NA,NA,NA,NA,NA,NA,NA,NA,NA,NA,NA,"excluded"
"TEHT02","2",27,"male","good","makuwi","1","3","Buffer",100,"Nur ca. zwei Prozent der Weltbevölkerung sind von Natur aus blond.","Buffer","true",NA,4,1723,NA,NA,NA,NA,NA,NA,NA,NA,NA,NA,NA,"excluded"
"TEHT02","2",27,"male","good","makuwi","1","3","Buffer",101,"Die Gebrüder Montgolfier entwarfen den ersten Fallschirm.","Buffer","false",NA,3,464,NA,NA,NA,NA,NA,NA,NA,NA,NA,NA,NA,"excluded"
"TEHT02","2",27,"male","good","makuwi","1","3","Buffer",102,"Der Airbus A380 kann maximal 777 Passagiere transportieren. ","Buffer","false",NA,4,658,NA,NA,NA,NA,NA,NA,NA,NA,NA,NA,NA,"excluded"
"TEHT02","2",27,"male","good","makuwi","1","3","Buffer",103,"Die Luftröhre eines Menschen ist durchschnittlich 24 cm lang. ","Buffer","false",NA,2,530,NA,NA,NA,NA,NA,NA,NA,NA,NA,NA,NA,"excluded"
"TEHT02","2",27,"male","good","makuwi","1","3","Buffer",104,"Im Arabischen gibt es etwa 500 Worte für Kamel.","Buffer","false",NA,4,632,NA,NA,NA,NA,NA,NA,NA,NA,NA,NA,NA,"excluded"
"TEHT02","2",27,"male","good","makuwi","1","3","Buffer",105,"Jürgen Klinsmann erhielt bei Bayern München den Spitznamen Flipper.","Buffer","true",NA,5,844,NA,NA,NA,NA,NA,NA,NA,NA,NA,NA,NA,"excluded"
"TEHT02","2",27,"male","good","makuwi","2","3","Practice",1,"Das erste Taschenbuch der Geschichte war Goethes Faust.","Buffer","true","yes",NA,NA,1,8387,2,2644,2,3955,NA,0,NA,NA,"","excluded"
"TEHT02","2",27,"male","good","makuwi","2","3","Practice",2,"Ein Systemabsturz eines Mac-Rechners wird durch ein Warndreieck angezeigt.","SetD","false","no",NA,NA,4,6387,2,509,1,702,NA,0,NA,NA,"","excluded"
"TEHT02","2",27,"male","good","makuwi","2","3","Practice",3,"Auf jedem Kontinent gibt es eine Stadt die Rom heißt.","Buffer","true","yes",NA,NA,1,1644,2,416,1,547,NA,0,NA,NA,"","excluded"
"TEHT02","2",27,"male","good","makuwi","2","3","Practice",4,"Ein menschliches Haar wächst jährlich ca. 85 mm.","Buffer","true","yes",NA,NA,6,773,1,501,1,544,1,3004,NA,NA,"","excluded"
"TEHT02","2",27,"male","good","makuwi","2","3","TRating",5,"Ebenso wie der Fingerabdruck ist auch der Zungenabdruck eines Menschen einzigartig.","SetC","true","no",NA,NA,2,11975,2,542,2,803,NA,3004,NA,NA,"","excluded"
"TEHT02","2",27,"male","good","makuwi","2","3","TRating",6,"Der erste Bordcomputer für Autos wurde in Amerika entwickelt. ","SetA","false","yes",NA,NA,4,1813,2,434,2,724,NA,3004,NA,NA,"","excluded"
"TEHT02","2",27,"male","good","makuwi","2","3","TRating",7,"Manama ist die Hauptstadt Bahrains.","SetA","true","yes",NA,NA,4,1173,2,623,2,521,NA,3004,NA,NA,"","excluded"
"TEHT02","2",27,"male","good","makuwi","2","3","TRating",8,"Der Kilt stammt ursprünglich aus Irland, nicht aus Schottland.","SetA","false","yes",NA,NA,4,1946,2,451,1,1261,NA,3004,NA,NA,"","excluded"
"TEHT02","2",27,"male","good","makuwi","2","3","TRating",9,"Nauru ist die kleinste souveräne Republik der Erde.","SetC","true","no",NA,NA,4,1502,2,1632,2,722,NA,3004,NA,NA,"","excluded"
"TEHT02","2",27,"male","good","makuwi","2","3","TRating",10,"Der Durchmesser des Wurfkreises beim Diskuswerfen beträgt 2,5 m","SetA","true","yes",NA,NA,3,1683,2,376,2,488,NA,3004,NA,NA,"","excluded"
"TEHT02","2",27,"male","good","makuwi","2","3","TRating",11,"Der Allradantrieb wurde 1938 in England erfunden.","SetB","false","yes",NA,NA,4,1109,2,511,2,579,NA,3004,NA,NA,"","excluded"
"TEHT02","2",27,"male","good","makuwi","2","3","TRating",12,"Das hawaiianische Alphabet besteht aus nur 12 Buchstaben.","SetB","true","yes",NA,NA,4,537,2,711,2,421,NA,3004,NA,NA,"","excluded"
"TEHT02","2",27,"male","good","makuwi","2","3","TRating",13,"Die Insel Ösel gehört zu Dänemark.","SetA","false","yes",NA,NA,5,1568,1,514,2,475,2,912,NA,NA,"","excluded"
"TEHT02","2",27,"male","good","makuwi","2","3","TRating",14,"Das Domino-Spiel besteht aus 28 Steinen.","SetA","true","yes",NA,NA,3,951,2,406,2,980,NA,912,NA,NA,"","excluded"
"TEHT02","2",27,"male","good","makuwi","2","3","TRating",15,"Richard Gere und Cindy Crawford ließen sich in Mexiko trauen.","SetB","false","yes",NA,NA,4,820,1,1025,2,1324,3,1017,NA,NA,"","excluded"
"TEHT02","2",27,"male","good","makuwi","2","3","TRating",16,"Tennis wurde in englischen Klöstern erfunden. ","SetB","false","yes",NA,NA,3,812,2,517,2,477,NA,1017,NA,NA,"","excluded"
"TEHT02","2",27,"male","good","makuwi","2","3","TRating",17,"In Bolivien liegt der höchstgelegene Regierungssitz der Welt.","SetB","true","yes",NA,NA,4,893,2,449,2,698,NA,1017,NA,NA,"","excluded"
"TEHT02","2",27,"male","good","makuwi","2","3","TRating",18,"Die Tanne ist der Nadelbaum mit den längsten Nadeln.","SetB","false","yes",NA,NA,3,556,2,395,2,408,NA,1017,NA,NA,"","excluded"
"TEHT02","2",27,"male","good","makuwi","2","3","TRating",19,"Alexander Graham Bell erfand das Tragflügelboot.","SetB","true","yes",NA,NA,4,1671,2,597,2,477,NA,1017,NA,NA,"","excluded"
"TEHT02","2",27,"male","good","makuwi","2","3","TRating",20,"Der heißeste Ort im jährlichen Mittel ist Duri in Somalia mit 34,4° Celsius.","SetC","false","no",NA,NA,4,1746,2,456,2,572,NA,1017,NA,NA,"","excluded"
"TEHT02","2",27,"male","good","makuwi","2","3","TRating",21,"Die Erde wird in 360 Längengrade unterteilt.","SetC","true","no",NA,NA,4,1098,2,389,2,552,NA,1017,NA,NA,"","excluded"
"TEHT02","2",27,"male","good","makuwi","2","3","TRating",22,"Freddie Mercurys richtiger Name lautete Farrokh Bulsara.","SetA","true","yes",NA,NA,4,729,2,371,2,566,NA,1017,NA,NA,"","excluded"
"TEHT02","2",27,"male","good","makuwi","2","3","TRating",23,"Der Prophet Mohammed arbeitete vor seiner religiösen Berufung als Arzt. ","SetA","false","yes",NA,NA,3,2608,1,466,2,999,3,762,NA,NA,"","excluded"
"TEHT02","2",27,"male","good","makuwi","2","3","TRating",24,"Kendo ist eine aus Japan stammende waffenlose Kampfsportart.","SetB","false","yes",NA,NA,6,1552,1,459,1,867,1,475,NA,NA,"","excluded"
"TEHT02","2",27,"male","good","makuwi","2","3","TRating",25,"In Griechenland gilt  nicht Freitag der 13., sondern Mittwoch der 13. als Unglückstag.","SetC","false","no",NA,NA,4,1804,2,559,2,396,NA,475,NA,NA,"","excluded"
"TEHT02","2",27,"male","good","makuwi","2","3","TRating",26,"Das indische Tadsch Mahal wurde aus Basalt-Stein erbaut.","SetA","false","yes",NA,NA,4,1157,2,563,2,416,NA,475,NA,NA,"","excluded"
"TEHT02","2",27,"male","good","makuwi","2","3","TRating",27,"Jassir Arafat kämpfte im Sueskrieg für die ägyptische Armee.","SetC","true","no",NA,NA,4,1656,2,426,2,791,NA,475,NA,NA,"","excluded"
"TEHT02","2",27,"male","good","makuwi","2","3","TRating",28,"Kleinohrigel haben keine Stacheln.","SetC","false","no",NA,NA,4,828,1,423,2,405,2,969,NA,NA,"","excluded"
"TEHT02","2",27,"male","good","makuwi","2","3","TRating",29,"Jean-Jaques Rousseau war alleinerziehender Vater.","SetC","false","no",NA,NA,4,1614,2,948,2,1135,NA,969,NA,NA,"","excluded"
"TEHT02","2",27,"male","good","makuwi","2","3","TRating",30,"Das älteste noch existierende Parlament der Welt ist das „Sejm“ in Polen.","SetC","false","no",NA,NA,3,1353,2,960,2,772,NA,969,NA,NA,"","excluded"
"TEHT02","2",27,"male","good","makuwi","2","3","TRating",31,"Volleyball wurde in Florida erfunden.","SetB","false","yes",NA,NA,6,1020,1,867,2,2078,1,907,NA,NA,"","excluded"
"TEHT02","2",27,"male","good","makuwi","2","3","TRating",32,"Die in Südamerika beheimatete Kammspinne zählt zu den drei giftigsten Spinnenarten der Welt.","SetB","true","yes",NA,NA,4,1123,1,645,2,702,2,1054,NA,NA,"","excluded"
"TEHT02","2",27,"male","good","makuwi","2","3","TRating",33,"Die italienische Flagge wurde von Giuseppe Garibaldi entworfen.","SetB","false","yes",NA,NA,4,1145,1,768,2,771,2,1012,NA,NA,"","excluded"
"TEHT02","2",27,"male","good","makuwi","2","3","TRating",34,"Die längsten Opern stammen von Gioacchino Rossini.","SetC","false","no",NA,NA,4,1095,2,1050,2,908,NA,1012,NA,NA,"","excluded"
"TEHT02","2",27,"male","good","makuwi","2","3","TRating",35,"Der spanische Ex-Diktator Francisco Franco hatte den Beinamen Conducator.","SetA","false","yes",NA,NA,5,2924,1,477,2,661,1,982,NA,NA,"","excluded"
"TEHT02","2",27,"male","good","makuwi","2","3","TRating",36,"Die Bach-Blütentherapie ist deutlich wirksamer als ein Placebo.","SetA","false","yes",NA,NA,4,882,2,506,2,825,NA,982,NA,NA,"","excluded"
"TEHT02","2",27,"male","good","makuwi","2","3","TRating",37,"Sheryl Crow war früher Hürdenläuferin.","SetA","true","yes",NA,NA,3,1570,2,608,2,888,NA,982,NA,NA,"","excluded"
"TEHT02","2",27,"male","good","makuwi","2","3","TRating",38,"Ein neugeborenes Panda-Baby ist kleiner als eine Maus.","SetA","true","yes",NA,NA,5,2258,2,593,1,824,NA,982,NA,NA,"","excluded"
"TEHT02","2",27,"male","good","makuwi","2","3","TRating",39,"Blaue Augen werden im Alter immer heller.","SetC","true","no",NA,NA,3,1702,2,979,2,1077,NA,982,NA,NA,"","excluded"
"TEHT02","2",27,"male","good","makuwi","2","3","TRating",40,"Im arabischen Raum heißt Homer Simpson Omar Shamshoon.","SetC","true","no",NA,NA,3,1273,2,753,2,622,NA,982,NA,NA,"","excluded"
"TEHT02","2",27,"male","good","makuwi","2","3","TRating",41,"Eine Stubenfliege hat eine maximale Lebensdauer von 70 Tagen.","SetB","true","yes",NA,NA,3,5070,1,326,2,905,3,587,NA,NA,"","excluded"
"TEHT02","2",27,"male","good","makuwi","2","3","TRating",42,"Albert Einstein heiratete seine Cousine.","SetB","true","yes",NA,NA,6,839,1,438,1,495,1,456,NA,NA,"","excluded"
"TEHT02","2",27,"male","good","makuwi","2","3","TRating",43,"Alle Uhren im Film Pulp Fiction stehen auf 4.10 Uhr.","SetC","false","no",NA,NA,3,1290,2,511,2,496,NA,456,NA,NA,"","excluded"
"TEHT02","2",27,"male","good","makuwi","2","3","TRating",44,"Virginia war die erste englische Kolonie in Nordamerika ","SetA","true","yes",NA,NA,4,1990,2,448,1,423,NA,456,NA,NA,"","excluded"
"TEHT02","2",27,"male","good","makuwi","2","3","TRating",45,"Die Wüste Dahna liegt in Saudi-Arabien.","SetC","true","no",NA,NA,4,490,2,365,2,418,NA,456,NA,NA,"","excluded"
"TEHT02","2",27,"male","good","makuwi","2","3","TRating",46,"März und April sind die heißesten Monate auf den Malediven","SetA","true","yes",NA,NA,3,666,2,480,2,715,NA,456,NA,NA,"","excluded"
"TEHT02","2",27,"male","good","makuwi","2","3","TRating",47,"Papst Johannes Paul II. wurde seinerzeit als Mann des Jahres ausgezeichnet.","SetC","false","no",NA,NA,4,889,2,430,2,496,NA,456,NA,NA,"","excluded"
"TEHT02","2",27,"male","good","makuwi","2","3","TRating",48,"Lachse können bis zu 20 Jahre alt werden. ","SetB","false","yes",NA,NA,4,1427,2,434,2,466,NA,456,NA,NA,"","excluded"
"TEHT02","2",27,"male","good","makuwi","2","3","TRating",49,"Moritz Bleibtreu und Heike Makatsch wurden am gleichen Tag geboren.","SetC","true","no",NA,NA,4,2373,2,609,2,773,NA,456,NA,NA,"","excluded"
"TEHT02","2",27,"male","good","makuwi","2","3","TRating",50,"Der rote Naturfarbstoff in den Schalen von Krustentieren heißt Xanthophyll.","SetC","false","no",NA,NA,4,877,2,652,2,652,NA,456,NA,NA,"","excluded"
"TEHT02","2",27,"male","good","makuwi","2","3","TRating",51,"Tuberkulose wird durch Viren übertragen.","SetB","false","yes",NA,NA,1,1014,2,414,2,2257,NA,456,NA,NA,"","excluded"
"TEHT02","2",27,"male","good","makuwi","2","3","TRating",52,"Der Name BenQ steht für Bringing Enjoyment and Quality to Life.","SetA","true","yes",NA,NA,3,858,2,565,2,578,NA,456,NA,NA,"","excluded"
"TEHT02","2",27,"male","good","makuwi","2","3","TRating",53,"Seoul bedeutet auf koreanisch Die Hauptstadt.","SetB","true","yes",NA,NA,5,1323,1,892,2,1326,2,746,NA,NA,"","excluded"
"TEHT02","2",27,"male","good","makuwi","2","3","TRating",54,"Es gibt drei Amerikanische Städte, die Santa Claus heißen.","SetB","true","yes",NA,NA,3,890,2,1024,2,740,NA,746,NA,NA,"","excluded"
"TEHT02","2",27,"male","good","makuwi","2","3","TRating",55,"Schären sind Talgletscher in Skandinavien.","SetB","false","yes",NA,NA,3,611,2,511,2,703,NA,746,NA,NA,"","excluded"
"TEHT02","2",27,"male","good","makuwi","2","3","TRating",56,"Kaiser Konstantin IV wurde auf Befehl seiner eigenen Mutter ermordet.","SetB","true","yes",NA,NA,6,984,1,840,2,865,1,770,NA,NA,"","excluded"
"TEHT02","2",27,"male","good","makuwi","2","3","TRating",57,"Bob Dylan arbeitet nebenberuflich als Winzer.","SetA","true","yes",NA,NA,3,798,2,548,2,584,NA,770,NA,NA,"","excluded"
"TEHT02","2",27,"male","good","makuwi","2","3","TRating",58,"Minerva ist die römische Göttin der Weisheit.","SetA","true","yes",NA,NA,4,826,2,480,2,539,NA,770,NA,NA,"","excluded"
"TEHT02","2",27,"male","good","makuwi","2","3","TRating",59,"Die Torstangen im Eishockey sind rot.","SetC","true","no",NA,NA,4,1323,2,432,2,639,NA,770,NA,NA,"","excluded"
"TEHT02","2",27,"male","good","makuwi","2","3","TRating",60,"Bolivien ist der kleinste Binnenstaat Südamerikas. ","SetA","false","yes",NA,NA,4,1204,2,1015,2,813,NA,770,NA,NA,"","excluded"
"TEHT02","2",27,"male","good","makuwi","2","3","TRating",61,"Das Jojo war ursprünglich eine philippinische Jagdwaffe.","SetA","true","yes",NA,NA,4,642,1,623,2,546,2,864,NA,NA,"","excluded"
"TEHT02","2",27,"male","good","makuwi","2","3","TRating",62,"Die Schwarzerle zählt zu den Buchengewächsen.","SetA","false","yes",NA,NA,3,1290,2,438,2,512,NA,864,NA,NA,"","excluded"
"TEHT02","2",27,"male","good","makuwi","2","3","TRating",63,"Der richtige Name des Krümelmonsters aus der Sesamstraße lautet Sam.","SetC","false","no",NA,NA,3,473,2,481,2,463,NA,864,NA,NA,"","excluded"
"TEHT02","2",27,"male","good","makuwi","2","3","TRating",64,"Der Bereich zwischen den Augenbrauen heißt Glabella.","SetA","true","yes",NA,NA,6,562,1,541,2,413,1,466,NA,NA,"","excluded"
"TEHT02","2",27,"male","good","makuwi","2","3","TRating",65,"Der See Genezareth ist das tiefst gelegenste stehende Gewässer der Erde.","SetC","false","no",NA,NA,4,829,2,733,2,469,NA,466,NA,NA,"","excluded"
"TEHT02","2",27,"male","good","makuwi","2","3","TRating",66,"Borkum ist die größte Ostfriesische Insel.","SetC","true","no",NA,NA,4,740,1,627,2,400,3,581,NA,NA,"","excluded"
"TEHT02","2",27,"male","good","makuwi","2","3","TRating",67,"Ende 2003 waren in Deutschland 15 Atomkraftwerke am Netz. ","SetB","false","yes",NA,NA,6,954,1,366,2,861,1,498,NA,NA,"","excluded"
"TEHT02","2",27,"male","good","makuwi","2","3","TRating",68,"Balsaholz ist die schwerste aller Holzarten.","SetB","false","yes",NA,NA,5,531,2,446,2,703,NA,498,NA,NA,"","excluded"
"TEHT02","2",27,"male","good","makuwi","2","3","TRating",69,"Mitgliedern der Nazi-SS wurde ihre Blutgruppe in die Achselhöhle tätowiert.","SetB","true","yes",NA,NA,4,1273,1,423,2,463,2,762,NA,NA,"","excluded"
"TEHT02","2",27,"male","good","makuwi","2","3","TRating",70,"Der preußische König August I. der Starke wurde auch der Soldatenkönig genannt.","SetC","false","no",NA,NA,5,1111,2,423,2,420,NA,762,NA,NA,"","excluded"
"TEHT02","2",27,"male","good","makuwi","2","3","TRating",71,"Spanholz besteht hauptsächlich aus Birkenholz.","SetC","true","no",NA,NA,6,729,1,435,2,1158,1,628,NA,NA,"","excluded"
"TEHT02","2",27,"male","good","makuwi","2","3","TRating",72,"Ein Schwan trägt ca. 50.000 Federn am Körper.","SetB","false","yes",NA,NA,4,2343,2,394,2,1017,NA,628,NA,NA,"","excluded"
"TEHT02","2",27,"male","good","makuwi","2","3","TRating",73,"Die Norfolkinseln im Pazifik gehören zu Neuseeland. ","SetA","false","yes",NA,NA,4,1407,2,845,2,728,NA,628,NA,NA,"","excluded"
"TEHT02","2",27,"male","good","makuwi","2","3","TRating",74,"Die Hälfte der Bürger Albaniens ist jünger als 30 Jahre.","SetB","false","yes",NA,NA,3,511,2,559,2,420,NA,628,NA,NA,"","excluded"
"TEHT02","2",27,"male","good","makuwi","2","3","TRating",75,"Erdbeeren enthalten mehr Vitamin C als Orangen.","SetB","true","yes",NA,NA,2,581,2,431,2,504,NA,628,NA,NA,"","excluded"
"TEHT02","2",27,"male","good","makuwi","2","3","TRating",76,"Der Pavane ist ein spanisch-italienischer Volkstanz aus dem 16. Jahrhundert.","SetA","true","yes",NA,NA,4,755,2,521,2,615,NA,628,NA,NA,"","excluded"
"TEHT02","2",27,"male","good","makuwi","2","3","TRating",77,"Das Gehäuse des ersten Apple Computers bestand aus Aluminium.","SetC","false","no",NA,NA,4,512,1,651,2,917,3,916,NA,NA,"","excluded"
"TEHT02","2",27,"male","good","makuwi","2","3","TRating",78,"Laut WHO sind Krebserkrankungen die häufigste Todesursache.  ","SetA","false","yes",NA,NA,4,860,1,540,2,434,2,361,NA,NA,"","excluded"
"TEHT02","2",27,"male","good","makuwi","2","3","TRating",79,"Die Band Oasis hat sich nach einem Fitness-Studio benannt.","SetC","true","no",NA,NA,4,3112,2,357,2,586,NA,361,NA,NA,"","excluded"
"TEHT02","2",27,"male","good","makuwi","2","3","TRating",80,"Eine der ersten deutschen Internetsuchmaschinen hieß Alcazar.","SetA","false","yes",NA,NA,4,402,2,568,2,413,NA,361,NA,NA,"","excluded"
"TEHT02","2",27,"male","good","makuwi","2","3","TRating",81,"Die Schweden führten als erste Kartons anstelle von Milchflaschen ein.","SetB","true","yes",NA,NA,3,638,2,361,2,590,NA,361,NA,NA,"","excluded"
"TEHT02","2",27,"male","good","makuwi","2","3","TRating",82,"Karl Marx wurde in London begraben.","SetC","true","no",NA,NA,2,575,2,414,2,786,NA,361,NA,NA,"","excluded"
"TEHT02","2",27,"male","good","makuwi","2","3","TRating",83,"Das Schnabeltier gehört nicht zur Gattung der Säugetiere.","SetA","false","yes",NA,NA,3,1161,2,396,2,484,NA,361,NA,NA,"","excluded"
"TEHT02","2",27,"male","good","makuwi","2","3","TRating",84,"Ein Dingo kann länger ohne Wasser leben als ein Kamel.","SetA","false","yes",NA,NA,2,2464,1,436,2,901,2,341,NA,NA,"","excluded"
"TEHT02","2",27,"male","good","makuwi","2","3","TRating",85,"In Uganda ist die Amtssprache Englisch.","SetB","true","yes",NA,NA,6,708,2,372,1,1386,NA,341,NA,NA,"","excluded"
"TEHT02","2",27,"male","good","makuwi","2","3","TRating",86,"Jimmy Carter war der einzige geschiedene US-Präsident.","SetC","false","no",NA,NA,3,3578,2,388,2,1352,NA,341,NA,NA,"","excluded"
"TEHT02","2",27,"male","good","makuwi","2","3","TRating",87,"Tiger haben nicht nur gestreiftes Fell, sondern auch gestreifte Haut.","SetB","true","yes",NA,NA,4,553,2,493,2,1268,NA,341,NA,NA,"","excluded"
"TEHT02","2",27,"male","good","makuwi","2","3","TRating",88,"Beim Rugby gibt es 30 Spieler.","SetC","true","no",NA,NA,4,2005,2,513,2,757,NA,341,NA,NA,"","excluded"
"TEHT02","2",27,"male","good","makuwi","2","3","Questions",89,"","",NA,NA,NA,NA,NA,NA,NA,NA,NA,NA,NA,NA,"informed","no","","excluded"
"TEHT02","2",27,"male","good","makuwi","2","3","Questions",90,"","",NA,NA,NA,NA,NA,NA,NA,NA,NA,NA,NA,NA,"hypothesis","no","","excluded"
"TEHT02","3",21,"female","native","soziologie","1","1","Buffer",22,"Der Airbus A380 kann maximal 777 Passagiere transportieren. ","Buffer","false",NA,6,9971,NA,NA,NA,NA,NA,NA,NA,NA,NA,NA,NA,NA
"TEHT02","3",21,"female","native","soziologie","1","1","Buffer",23,"Die Aktivität einer radioaktiven Substanz wird in Sievert gemessen.","Buffer","false",NA,4,3892,NA,NA,NA,NA,NA,NA,NA,NA,NA,NA,NA,NA
"TEHT02","3",21,"female","native","soziologie","1","1","Buffer",24,"Der Philosoph Platon war einer der besten Speerwerfer seiner Zeit.","Buffer","false",NA,3,2014,NA,NA,NA,NA,NA,NA,NA,NA,NA,NA,NA,NA
"TEHT02","3",21,"female","native","soziologie","1","1","Buffer",25,"Nur ca. zwei Prozent der Weltbevölkerung sind von Natur aus blond.","Buffer","true",NA,2,3855,NA,NA,NA,NA,NA,NA,NA,NA,NA,NA,NA,NA
"TEHT02","3",21,"female","native","soziologie","1","1","Buffer",26,"Der hundertjährige Krieg dauerte in Wahrheit nur 93 Jahre.","Buffer","false",NA,3,645,NA,NA,NA,NA,NA,NA,NA,NA,NA,NA,NA,NA
"TEHT02","3",21,"female","native","soziologie","1","1","Buffer",27,"Der Film Ein unmoralische Angebot bekam die goldene Himbeere verliehen.","Buffer","true",NA,5,3174,NA,NA,NA,NA,NA,NA,NA,NA,NA,NA,NA,NA
"TEHT02","3",21,"female","native","soziologie","1","1","Buffer",28,"Pamela Anderson ist kanadische Staatsbürgerin.","Buffer","true",NA,5,1255,NA,NA,NA,NA,NA,NA,NA,NA,NA,NA,NA,NA
"TEHT02","3",21,"female","native","soziologie","1","1","Buffer",29,"Auf jedem Kontinent gibt es eine Stadt die Rom heißt.","Buffer","true",NA,1,1184,NA,NA,NA,NA,NA,NA,NA,NA,NA,NA,NA,NA
"TEHT02","3",21,"female","native","soziologie","1","1","Buffer",30,"Ein Menschenfloh kann 20cm hoch springen.","Buffer","true",NA,2,755,NA,NA,NA,NA,NA,NA,NA,NA,NA,NA,NA,NA
"TEHT02","3",21,"female","native","soziologie","1","1","Buffer",31,"Im Arabischen gibt es etwa 500 Worte für Kamel.","Buffer","false",NA,4,5176,NA,NA,NA,NA,NA,NA,NA,NA,NA,NA,NA,NA
"TEHT02","3",21,"female","native","soziologie","1","1","Buffer",32,"Morpheus ist der griechische Gott der Träume.","Buffer","true",NA,3,1645,NA,NA,NA,NA,NA,NA,NA,NA,NA,NA,NA,NA
"TEHT02","3",21,"female","native","soziologie","1","1","Buffer",33,"Ein menschliches Haar wächst jährlich ca. 85 mm.","Buffer","true",NA,4,2262,NA,NA,NA,NA,NA,NA,NA,NA,NA,NA,NA,NA
"TEHT02","3",21,"female","native","soziologie","1","1","Buffer",34,"Bei Nahrungsmangel kann ein Spulwurm bis zu 95% seines eigenen Körpers verzehren.","Buffer","false",NA,2,820,NA,NA,NA,NA,NA,NA,NA,NA,NA,NA,NA,NA
"TEHT02","3",21,"female","native","soziologie","1","1","Buffer",35,"Der weiße Hai hat keine natürlichen Feinde.","Buffer","true",NA,2,831,NA,NA,NA,NA,NA,NA,NA,NA,NA,NA,NA,NA
"TEHT02","3",21,"female","native","soziologie","1","1","CRating",36,"Der Kilt stammt ursprünglich aus Irland, nicht aus Schottland.","SetA","false","yes",3,1472,NA,NA,NA,NA,NA,NA,NA,NA,NA,NA,NA,NA
"TEHT02","3",21,"female","native","soziologie","1","1","CRating",37,"Der spanische Ex-Diktator Francisco Franco hatte den Beinamen Conducator.","SetA","false","yes",3,1280,NA,NA,NA,NA,NA,NA,NA,NA,NA,NA,NA,NA
"TEHT02","3",21,"female","native","soziologie","1","1","CRating",38,"Der Pavane ist ein spanisch-italienischer Volkstanz aus dem 16. Jahrhundert.","SetA","true","yes",3,1391,NA,NA,NA,NA,NA,NA,NA,NA,NA,NA,NA,NA
"TEHT02","3",21,"female","native","soziologie","1","1","CRating",39,"Die längsten Opern stammen von Gioacchino Rossini.","SetC","false","yes",5,3802,NA,NA,NA,NA,NA,NA,NA,NA,NA,NA,NA,NA
"TEHT02","3",21,"female","native","soziologie","1","1","CRating",40,"Der heißeste Ort im jährlichen Mittel ist Duri in Somalia mit 34,4° Celsius.","SetC","false","yes",1,1721,NA,NA,NA,NA,NA,NA,NA,NA,NA,NA,NA,NA
"TEHT02","3",21,"female","native","soziologie","1","1","CRating",41,"Nauru ist die kleinste souveräne Republik der Erde.","SetC","true","yes",6,1438,NA,NA,NA,NA,NA,NA,NA,NA,NA,NA,NA,NA
"TEHT02","3",21,"female","native","soziologie","1","1","CRating",42,"In Griechenland gilt  nicht Freitag der 13., sondern Mittwoch der 13. als Unglückstag.","SetC","false","yes",5,1743,NA,NA,NA,NA,NA,NA,NA,NA,NA,NA,NA,NA
"TEHT02","3",21,"female","native","soziologie","1","1","CRating",43,"Manama ist die Hauptstadt Bahrains.","SetA","true","yes",1,986,NA,NA,NA,NA,NA,NA,NA,NA,NA,NA,NA,NA
"TEHT02","3",21,"female","native","soziologie","1","1","CRating",44,"Die Wüste Dahna liegt in Saudi-Arabien.","SetC","true","yes",1,894,NA,NA,NA,NA,NA,NA,NA,NA,NA,NA,NA,NA
"TEHT02","3",21,"female","native","soziologie","1","1","CRating",45,"Das Domino-Spiel besteht aus 28 Steinen.","SetA","true","yes",6,941,NA,NA,NA,NA,NA,NA,NA,NA,NA,NA,NA,NA
"TEHT02","3",21,"female","native","soziologie","1","1","CRating",46,"Karl Marx wurde in London begraben.","SetC","true","yes",3,922,NA,NA,NA,NA,NA,NA,NA,NA,NA,NA,NA,NA
"TEHT02","3",21,"female","native","soziologie","1","1","CRating",47,"Das Gehäuse des ersten Apple Computers bestand aus Aluminium.","SetC","false","yes",4,1280,NA,NA,NA,NA,NA,NA,NA,NA,NA,NA,NA,NA
"TEHT02","3",21,"female","native","soziologie","1","1","CRating",48,"Das Schnabeltier gehört nicht zur Gattung der Säugetiere.","SetA","false","yes",2,856,NA,NA,NA,NA,NA,NA,NA,NA,NA,NA,NA,NA
"TEHT02","3",21,"female","native","soziologie","1","1","CRating",49,"Jassir Arafat kämpfte im Sueskrieg für die ägyptische Armee.","SetC","true","yes",3,769,NA,NA,NA,NA,NA,NA,NA,NA,NA,NA,NA,NA
"TEHT02","3",21,"female","native","soziologie","1","1","CRating",50,"Die Erde wird in 360 Längengrade unterteilt.","SetC","true","yes",1,725,NA,NA,NA,NA,NA,NA,NA,NA,NA,NA,NA,NA
"TEHT02","3",21,"female","native","soziologie","1","1","CRating",51,"Sheryl Crow war früher Hürdenläuferin.","SetA","true","yes",5,868,NA,NA,NA,NA,NA,NA,NA,NA,NA,NA,NA,NA
"TEHT02","3",21,"female","native","soziologie","1","1","CRating",52,"Ebenso wie der Fingerabdruck ist auch der Zungenabdruck eines Menschen einzigartig.","SetC","true","yes",2,1268,NA,NA,NA,NA,NA,NA,NA,NA,NA,NA,NA,NA
"TEHT02","3",21,"female","native","soziologie","1","1","CRating",53,"Moritz Bleibtreu und Heike Makatsch wurden am gleichen Tag geboren.","SetC","true","yes",5,2844,NA,NA,NA,NA,NA,NA,NA,NA,NA,NA,NA,NA
"TEHT02","3",21,"female","native","soziologie","1","1","CRating",54,"Ein Dingo kann länger ohne Wasser leben als ein Kamel.","SetA","false","yes",2,627,NA,NA,NA,NA,NA,NA,NA,NA,NA,NA,NA,NA
"TEHT02","3",21,"female","native","soziologie","1","1","CRating",55,"Die Torstangen im Eishockey sind rot.","SetC","true","yes",5,1445,NA,NA,NA,NA,NA,NA,NA,NA,NA,NA,NA,NA
"TEHT02","3",21,"female","native","soziologie","1","1","CRating",56,"Der See Genezareth ist das tiefst gelegenste stehende Gewässer der Erde.","SetC","false","yes",1,982,NA,NA,NA,NA,NA,NA,NA,NA,NA,NA,NA,NA
"TEHT02","3",21,"female","native","soziologie","1","1","CRating",57,"Der Bereich zwischen den Augenbrauen heißt Glabella.","SetA","true","yes",2,737,NA,NA,NA,NA,NA,NA,NA,NA,NA,NA,NA,NA
"TEHT02","3",21,"female","native","soziologie","1","1","CRating",58,"Bolivien ist der kleinste Binnenstaat Südamerikas. ","SetA","false","yes",1,688,NA,NA,NA,NA,NA,NA,NA,NA,NA,NA,NA,NA
"TEHT02","3",21,"female","native","soziologie","1","1","CRating",59,"März und April sind die heißesten Monate auf den Malediven","SetA","true","yes",1,1070,NA,NA,NA,NA,NA,NA,NA,NA,NA,NA,NA,NA
"TEHT02","3",21,"female","native","soziologie","1","1","CRating",60,"Freddie Mercurys richtiger Name lautete Farrokh Bulsara.","SetA","true","yes",5,918,NA,NA,NA,NA,NA,NA,NA,NA,NA,NA,NA,NA
"TEHT02","3",21,"female","native","soziologie","1","1","CRating",61,"Das älteste noch existierende Parlament der Welt ist das „Sejm“ in Polen.","SetC","false","yes",3,645,NA,NA,NA,NA,NA,NA,NA,NA,NA,NA,NA,NA
"TEHT02","3",21,"female","native","soziologie","1","1","CRating",62,"Das Jojo war ursprünglich eine philippinische Jagdwaffe.","SetA","true","yes",3,590,NA,NA,NA,NA,NA,NA,NA,NA,NA,NA,NA,NA
"TEHT02","3",21,"female","native","soziologie","1","1","CRating",63,"Bob Dylan arbeitet nebenberuflich als Winzer.","SetA","true","yes",5,1091,NA,NA,NA,NA,NA,NA,NA,NA,NA,NA,NA,NA
"TEHT02","3",21,"female","native","soziologie","1","1","CRating",64,"Laut WHO sind Krebserkrankungen die häufigste Todesursache.  ","SetA","false","yes",4,921,NA,NA,NA,NA,NA,NA,NA,NA,NA,NA,NA,NA
"TEHT02","3",21,"female","native","soziologie","1","1","CRating",65,"Die Band Oasis hat sich nach einem Fitness-Studio benannt.","SetC","true","yes",5,1191,NA,NA,NA,NA,NA,NA,NA,NA,NA,NA,NA,NA
"TEHT02","3",21,"female","native","soziologie","1","1","CRating",66,"Eine der ersten deutschen Internetsuchmaschinen hieß Alcazar.","SetA","false","yes",3,1715,NA,NA,NA,NA,NA,NA,NA,NA,NA,NA,NA,NA
"TEHT02","3",21,"female","native","soziologie","1","1","CRating",67,"Minerva ist die römische Göttin der Weisheit.","SetA","true","yes",3,713,NA,NA,NA,NA,NA,NA,NA,NA,NA,NA,NA,NA
"TEHT02","3",21,"female","native","soziologie","1","1","CRating",68,"Ein neugeborenes Panda-Baby ist kleiner als eine Maus.","SetA","true","yes",2,703,NA,NA,NA,NA,NA,NA,NA,NA,NA,NA,NA,NA
"TEHT02","3",21,"female","native","soziologie","1","1","CRating",69,"Die Schwarzerle zählt zu den Buchengewächsen.","SetA","false","yes",2,902,NA,NA,NA,NA,NA,NA,NA,NA,NA,NA,NA,NA
"TEHT02","3",21,"female","native","soziologie","1","1","CRating",70,"Jean-Jaques Rousseau war alleinerziehender Vater.","SetC","false","yes",5,1189,NA,NA,NA,NA,NA,NA,NA,NA,NA,NA,NA,NA
"TEHT02","3",21,"female","native","soziologie","1","1","CRating",71,"Spanholz besteht hauptsächlich aus Birkenholz.","SetC","true","yes",2,2064,NA,NA,NA,NA,NA,NA,NA,NA,NA,NA,NA,NA
"TEHT02","3",21,"female","native","soziologie","1","1","CRating",72,"Kleinohrigel haben keine Stacheln.","SetC","false","yes",2,775,NA,NA,NA,NA,NA,NA,NA,NA,NA,NA,NA,NA
"TEHT02","3",21,"female","native","soziologie","1","1","CRating",73,"Der preußische König August I. der Starke wurde auch der Soldatenkönig genannt.","SetC","false","yes",3,3786,NA,NA,NA,NA,NA,NA,NA,NA,NA,NA,NA,NA
"TEHT02","3",21,"female","native","soziologie","1","1","CRating",74,"Der Name BenQ steht für Bringing Enjoyment and Quality to Life.","SetA","true","yes",4,1812,NA,NA,NA,NA,NA,NA,NA,NA,NA,NA,NA,NA
"TEHT02","3",21,"female","native","soziologie","1","1","CRating",75,"Papst Johannes Paul II. wurde seinerzeit als Mann des Jahres ausgezeichnet.","SetC","false","yes",3,1861,NA,NA,NA,NA,NA,NA,NA,NA,NA,NA,NA,NA
"TEHT02","3",21,"female","native","soziologie","1","1","CRating",76,"Der Prophet Mohammed arbeitete vor seiner religiösen Berufung als Arzt. ","SetA","false","yes",3,1411,NA,NA,NA,NA,NA,NA,NA,NA,NA,NA,NA,NA
"TEHT02","3",21,"female","native","soziologie","1","1","CRating",77,"Virginia war die erste englische Kolonie in Nordamerika ","SetA","true","yes",3,670,NA,NA,NA,NA,NA,NA,NA,NA,NA,NA,NA,NA
"TEHT02","3",21,"female","native","soziologie","1","1","CRating",78,"Die Insel Ösel gehört zu Dänemark.","SetA","false","yes",1,925,NA,NA,NA,NA,NA,NA,NA,NA,NA,NA,NA,NA
"TEHT02","3",21,"female","native","soziologie","1","1","CRating",79,"Borkum ist die größte Ostfriesische Insel.","SetC","true","yes",1,967,NA,NA,NA,NA,NA,NA,NA,NA,NA,NA,NA,NA
"TEHT02","3",21,"female","native","soziologie","1","1","CRating",80,"Der rote Naturfarbstoff in den Schalen von Krustentieren heißt Xanthophyll.","SetC","false","yes",2,971,NA,NA,NA,NA,NA,NA,NA,NA,NA,NA,NA,NA
"TEHT02","3",21,"female","native","soziologie","1","1","CRating",81,"Blaue Augen werden im Alter immer heller.","SetC","true","yes",2,735,NA,NA,NA,NA,NA,NA,NA,NA,NA,NA,NA,NA
"TEHT02","3",21,"female","native","soziologie","1","1","CRating",82,"Die Bach-Blütentherapie ist deutlich wirksamer als ein Placebo.","SetA","false","yes",4,1285,NA,NA,NA,NA,NA,NA,NA,NA,NA,NA,NA,NA
"TEHT02","3",21,"female","native","soziologie","1","1","CRating",83,"Beim Rugby gibt es 30 Spieler.","SetC","true","yes",5,1044,NA,NA,NA,NA,NA,NA,NA,NA,NA,NA,NA,NA
"TEHT02","3",21,"female","native","soziologie","1","1","CRating",84,"Der richtige Name des Krümelmonsters aus der Sesamstraße lautet Sam.","SetC","false","yes",5,1078,NA,NA,NA,NA,NA,NA,NA,NA,NA,NA,NA,NA
"TEHT02","3",21,"female","native","soziologie","1","1","CRating",85,"Der erste Bordcomputer für Autos wurde in Amerika entwickelt. ","SetA","false","yes",4,757,NA,NA,NA,NA,NA,NA,NA,NA,NA,NA,NA,NA
"TEHT02","3",21,"female","native","soziologie","1","1","CRating",86,"Der Durchmesser des Wurfkreises beim Diskuswerfen beträgt 2,5 m","SetA","true","yes",5,626,NA,NA,NA,NA,NA,NA,NA,NA,NA,NA,NA,NA
"TEHT02","3",21,"female","native","soziologie","1","1","CRating",87,"Das indische Tadsch Mahal wurde aus Basalt-Stein erbaut.","SetA","false","yes",3,988,NA,NA,NA,NA,NA,NA,NA,NA,NA,NA,NA,NA
"TEHT02","3",21,"female","native","soziologie","1","1","CRating",88,"Alle Uhren im Film Pulp Fiction stehen auf 4.10 Uhr.","SetC","false","yes",5,944,NA,NA,NA,NA,NA,NA,NA,NA,NA,NA,NA,NA
"TEHT02","3",21,"female","native","soziologie","1","1","CRating",89,"Die Norfolkinseln im Pazifik gehören zu Neuseeland. ","SetA","false","yes",1,821,NA,NA,NA,NA,NA,NA,NA,NA,NA,NA,NA,NA
"TEHT02","3",21,"female","native","soziologie","1","1","CRating",90,"Jimmy Carter war der einzige geschiedene US-Präsident.","SetC","false","yes",5,1423,NA,NA,NA,NA,NA,NA,NA,NA,NA,NA,NA,NA
"TEHT02","3",21,"female","native","soziologie","1","1","CRating",91,"Im arabischen Raum heißt Homer Simpson Omar Shamshoon.","SetC","true","yes",5,920,NA,NA,NA,NA,NA,NA,NA,NA,NA,NA,NA,NA
"TEHT02","3",21,"female","native","soziologie","1","1","Buffer",92,"Die Luftröhre eines Menschen ist durchschnittlich 24 cm lang. ","Buffer","false",NA,2,1022,NA,NA,NA,NA,NA,NA,NA,NA,NA,NA,NA,NA
"TEHT02","3",21,"female","native","soziologie","1","1","Buffer",93,"Das erste Taschenbuch der Geschichte war Goethes Faust.","Buffer","true",NA,3,624,NA,NA,NA,NA,NA,NA,NA,NA,NA,NA,NA,NA
"TEHT02","3",21,"female","native","soziologie","1","1","Buffer",94,"Jürgen Klinsmann erhielt bei Bayern München den Spitznamen Flipper.","Buffer","true",NA,5,779,NA,NA,NA,NA,NA,NA,NA,NA,NA,NA,NA,NA
"TEHT02","3",21,"female","native","soziologie","1","1","Buffer",95,"Ein Polospiel ist in Zeitabschnitte von 7,5 Minuten unterteilt, die man Chukkas nennt.","Buffer","true",NA,5,1167,NA,NA,NA,NA,NA,NA,NA,NA,NA,NA,NA,NA
"TEHT02","3",21,"female","native","soziologie","1","1","Buffer",96,"Die Wüste Gobi ist eine Felswüste.","Buffer","false",NA,1,932,NA,NA,NA,NA,NA,NA,NA,NA,NA,NA,NA,NA
"TEHT02","3",21,"female","native","soziologie","1","1","Buffer",97,"Der griechische Gott Apollon ist der Schutzherr der Küste.","Buffer","true",NA,3,1112,NA,NA,NA,NA,NA,NA,NA,NA,NA,NA,NA,NA
"TEHT02","3",21,"female","native","soziologie","1","1","Buffer",98,"Das Zwerghörnchen ist das kleinste Säugetier Europas.","Buffer","false",NA,2,887,NA,NA,NA,NA,NA,NA,NA,NA,NA,NA,NA,NA
"TEHT02","3",21,"female","native","soziologie","1","1","Buffer",99,"Ultraschall sind Wellen und Schwingungen unterhalb von 16 Hertz.","Buffer","false",NA,4,1542,NA,NA,NA,NA,NA,NA,NA,NA,NA,NA,NA,NA
"TEHT02","3",21,"female","native","soziologie","1","1","Buffer",100,"In Deutschland leiden ca. 1 Millionen Menschen an Alzheimer.","Buffer","true",NA,4,819,NA,NA,NA,NA,NA,NA,NA,NA,NA,NA,NA,NA
"TEHT02","3",21,"female","native","soziologie","1","1","Buffer",101,"Spanien schaffte als letztes aller EU-Länder 1996 die Todesstrafe ab.","Buffer","false",NA,3,702,NA,NA,NA,NA,NA,NA,NA,NA,NA,NA,NA,NA
"TEHT02","3",21,"female","native","soziologie","1","1","Buffer",102,"Das Capybara ist das größte aller Beuteltiere.","Buffer","false",NA,2,717,NA,NA,NA,NA,NA,NA,NA,NA,NA,NA,NA,NA
"TEHT02","3",21,"female","native","soziologie","1","1","Buffer",103,"Die Gebrüder Montgolfier entwarfen den ersten Fallschirm.","Buffer","false",NA,3,981,NA,NA,NA,NA,NA,NA,NA,NA,NA,NA,NA,NA
"TEHT02","3",21,"female","native","soziologie","1","1","Buffer",104,"Bei Männern heißt übermäßiger Geschlechtstrieb nicht Nymphomanie sondern Satyriasis.","Buffer","true",NA,2,800,NA,NA,NA,NA,NA,NA,NA,NA,NA,NA,NA,NA
"TEHT02","3",21,"female","native","soziologie","1","1","Buffer",105,"Der Mond passt vierzigmal in die Erdkugel.","Buffer","false",NA,4,651,NA,NA,NA,NA,NA,NA,NA,NA,NA,NA,NA,NA
"TEHT02","3",21,"female","native","soziologie","2","1","Practice",1,"Ein Polospiel ist in Zeitabschnitte von 7,5 Minuten unterteilt, die man Chukkas nennt.","Buffer","true","yes",NA,NA,4,2551,2,2037,2,3048,NA,0,NA,NA,"",NA
"TEHT02","3",21,"female","native","soziologie","2","1","Practice",2,"Der Philosoph Platon war einer der besten Speerwerfer seiner Zeit.","Buffer","false","yes",NA,NA,2,1286,2,839,2,1588,NA,0,NA,NA,"",NA
"TEHT02","3",21,"female","native","soziologie","2","1","Practice",3,"Das Zwerghörnchen ist das kleinste Säugetier Europas.","Buffer","false","yes",NA,NA,5,1192,2,647,2,1130,NA,0,NA,NA,"",NA
"TEHT02","3",21,"female","native","soziologie","2","1","Practice",4,"Die Luftpumpe ist eine französische Erfindung.","SetD","false","no",NA,NA,4,2297,2,936,2,1349,NA,0,NA,NA,"",NA
"TEHT02","3",21,"female","native","soziologie","2","1","TRating",5,"Das hawaiianische Alphabet besteht aus nur 12 Buchstaben.","SetB","true","no",NA,NA,3,2479,2,870,2,1787,NA,0,NA,NA,"",NA
"TEHT02","3",21,"female","native","soziologie","2","1","TRating",6,"Ein Dingo kann länger ohne Wasser leben als ein Kamel.","SetA","false","yes",NA,NA,1,1935,2,683,2,850,NA,0,NA,NA,"",NA
"TEHT02","3",21,"female","native","soziologie","2","1","TRating",7,"Erdbeeren enthalten mehr Vitamin C als Orangen.","SetB","true","no",NA,NA,1,1067,2,763,2,3562,NA,0,NA,NA,"",NA
"TEHT02","3",21,"female","native","soziologie","2","1","TRating",8,"Spanholz besteht hauptsächlich aus Birkenholz.","SetC","true","yes",NA,NA,2,1265,2,675,2,743,NA,0,NA,NA,"",NA
"TEHT02","3",21,"female","native","soziologie","2","1","TRating",9,"Der erste Bordcomputer für Autos wurde in Amerika entwickelt. ","SetA","false","yes",NA,NA,5,909,2,871,2,1314,NA,0,NA,NA,"",NA
"TEHT02","3",21,"female","native","soziologie","2","1","TRating",10,"Mitgliedern der Nazi-SS wurde ihre Blutgruppe in die Achselhöhle tätowiert.","SetB","true","no",NA,NA,1,984,2,591,2,786,NA,0,NA,NA,"",NA
"TEHT02","3",21,"female","native","soziologie","2","1","TRating",11,"Der Pavane ist ein spanisch-italienischer Volkstanz aus dem 16. Jahrhundert.","SetA","true","yes",NA,NA,4,1748,2,678,2,1046,NA,0,NA,NA,"",NA
"TEHT02","3",21,"female","native","soziologie","2","1","TRating",12,"Die Tanne ist der Nadelbaum mit den längsten Nadeln.","SetB","false","no",NA,NA,4,712,2,782,1,2197,NA,0,NA,NA,"",NA
"TEHT02","3",21,"female","native","soziologie","2","1","TRating",13,"Moritz Bleibtreu und Heike Makatsch wurden am gleichen Tag geboren.","SetC","true","yes",NA,NA,4,826,1,1222,2,2739,1,2510,NA,NA,"",NA
"TEHT02","3",21,"female","native","soziologie","2","1","TRating",14,"Der See Genezareth ist das tiefst gelegenste stehende Gewässer der Erde.","SetC","false","yes",NA,NA,4,691,2,777,2,657,NA,2510,NA,NA,"",NA
"TEHT02","3",21,"female","native","soziologie","2","1","TRating",15,"Alexander Graham Bell erfand das Tragflügelboot.","SetB","true","no",NA,NA,2,9086,2,641,2,1449,NA,2510,NA,NA,"",NA
"TEHT02","3",21,"female","native","soziologie","2","1","TRating",16,"Der heißeste Ort im jährlichen Mittel ist Duri in Somalia mit 34,4° Celsius.","SetC","false","yes",NA,NA,4,1068,1,856,2,1315,2,1727,NA,NA,"",NA
"TEHT02","3",21,"female","native","soziologie","2","1","TRating",17,"Die Insel Ösel gehört zu Dänemark.","SetA","false","yes",NA,NA,5,941,1,662,2,1137,2,679,NA,NA,"",NA
"TEHT02","3",21,"female","native","soziologie","2","1","TRating",18,"Schären sind Talgletscher in Skandinavien.","SetB","false","no",NA,NA,4,1159,2,574,2,2506,NA,679,NA,NA,"",NA
"TEHT02","3",21,"female","native","soziologie","2","1","TRating",19,"Die Band Oasis hat sich nach einem Fitness-Studio benannt.","SetC","true","yes",NA,NA,3,1203,2,1037,2,1812,NA,679,NA,NA,"",NA
"TEHT02","3",21,"female","native","soziologie","2","1","TRating",20,"Der Prophet Mohammed arbeitete vor seiner religiösen Berufung als Arzt. ","SetA","false","yes",NA,NA,4,799,1,794,2,2754,2,1893,NA,NA,"",NA
"TEHT02","3",21,"female","native","soziologie","2","1","TRating",21,"Jean-Jaques Rousseau war alleinerziehender Vater.","SetC","false","yes",NA,NA,3,1804,2,718,2,837,NA,1893,NA,NA,"",NA
"TEHT02","3",21,"female","native","soziologie","2","1","TRating",22,"Der richtige Name des Krümelmonsters aus der Sesamstraße lautet Sam.","SetC","false","yes",NA,NA,2,2813,2,681,2,732,NA,1893,NA,NA,"",NA
"TEHT02","3",21,"female","native","soziologie","2","1","TRating",23,"Kendo ist eine aus Japan stammende waffenlose Kampfsportart.","SetB","false","no",NA,NA,5,723,2,943,2,1047,NA,1893,NA,NA,"",NA
"TEHT02","3",21,"female","native","soziologie","2","1","TRating",24,"Papst Johannes Paul II. wurde seinerzeit als Mann des Jahres ausgezeichnet.","SetC","false","yes",NA,NA,4,797,2,753,2,632,NA,1893,NA,NA,"",NA
"TEHT02","3",21,"female","native","soziologie","2","1","TRating",25,"Albert Einstein heiratete seine Cousine.","SetB","true","no",NA,NA,2,959,2,690,2,858,NA,1893,NA,NA,"",NA
"TEHT02","3",21,"female","native","soziologie","2","1","TRating",26,"Die Wüste Dahna liegt in Saudi-Arabien.","SetC","true","yes",NA,NA,4,795,2,671,2,1005,NA,1893,NA,NA,"",NA
"TEHT02","3",21,"female","native","soziologie","2","1","TRating",27,"Im arabischen Raum heißt Homer Simpson Omar Shamshoon.","SetC","true","yes",NA,NA,4,888,1,552,2,1014,3,1245,NA,NA,"",NA
"TEHT02","3",21,"female","native","soziologie","2","1","TRating",28,"Eine der ersten deutschen Internetsuchmaschinen hieß Alcazar.","SetA","false","yes",NA,NA,1,1446,1,559,2,621,1,3948,NA,NA,"",NA
"TEHT02","3",21,"female","native","soziologie","2","1","TRating",29,"Die in Südamerika beheimatete Kammspinne zählt zu den drei giftigsten Spinnenarten der Welt.","SetB","true","no",NA,NA,2,1285,2,737,2,610,NA,3948,NA,NA,"",NA
"TEHT02","3",21,"female","native","soziologie","2","1","TRating",30,"Das Schnabeltier gehört nicht zur Gattung der Säugetiere.","SetA","false","yes",NA,NA,6,1000,2,602,2,1242,NA,3948,NA,NA,"",NA
"TEHT02","3",21,"female","native","soziologie","2","1","TRating",31,"Die Hälfte der Bürger Albaniens ist jünger als 30 Jahre.","SetB","false","no",NA,NA,2,630,2,365,2,599,NA,3948,NA,NA,"",NA
"TEHT02","3",21,"female","native","soziologie","2","1","TRating",32,"Sheryl Crow war früher Hürdenläuferin.","SetA","true","yes",NA,NA,2,691,2,704,2,1072,NA,3948,NA,NA,"",NA
"TEHT02","3",21,"female","native","soziologie","2","1","TRating",33,"Ebenso wie der Fingerabdruck ist auch der Zungenabdruck eines Menschen einzigartig.","SetC","true","yes",NA,NA,1,2776,2,720,2,964,NA,3948,NA,NA,"",NA
"TEHT02","3",21,"female","native","soziologie","2","1","TRating",34,"In Bolivien liegt der höchstgelegene Regierungssitz der Welt.","SetB","true","no",NA,NA,4,623,2,639,2,688,NA,3948,NA,NA,"",NA
"TEHT02","3",21,"female","native","soziologie","2","1","TRating",35,"In Griechenland gilt  nicht Freitag der 13., sondern Mittwoch der 13. als Unglückstag.","SetC","false","yes",NA,NA,4,1026,2,624,2,514,NA,3948,NA,NA,"",NA
"TEHT02","3",21,"female","native","soziologie","2","1","TRating",36,"Ein Schwan trägt ca. 50.000 Federn am Körper.","SetB","false","no",NA,NA,4,524,2,779,2,617,NA,3948,NA,NA,"",NA
"TEHT02","3",21,"female","native","soziologie","2","1","TRating",37,"Kaiser Konstantin IV wurde auf Befehl seiner eigenen Mutter ermordet.","SetB","true","no",NA,NA,2,936,2,595,2,475,NA,3948,NA,NA,"",NA
"TEHT02","3",21,"female","native","soziologie","2","1","TRating",38,"Beim Rugby gibt es 30 Spieler.","SetC","true","yes",NA,NA,4,600,2,640,2,522,NA,3948,NA,NA,"",NA
"TEHT02","3",21,"female","native","soziologie","2","1","TRating",39,"Jimmy Carter war der einzige geschiedene US-Präsident.","SetC","false","yes",NA,NA,4,1859,2,570,2,1009,NA,3948,NA,NA,"",NA
"TEHT02","3",21,"female","native","soziologie","2","1","TRating",40,"Alle Uhren im Film Pulp Fiction stehen auf 4.10 Uhr.","SetC","false","yes",NA,NA,3,832,2,683,2,593,NA,3948,NA,NA,"",NA
"TEHT02","3",21,"female","native","soziologie","2","1","TRating",41,"Der Bereich zwischen den Augenbrauen heißt Glabella.","SetA","true","yes",NA,NA,2,1564,1,696,2,1815,1,1190,NA,NA,"",NA
"TEHT02","3",21,"female","native","soziologie","2","1","TRating",42,"Die Norfolkinseln im Pazifik gehören zu Neuseeland. ","SetA","false","yes",NA,NA,4,890,2,981,2,736,NA,1190,NA,NA,"",NA
"TEHT02","3",21,"female","native","soziologie","2","1","TRating",43,"Eine Stubenfliege hat eine maximale Lebensdauer von 70 Tagen.","SetB","true","no",NA,NA,4,658,2,672,2,505,NA,1190,NA,NA,"",NA
"TEHT02","3",21,"female","native","soziologie","2","1","TRating",44,"Lachse können bis zu 20 Jahre alt werden. ","SetB","false","no",NA,NA,4,793,2,626,2,1300,NA,1190,NA,NA,"",NA
"TEHT02","3",21,"female","native","soziologie","2","1","TRating",45,"Die italienische Flagge wurde von Giuseppe Garibaldi entworfen.","SetB","false","no",NA,NA,4,724,2,594,2,649,NA,1190,NA,NA,"",NA
"TEHT02","3",21,"female","native","soziologie","2","1","TRating",46,"Die Schweden führten als erste Kartons anstelle von Milchflaschen ein.","SetB","true","no",NA,NA,3,1751,2,714,2,642,NA,1190,NA,NA,"",NA
"TEHT02","3",21,"female","native","soziologie","2","1","TRating",47,"Nauru ist die kleinste souveräne Republik der Erde.","SetC","true","yes",NA,NA,4,938,2,595,2,942,NA,1190,NA,NA,"",NA
"TEHT02","3",21,"female","native","soziologie","2","1","TRating",48,"Bob Dylan arbeitet nebenberuflich als Winzer.","SetA","true","yes",NA,NA,3,1495,2,546,2,716,NA,1190,NA,NA,"",NA
"TEHT02","3",21,"female","native","soziologie","2","1","TRating",49,"Das älteste noch existierende Parlament der Welt ist das „Sejm“ in Polen.","SetC","false","yes",NA,NA,4,793,2,557,2,627,NA,1190,NA,NA,"",NA
"TEHT02","3",21,"female","native","soziologie","2","1","TRating",50,"Die Schwarzerle zählt zu den Buchengewächsen.","SetA","false","yes",NA,NA,4,1050,2,705,2,1850,NA,1190,NA,NA,"",NA
"TEHT02","3",21,"female","native","soziologie","2","1","TRating",51,"Das Domino-Spiel besteht aus 28 Steinen.","SetA","true","yes",NA,NA,5,658,2,622,2,762,NA,1190,NA,NA,"",NA
"TEHT02","3",21,"female","native","soziologie","2","1","TRating",52,"Bolivien ist der kleinste Binnenstaat Südamerikas. ","SetA","false","yes",NA,NA,4,657,2,1895,2,1097,NA,1190,NA,NA,"",NA
"TEHT02","3",21,"female","native","soziologie","2","1","TRating",53,"Ende 2003 waren in Deutschland 15 Atomkraftwerke am Netz. ","SetB","false","no",NA,NA,5,661,2,495,2,613,NA,1190,NA,NA,"",NA
"TEHT02","3",21,"female","native","soziologie","2","1","TRating",54,"Die längsten Opern stammen von Gioacchino Rossini.","SetC","false","yes",NA,NA,5,1152,1,694,2,1363,2,573,NA,NA,"",NA
"TEHT02","3",21,"female","native","soziologie","2","1","TRating",55,"Borkum ist die größte Ostfriesische Insel.","SetC","true","yes",NA,NA,4,795,2,4890,1,1301,NA,573,NA,NA,"",NA
"TEHT02","3",21,"female","native","soziologie","2","1","TRating",56,"Die Torstangen im Eishockey sind rot.","SetC","true","yes",NA,NA,5,4142,1,733,2,1078,1,1587,NA,NA,"",NA
"TEHT02","3",21,"female","native","soziologie","2","1","TRating",57,"In Uganda ist die Amtssprache Englisch.","SetB","true","no",NA,NA,4,829,2,713,2,982,NA,1587,NA,NA,"",NA
"TEHT02","3",21,"female","native","soziologie","2","1","TRating",58,"Der Name BenQ steht für Bringing Enjoyment and Quality to Life.","SetA","true","yes",NA,NA,4,792,2,693,2,802,NA,1587,NA,NA,"",NA
"TEHT02","3",21,"female","native","soziologie","2","1","TRating",59,"Tennis wurde in englischen Klöstern erfunden. ","SetB","false","no",NA,NA,1,798,2,616,2,1248,NA,1587,NA,NA,"",NA
"TEHT02","3",21,"female","native","soziologie","2","1","TRating",60,"Der Durchmesser des Wurfkreises beim Diskuswerfen beträgt 2,5 m","SetA","true","yes",NA,NA,4,4155,1,938,2,1083,2,2478,NA,NA,"",NA
"TEHT02","3",21,"female","native","soziologie","2","1","TRating",61,"Der Allradantrieb wurde 1938 in England erfunden.","SetB","false","no",NA,NA,4,780,2,643,2,575,NA,2478,NA,NA,"",NA
"TEHT02","3",21,"female","native","soziologie","2","1","TRating",62,"Laut WHO sind Krebserkrankungen die häufigste Todesursache.  ","SetA","false","yes",NA,NA,5,1269,1,597,1,4115,2,1824,NA,NA,"",NA
"TEHT02","3",21,"female","native","soziologie","2","1","TRating",63,"Der rote Naturfarbstoff in den Schalen von Krustentieren heißt Xanthophyll.","SetC","false","yes",NA,NA,6,3210,1,642,1,1943,2,1347,NA,NA,"",NA
"TEHT02","3",21,"female","native","soziologie","2","1","TRating",64,"Volleyball wurde in Florida erfunden.","SetB","false","no",NA,NA,4,809,2,699,2,1426,NA,1347,NA,NA,"",NA
"TEHT02","3",21,"female","native","soziologie","2","1","TRating",65,"Der Kilt stammt ursprünglich aus Irland, nicht aus Schottland.","SetA","false","yes",NA,NA,3,4835,1,603,2,1694,2,1006,NA,NA,"",NA
"TEHT02","3",21,"female","native","soziologie","2","1","TRating",66,"Blaue Augen werden im Alter immer heller.","SetC","true","yes",NA,NA,1,1392,1,541,2,786,2,2282,NA,NA,"",NA
"TEHT02","3",21,"female","native","soziologie","2","1","TRating",67,"Minerva ist die römische Göttin der Weisheit.","SetA","true","yes",NA,NA,2,1105,2,599,2,646,NA,2282,NA,NA,"",NA
"TEHT02","3",21,"female","native","soziologie","2","1","TRating",68,"Die Bach-Blütentherapie ist deutlich wirksamer als ein Placebo.","SetA","false","yes",NA,NA,2,1124,2,1026,1,1768,NA,2282,NA,NA,"",NA
"TEHT02","3",21,"female","native","soziologie","2","1","TRating",69,"Der preußische König August I. der Starke wurde auch der Soldatenkönig genannt.","SetC","false","yes",NA,NA,4,757,2,919,2,1305,NA,2282,NA,NA,"",NA
"TEHT02","3",21,"female","native","soziologie","2","1","TRating",70,"Kleinohrigel haben keine Stacheln.","SetC","false","yes",NA,NA,1,893,1,589,2,627,1,1248,NA,NA,"",NA
"TEHT02","3",21,"female","native","soziologie","2","1","TRating",71,"März und April sind die heißesten Monate auf den Malediven","SetA","true","yes",NA,NA,1,2490,2,721,2,718,NA,1248,NA,NA,"",NA
"TEHT02","3",21,"female","native","soziologie","2","1","TRating",72,"Das indische Tadsch Mahal wurde aus Basalt-Stein erbaut.","SetA","false","yes",NA,NA,4,1488,2,615,2,654,NA,1248,NA,NA,"",NA
"TEHT02","3",21,"female","native","soziologie","2","1","TRating",73,"Ein neugeborenes Panda-Baby ist kleiner als eine Maus.","SetA","true","yes",NA,NA,4,1394,2,822,2,979,NA,1248,NA,NA,"",NA
"TEHT02","3",21,"female","native","soziologie","2","1","TRating",74,"Virginia war die erste englische Kolonie in Nordamerika ","SetA","true","yes",NA,NA,4,569,1,852,2,869,2,1476,NA,NA,"",NA
"TEHT02","3",21,"female","native","soziologie","2","1","TRating",75,"Tuberkulose wird durch Viren übertragen.","SetB","false","no",NA,NA,5,1141,2,626,2,624,NA,1476,NA,NA,"",NA
"TEHT02","3",21,"female","native","soziologie","2","1","TRating",76,"Karl Marx wurde in London begraben.","SetC","true","yes",NA,NA,4,708,1,583,2,738,3,787,NA,NA,"",NA
"TEHT02","3",21,"female","native","soziologie","2","1","TRating",77,"Balsaholz ist die schwerste aller Holzarten.","SetB","false","no",NA,NA,4,936,2,609,2,756,NA,787,NA,NA,"",NA
"TEHT02","3",21,"female","native","soziologie","2","1","TRating",78,"Das Gehäuse des ersten Apple Computers bestand aus Aluminium.","SetC","false","yes",NA,NA,5,636,1,539,2,917,2,512,NA,NA,"",NA
"TEHT02","3",21,"female","native","soziologie","2","1","TRating",79,"Manama ist die Hauptstadt Bahrains.","SetA","true","yes",NA,NA,4,696,2,532,2,710,NA,512,NA,NA,"",NA
"TEHT02","3",21,"female","native","soziologie","2","1","TRating",80,"Die Erde wird in 360 Längengrade unterteilt.","SetC","true","yes",NA,NA,6,900,1,1132,1,1402,1,704,NA,NA,"",NA
"TEHT02","3",21,"female","native","soziologie","2","1","TRating",81,"Tiger haben nicht nur gestreiftes Fell, sondern auch gestreifte Haut.","SetB","true","no",NA,NA,1,904,2,498,2,741,NA,704,NA,NA,"",NA
"TEHT02","3",21,"female","native","soziologie","2","1","TRating",82,"Seoul bedeutet auf koreanisch Die Hauptstadt.","SetB","true","no",NA,NA,4,1210,2,542,2,1371,NA,704,NA,NA,"",NA
"TEHT02","3",21,"female","native","soziologie","2","1","TRating",83,"Freddie Mercurys richtiger Name lautete Farrokh Bulsara.","SetA","true","yes",NA,NA,4,773,2,576,2,2040,NA,704,NA,NA,"",NA
"TEHT02","3",21,"female","native","soziologie","2","1","TRating",84,"Richard Gere und Cindy Crawford ließen sich in Mexiko trauen.","SetB","false","no",NA,NA,3,532,2,770,2,825,NA,704,NA,NA,"",NA
"TEHT02","3",21,"female","native","soziologie","2","1","TRating",85,"Das Jojo war ursprünglich eine philippinische Jagdwaffe.","SetA","true","yes",NA,NA,1,688,2,492,2,894,NA,704,NA,NA,"",NA
"TEHT02","3",21,"female","native","soziologie","2","1","TRating",86,"Es gibt drei Amerikanische Städte, die Santa Claus heißen.","SetB","true","no",NA,NA,4,1997,2,689,2,1558,NA,704,NA,NA,"",NA
"TEHT02","3",21,"female","native","soziologie","2","1","TRating",87,"Jassir Arafat kämpfte im Sueskrieg für die ägyptische Armee.","SetC","true","yes",NA,NA,3,593,2,536,2,555,NA,704,NA,NA,"",NA
"TEHT02","3",21,"female","native","soziologie","2","1","TRating",88,"Der spanische Ex-Diktator Francisco Franco hatte den Beinamen Conducator.","SetA","false","yes",NA,NA,5,1367,1,564,2,586,2,546,NA,NA,"",NA
"TEHT02","3",21,"female","native","soziologie","2","1","Questions",89,"","",NA,NA,NA,NA,NA,NA,NA,NA,NA,NA,NA,NA,"informed","no","",NA
"TEHT02","3",21,"female","native","soziologie","2","1","Questions",90,"","",NA,NA,NA,NA,NA,NA,NA,NA,NA,NA,NA,NA,"hypothesis","yes","Dass es viele Aussagen gab bei denen es gar nicht leicht war zu entscheiden ob sie wahr oder falsch sind.",NA
"TEHT02","4",22,"female","native","psychology","1","1","Buffer",22,"Nur ca. zwei Prozent der Weltbevölkerung sind von Natur aus blond.","Buffer","true",NA,1,4926,NA,NA,NA,NA,NA,NA,NA,NA,NA,NA,NA,NA
"TEHT02","4",22,"female","native","psychology","1","1","Buffer",23,"Morpheus ist der griechische Gott der Träume.","Buffer","true",NA,3,2599,NA,NA,NA,NA,NA,NA,NA,NA,NA,NA,NA,NA
"TEHT02","4",22,"female","native","psychology","1","1","Buffer",24,"Der griechische Gott Apollon ist der Schutzherr der Küste.","Buffer","true",NA,3,687,NA,NA,NA,NA,NA,NA,NA,NA,NA,NA,NA,NA
"TEHT02","4",22,"female","native","psychology","1","1","Buffer",25,"Die Luftröhre eines Menschen ist durchschnittlich 24 cm lang. ","Buffer","false",NA,2,768,NA,NA,NA,NA,NA,NA,NA,NA,NA,NA,NA,NA
"TEHT02","4",22,"female","native","psychology","1","1","Buffer",26,"Der weiße Hai hat keine natürlichen Feinde.","Buffer","true",NA,2,635,NA,NA,NA,NA,NA,NA,NA,NA,NA,NA,NA,NA
"TEHT02","4",22,"female","native","psychology","1","1","Buffer",27,"Das Zwerghörnchen ist das kleinste Säugetier Europas.","Buffer","false",NA,2,855,NA,NA,NA,NA,NA,NA,NA,NA,NA,NA,NA,NA
"TEHT02","4",22,"female","native","psychology","1","1","Buffer",28,"Das erste Taschenbuch der Geschichte war Goethes Faust.","Buffer","true",NA,5,4182,NA,NA,NA,NA,NA,NA,NA,NA,NA,NA,NA,NA
"TEHT02","4",22,"female","native","psychology","1","1","Buffer",29,"Im Arabischen gibt es etwa 500 Worte für Kamel.","Buffer","false",NA,5,3678,NA,NA,NA,NA,NA,NA,NA,NA,NA,NA,NA,NA
"TEHT02","4",22,"female","native","psychology","1","1","Buffer",30,"Der hundertjährige Krieg dauerte in Wahrheit nur 93 Jahre.","Buffer","false",NA,3,618,NA,NA,NA,NA,NA,NA,NA,NA,NA,NA,NA,NA
"TEHT02","4",22,"female","native","psychology","1","1","Buffer",31,"Die Aktivität einer radioaktiven Substanz wird in Sievert gemessen.","Buffer","false",NA,2,2885,NA,NA,NA,NA,NA,NA,NA,NA,NA,NA,NA,NA
"TEHT02","4",22,"female","native","psychology","1","1","Buffer",32,"Jürgen Klinsmann erhielt bei Bayern München den Spitznamen Flipper.","Buffer","true",NA,5,683,NA,NA,NA,NA,NA,NA,NA,NA,NA,NA,NA,NA
"TEHT02","4",22,"female","native","psychology","1","1","Buffer",33,"Der Philosoph Platon war einer der besten Speerwerfer seiner Zeit.","Buffer","false",NA,3,756,NA,NA,NA,NA,NA,NA,NA,NA,NA,NA,NA,NA
"TEHT02","4",22,"female","native","psychology","1","1","Buffer",34,"Pamela Anderson ist kanadische Staatsbürgerin.","Buffer","true",NA,5,593,NA,NA,NA,NA,NA,NA,NA,NA,NA,NA,NA,NA
"TEHT02","4",22,"female","native","psychology","1","1","Buffer",35,"In Deutschland leiden ca. 1 Millionen Menschen an Alzheimer.","Buffer","true",NA,4,2876,NA,NA,NA,NA,NA,NA,NA,NA,NA,NA,NA,NA
"TEHT02","4",22,"female","native","psychology","1","1","CRating",36,"März und April sind die heißesten Monate auf den Malediven","SetA","true","yes",1,1097,NA,NA,NA,NA,NA,NA,NA,NA,NA,NA,NA,NA
"TEHT02","4",22,"female","native","psychology","1","1","CRating",37,"Spanholz besteht hauptsächlich aus Birkenholz.","SetC","true","yes",6,2832,NA,NA,NA,NA,NA,NA,NA,NA,NA,NA,NA,NA
"TEHT02","4",22,"female","native","psychology","1","1","CRating",38,"Der rote Naturfarbstoff in den Schalen von Krustentieren heißt Xanthophyll.","SetC","false","yes",2,615,NA,NA,NA,NA,NA,NA,NA,NA,NA,NA,NA,NA
"TEHT02","4",22,"female","native","psychology","1","1","CRating",39,"Der Pavane ist ein spanisch-italienischer Volkstanz aus dem 16. Jahrhundert.","SetA","true","yes",3,906,NA,NA,NA,NA,NA,NA,NA,NA,NA,NA,NA,NA
"TEHT02","4",22,"female","native","psychology","1","1","CRating",40,"Manama ist die Hauptstadt Bahrains.","SetA","true","yes",3,913,NA,NA,NA,NA,NA,NA,NA,NA,NA,NA,NA,NA
"TEHT02","4",22,"female","native","psychology","1","1","CRating",41,"Der richtige Name des Krümelmonsters aus der Sesamstraße lautet Sam.","SetC","false","yes",5,1174,NA,NA,NA,NA,NA,NA,NA,NA,NA,NA,NA,NA
"TEHT02","4",22,"female","native","psychology","1","1","CRating",42,"Der erste Bordcomputer für Autos wurde in Amerika entwickelt. ","SetA","false","yes",4,1770,NA,NA,NA,NA,NA,NA,NA,NA,NA,NA,NA,NA
"TEHT02","4",22,"female","native","psychology","1","1","CRating",43,"Das Domino-Spiel besteht aus 28 Steinen.","SetA","true","yes",6,878,NA,NA,NA,NA,NA,NA,NA,NA,NA,NA,NA,NA
"TEHT02","4",22,"female","native","psychology","1","1","CRating",44,"Das Jojo war ursprünglich eine philippinische Jagdwaffe.","SetA","true","yes",3,1413,NA,NA,NA,NA,NA,NA,NA,NA,NA,NA,NA,NA
"TEHT02","4",22,"female","native","psychology","1","1","CRating",45,"Borkum ist die größte Ostfriesische Insel.","SetC","true","yes",1,1847,NA,NA,NA,NA,NA,NA,NA,NA,NA,NA,NA,NA
"TEHT02","4",22,"female","native","psychology","1","1","CRating",46,"Der Kilt stammt ursprünglich aus Irland, nicht aus Schottland.","SetA","false","yes",5,1111,NA,NA,NA,NA,NA,NA,NA,NA,NA,NA,NA,NA
"TEHT02","4",22,"female","native","psychology","1","1","CRating",47,"Eine der ersten deutschen Internetsuchmaschinen hieß Alcazar.","SetA","false","yes",6,606,NA,NA,NA,NA,NA,NA,NA,NA,NA,NA,NA,NA
"TEHT02","4",22,"female","native","psychology","1","1","CRating",48,"Minerva ist die römische Göttin der Weisheit.","SetA","true","yes",3,641,NA,NA,NA,NA,NA,NA,NA,NA,NA,NA,NA,NA
"TEHT02","4",22,"female","native","psychology","1","1","CRating",49,"Die Erde wird in 360 Längengrade unterteilt.","SetC","true","yes",1,1066,NA,NA,NA,NA,NA,NA,NA,NA,NA,NA,NA,NA
"TEHT02","4",22,"female","native","psychology","1","1","CRating",50,"Der Durchmesser des Wurfkreises beim Diskuswerfen beträgt 2,5 m","SetA","true","yes",5,3691,NA,NA,NA,NA,NA,NA,NA,NA,NA,NA,NA,NA
"TEHT02","4",22,"female","native","psychology","1","1","CRating",51,"Die Bach-Blütentherapie ist deutlich wirksamer als ein Placebo.","SetA","false","yes",4,630,NA,NA,NA,NA,NA,NA,NA,NA,NA,NA,NA,NA
"TEHT02","4",22,"female","native","psychology","1","1","CRating",52,"Kleinohrigel haben keine Stacheln.","SetC","false","yes",2,1673,NA,NA,NA,NA,NA,NA,NA,NA,NA,NA,NA,NA
"TEHT02","4",22,"female","native","psychology","1","1","CRating",53,"Papst Johannes Paul II. wurde seinerzeit als Mann des Jahres ausgezeichnet.","SetC","false","yes",5,3184,NA,NA,NA,NA,NA,NA,NA,NA,NA,NA,NA,NA
"TEHT02","4",22,"female","native","psychology","1","1","CRating",54,"Nauru ist die kleinste souveräne Republik der Erde.","SetC","true","yes",1,1576,NA,NA,NA,NA,NA,NA,NA,NA,NA,NA,NA,NA
"TEHT02","4",22,"female","native","psychology","1","1","CRating",55,"Karl Marx wurde in London begraben.","SetC","true","yes",3,860,NA,NA,NA,NA,NA,NA,NA,NA,NA,NA,NA,NA
"TEHT02","4",22,"female","native","psychology","1","1","CRating",56,"Die Wüste Dahna liegt in Saudi-Arabien.","SetC","true","yes",1,1068,NA,NA,NA,NA,NA,NA,NA,NA,NA,NA,NA,NA
"TEHT02","4",22,"female","native","psychology","1","1","CRating",57,"Jassir Arafat kämpfte im Sueskrieg für die ägyptische Armee.","SetC","true","yes",3,2053,NA,NA,NA,NA,NA,NA,NA,NA,NA,NA,NA,NA
"TEHT02","4",22,"female","native","psychology","1","1","CRating",58,"Blaue Augen werden im Alter immer heller.","SetC","true","yes",2,1060,NA,NA,NA,NA,NA,NA,NA,NA,NA,NA,NA,NA
"TEHT02","4",22,"female","native","psychology","1","1","CRating",59,"Der Name BenQ steht für Bringing Enjoyment and Quality to Life.","SetA","true","yes",6,1461,NA,NA,NA,NA,NA,NA,NA,NA,NA,NA,NA,NA
"TEHT02","4",22,"female","native","psychology","1","1","CRating",60,"Die Torstangen im Eishockey sind rot.","SetC","true","yes",5,2180,NA,NA,NA,NA,NA,NA,NA,NA,NA,NA,NA,NA
"TEHT02","4",22,"female","native","psychology","1","1","CRating",61,"Ein neugeborenes Panda-Baby ist kleiner als eine Maus.","SetA","true","yes",5,615,NA,NA,NA,NA,NA,NA,NA,NA,NA,NA,NA,NA
"TEHT02","4",22,"female","native","psychology","1","1","CRating",62,"Das indische Tadsch Mahal wurde aus Basalt-Stein erbaut.","SetA","false","yes",3,2034,NA,NA,NA,NA,NA,NA,NA,NA,NA,NA,NA,NA
"TEHT02","4",22,"female","native","psychology","1","1","CRating",63,"Der Bereich zwischen den Augenbrauen heißt Glabella.","SetA","true","yes",2,938,NA,NA,NA,NA,NA,NA,NA,NA,NA,NA,NA,NA
"TEHT02","4",22,"female","native","psychology","1","1","CRating",64,"Im arabischen Raum heißt Homer Simpson Omar Shamshoon.","SetC","true","yes",5,2295,NA,NA,NA,NA,NA,NA,NA,NA,NA,NA,NA,NA
"TEHT02","4",22,"female","native","psychology","1","1","CRating",65,"Der heißeste Ort im jährlichen Mittel ist Duri in Somalia mit 34,4° Celsius.","SetC","false","yes",2,1765,NA,NA,NA,NA,NA,NA,NA,NA,NA,NA,NA,NA
"TEHT02","4",22,"female","native","psychology","1","1","CRating",66,"Ebenso wie der Fingerabdruck ist auch der Zungenabdruck eines Menschen einzigartig.","SetC","true","yes",2,2544,NA,NA,NA,NA,NA,NA,NA,NA,NA,NA,NA,NA
"TEHT02","4",22,"female","native","psychology","1","1","CRating",67,"Moritz Bleibtreu und Heike Makatsch wurden am gleichen Tag geboren.","SetC","true","yes",5,819,NA,NA,NA,NA,NA,NA,NA,NA,NA,NA,NA,NA
"TEHT02","4",22,"female","native","psychology","1","1","CRating",68,"Jean-Jaques Rousseau war alleinerziehender Vater.","SetC","false","yes",3,1405,NA,NA,NA,NA,NA,NA,NA,NA,NA,NA,NA,NA
"TEHT02","4",22,"female","native","psychology","1","1","CRating",69,"Ein Dingo kann länger ohne Wasser leben als ein Kamel.","SetA","false","yes",2,1399,NA,NA,NA,NA,NA,NA,NA,NA,NA,NA,NA,NA
"TEHT02","4",22,"female","native","psychology","1","1","CRating",70,"Alle Uhren im Film Pulp Fiction stehen auf 4.10 Uhr.","SetC","false","yes",5,803,NA,NA,NA,NA,NA,NA,NA,NA,NA,NA,NA,NA
"TEHT02","4",22,"female","native","psychology","1","1","CRating",71,"Die längsten Opern stammen von Gioacchino Rossini.","SetC","false","yes",5,2885,NA,NA,NA,NA,NA,NA,NA,NA,NA,NA,NA,NA
"TEHT02","4",22,"female","native","psychology","1","1","CRating",72,"Die Norfolkinseln im Pazifik gehören zu Neuseeland. ","SetA","false","yes",1,451,NA,NA,NA,NA,NA,NA,NA,NA,NA,NA,NA,NA
"TEHT02","4",22,"female","native","psychology","1","1","CRating",73,"In Griechenland gilt  nicht Freitag der 13., sondern Mittwoch der 13. als Unglückstag.","SetC","false","yes",5,1932,NA,NA,NA,NA,NA,NA,NA,NA,NA,NA,NA,NA
"TEHT02","4",22,"female","native","psychology","1","1","CRating",74,"Die Insel Ösel gehört zu Dänemark.","SetA","false","yes",1,2409,NA,NA,NA,NA,NA,NA,NA,NA,NA,NA,NA,NA
"TEHT02","4",22,"female","native","psychology","1","1","CRating",75,"Das älteste noch existierende Parlament der Welt ist das „Sejm“ in Polen.","SetC","false","yes",3,2578,NA,NA,NA,NA,NA,NA,NA,NA,NA,NA,NA,NA
"TEHT02","4",22,"female","native","psychology","1","1","CRating",76,"Der Prophet Mohammed arbeitete vor seiner religiösen Berufung als Arzt. ","SetA","false","yes",3,579,NA,NA,NA,NA,NA,NA,NA,NA,NA,NA,NA,NA
"TEHT02","4",22,"female","native","psychology","1","1","CRating",77,"Die Band Oasis hat sich nach einem Fitness-Studio benannt.","SetC","true","yes",5,2775,NA,NA,NA,NA,NA,NA,NA,NA,NA,NA,NA,NA
"TEHT02","4",22,"female","native","psychology","1","1","CRating",78,"Freddie Mercurys richtiger Name lautete Farrokh Bulsara.","SetA","true","yes",5,3513,NA,NA,NA,NA,NA,NA,NA,NA,NA,NA,NA,NA
"TEHT02","4",22,"female","native","psychology","1","1","CRating",79,"Das Gehäuse des ersten Apple Computers bestand aus Aluminium.","SetC","false","yes",6,2284,NA,NA,NA,NA,NA,NA,NA,NA,NA,NA,NA,NA
"TEHT02","4",22,"female","native","psychology","1","1","CRating",80,"Das Schnabeltier gehört nicht zur Gattung der Säugetiere.","SetA","false","yes",2,778,NA,NA,NA,NA,NA,NA,NA,NA,NA,NA,NA,NA
"TEHT02","4",22,"female","native","psychology","1","1","CRating",81,"Der preußische König August I. der Starke wurde auch der Soldatenkönig genannt.","SetC","false","yes",3,1470,NA,NA,NA,NA,NA,NA,NA,NA,NA,NA,NA,NA
"TEHT02","4",22,"female","native","psychology","1","1","CRating",82,"Virginia war die erste englische Kolonie in Nordamerika ","SetA","true","yes",3,3854,NA,NA,NA,NA,NA,NA,NA,NA,NA,NA,NA,NA
"TEHT02","4",22,"female","native","psychology","1","1","CRating",83,"Laut WHO sind Krebserkrankungen die häufigste Todesursache.  ","SetA","false","yes",2,731,NA,NA,NA,NA,NA,NA,NA,NA,NA,NA,NA,NA
"TEHT02","4",22,"female","native","psychology","1","1","CRating",84,"Bolivien ist der kleinste Binnenstaat Südamerikas. ","SetA","false","yes",1,2129,NA,NA,NA,NA,NA,NA,NA,NA,NA,NA,NA,NA
"TEHT02","4",22,"female","native","psychology","1","1","CRating",85,"Bob Dylan arbeitet nebenberuflich als Winzer.","SetA","true","yes",5,1997,NA,NA,NA,NA,NA,NA,NA,NA,NA,NA,NA,NA
"TEHT02","4",22,"female","native","psychology","1","1","CRating",86,"Der See Genezareth ist das tiefst gelegenste stehende Gewässer der Erde.","SetC","false","yes",2,1704,NA,NA,NA,NA,NA,NA,NA,NA,NA,NA,NA,NA
"TEHT02","4",22,"female","native","psychology","1","1","CRating",87,"Sheryl Crow war früher Hürdenläuferin.","SetA","true","yes",5,790,NA,NA,NA,NA,NA,NA,NA,NA,NA,NA,NA,NA
"TEHT02","4",22,"female","native","psychology","1","1","CRating",88,"Jimmy Carter war der einzige geschiedene US-Präsident.","SetC","false","yes",3,5000,NA,NA,NA,NA,NA,NA,NA,NA,NA,NA,NA,NA
"TEHT02","4",22,"female","native","psychology","1","1","CRating",89,"Beim Rugby gibt es 30 Spieler.","SetC","true","yes",5,703,NA,NA,NA,NA,NA,NA,NA,NA,NA,NA,NA,NA
"TEHT02","4",22,"female","native","psychology","1","1","CRating",90,"Der spanische Ex-Diktator Francisco Franco hatte den Beinamen Conducator.","SetA","false","yes",3,1430,NA,NA,NA,NA,NA,NA,NA,NA,NA,NA,NA,NA
"TEHT02","4",22,"female","native","psychology","1","1","CRating",91,"Die Schwarzerle zählt zu den Buchengewächsen.","SetA","false","yes",2,743,NA,NA,NA,NA,NA,NA,NA,NA,NA,NA,NA,NA
"TEHT02","4",22,"female","native","psychology","1","1","Buffer",92,"Ein Menschenfloh kann 20cm hoch springen.","Buffer","true",NA,2,1852,NA,NA,NA,NA,NA,NA,NA,NA,NA,NA,NA,NA
"TEHT02","4",22,"female","native","psychology","1","1","Buffer",93,"Der Airbus A380 kann maximal 777 Passagiere transportieren. ","Buffer","false",NA,6,1956,NA,NA,NA,NA,NA,NA,NA,NA,NA,NA,NA,NA
"TEHT02","4",22,"female","native","psychology","1","1","Buffer",94,"Die Wüste Gobi ist eine Felswüste.","Buffer","false",NA,1,1104,NA,NA,NA,NA,NA,NA,NA,NA,NA,NA,NA,NA
"TEHT02","4",22,"female","native","psychology","1","1","Buffer",95,"Ein menschliches Haar wächst jährlich ca. 85 mm.","Buffer","true",NA,2,3854,NA,NA,NA,NA,NA,NA,NA,NA,NA,NA,NA,NA
"TEHT02","4",22,"female","native","psychology","1","1","Buffer",96,"Bei Männern heißt übermäßiger Geschlechtstrieb nicht Nymphomanie sondern Satyriasis.","Buffer","true",NA,2,1362,NA,NA,NA,NA,NA,NA,NA,NA,NA,NA,NA,NA
"TEHT02","4",22,"female","native","psychology","1","1","Buffer",97,"Ultraschall sind Wellen und Schwingungen unterhalb von 16 Hertz.","Buffer","false",NA,4,991,NA,NA,NA,NA,NA,NA,NA,NA,NA,NA,NA,NA
"TEHT02","4",22,"female","native","psychology","1","1","Buffer",98,"Der Mond passt vierzigmal in die Erdkugel.","Buffer","false",NA,4,802,NA,NA,NA,NA,NA,NA,NA,NA,NA,NA,NA,NA
"TEHT02","4",22,"female","native","psychology","1","1","Buffer",99,"Bei Nahrungsmangel kann ein Spulwurm bis zu 95% seines eigenen Körpers verzehren.","Buffer","false",NA,2,3509,NA,NA,NA,NA,NA,NA,NA,NA,NA,NA,NA,NA
"TEHT02","4",22,"female","native","psychology","1","1","Buffer",100,"Ein Polospiel ist in Zeitabschnitte von 7,5 Minuten unterteilt, die man Chukkas nennt.","Buffer","true",NA,5,1696,NA,NA,NA,NA,NA,NA,NA,NA,NA,NA,NA,NA
"TEHT02","4",22,"female","native","psychology","1","1","Buffer",101,"Der Film Ein unmoralische Angebot bekam die goldene Himbeere verliehen.","Buffer","true",NA,5,886,NA,NA,NA,NA,NA,NA,NA,NA,NA,NA,NA,NA
"TEHT02","4",22,"female","native","psychology","1","1","Buffer",102,"Auf jedem Kontinent gibt es eine Stadt die Rom heißt.","Buffer","true",NA,1,848,NA,NA,NA,NA,NA,NA,NA,NA,NA,NA,NA,NA
"TEHT02","4",22,"female","native","psychology","1","1","Buffer",103,"Die Gebrüder Montgolfier entwarfen den ersten Fallschirm.","Buffer","false",NA,3,2031,NA,NA,NA,NA,NA,NA,NA,NA,NA,NA,NA,NA
"TEHT02","4",22,"female","native","psychology","1","1","Buffer",104,"Das Capybara ist das größte aller Beuteltiere.","Buffer","false",NA,2,8888,NA,NA,NA,NA,NA,NA,NA,NA,NA,NA,NA,NA
"TEHT02","4",22,"female","native","psychology","1","1","Buffer",105,"Spanien schaffte als letztes aller EU-Länder 1996 die Todesstrafe ab.","Buffer","false",NA,3,597,NA,NA,NA,NA,NA,NA,NA,NA,NA,NA,NA,NA
"TEHT02","4",22,"female","native","psychology","2","1","Practice",1,"Der erste Sinn, der im Alter nachlässt, ist das Gehör.","SetD","false","no",NA,NA,4,5059,2,2137,2,3885,NA,0,NA,NA,"",NA
"TEHT02","4",22,"female","native","psychology","2","1","Practice",2,"Der Airbus A380 kann maximal 777 Passagiere transportieren. ","Buffer","false","yes",NA,NA,3,4181,1,1693,2,2163,2,6315,NA,NA,"",NA
"TEHT02","4",22,"female","native","psychology","2","1","Practice",3,"Das Capybara ist das größte aller Beuteltiere.","Buffer","false","yes",NA,NA,3,6122,1,884,2,1537,3,1524,NA,NA,"",NA
"TEHT02","4",22,"female","native","psychology","2","1","Practice",4,"Bei Männern heißt übermäßiger Geschlechtstrieb nicht Nymphomanie sondern Satyriasis.","Buffer","true","yes",NA,NA,4,6937,1,904,2,1581,1,751,NA,NA,"",NA
"TEHT02","4",22,"female","native","psychology","2","1","TRating",5,"Albert Einstein heiratete seine Cousine.","SetB","true","no",NA,NA,4,1493,2,1136,1,2234,NA,751,NA,NA,"",NA
"TEHT02","4",22,"female","native","psychology","2","1","TRating",6,"Tiger haben nicht nur gestreiftes Fell, sondern auch gestreifte Haut.","SetB","true","no",NA,NA,4,3966,2,1602,2,2110,NA,751,NA,NA,"",NA
"TEHT02","4",22,"female","native","psychology","2","1","TRating",7,"Lachse können bis zu 20 Jahre alt werden. ","SetB","false","no",NA,NA,5,1300,2,1294,1,1521,NA,751,NA,NA,"",NA
"TEHT02","4",22,"female","native","psychology","2","1","TRating",8,"Erdbeeren enthalten mehr Vitamin C als Orangen.","SetB","true","no",NA,NA,4,3478,1,890,2,2001,3,577,NA,NA,"",NA
"TEHT02","4",22,"female","native","psychology","2","1","TRating",9,"Nauru ist die kleinste souveräne Republik der Erde.","SetC","true","yes",NA,NA,4,1053,1,715,2,1501,2,2873,NA,NA,"",NA
"TEHT02","4",22,"female","native","psychology","2","1","TRating",10,"Die Insel Ösel gehört zu Dänemark.","SetA","false","yes",NA,NA,3,2630,2,820,2,2156,NA,2873,NA,NA,"",NA
"TEHT02","4",22,"female","native","psychology","2","1","TRating",11,"Die Bach-Blütentherapie ist deutlich wirksamer als ein Placebo.","SetA","false","yes",NA,NA,4,1039,1,3461,2,6526,3,633,NA,NA,"",NA
"TEHT02","4",22,"female","native","psychology","2","1","TRating",12,"Sheryl Crow war früher Hürdenläuferin.","SetA","true","yes",NA,NA,3,2468,2,704,2,2207,NA,633,NA,NA,"",NA
"TEHT02","4",22,"female","native","psychology","2","1","TRating",13,"Jassir Arafat kämpfte im Sueskrieg für die ägyptische Armee.","SetC","true","yes",NA,NA,3,1576,1,648,2,1482,3,1657,NA,NA,"",NA
"TEHT02","4",22,"female","native","psychology","2","1","TRating",14,"Beim Rugby gibt es 30 Spieler.","SetC","true","yes",NA,NA,2,721,2,3935,2,1231,NA,1657,NA,NA,"",NA
"TEHT02","4",22,"female","native","psychology","2","1","TRating",15,"Kaiser Konstantin IV wurde auf Befehl seiner eigenen Mutter ermordet.","SetB","true","no",NA,NA,4,3689,2,4636,2,4356,NA,1657,NA,NA,"",NA
"TEHT02","4",22,"female","native","psychology","2","1","TRating",16,"Der Prophet Mohammed arbeitete vor seiner religiösen Berufung als Arzt. ","SetA","false","yes",NA,NA,4,850,1,3196,2,2537,2,603,NA,NA,"",NA
"TEHT02","4",22,"female","native","psychology","2","1","TRating",17,"Bolivien ist der kleinste Binnenstaat Südamerikas. ","SetA","false","yes",NA,NA,5,13839,2,2443,2,4238,NA,603,NA,NA,"",NA
"TEHT02","4",22,"female","native","psychology","2","1","TRating",18,"Manama ist die Hauptstadt Bahrains.","SetA","true","yes",NA,NA,3,3250,2,952,2,1799,NA,603,NA,NA,"",NA
"TEHT02","4",22,"female","native","psychology","2","1","TRating",19,"Das älteste noch existierende Parlament der Welt ist das „Sejm“ in Polen.","SetC","false","yes",NA,NA,5,3486,2,843,2,1010,NA,603,NA,NA,"",NA
"TEHT02","4",22,"female","native","psychology","2","1","TRating",20,"Der Name BenQ steht für Bringing Enjoyment and Quality to Life.","SetA","true","yes",NA,NA,4,2445,1,482,2,1075,2,658,NA,NA,"",NA
"TEHT02","4",22,"female","native","psychology","2","1","TRating",21,"Der rote Naturfarbstoff in den Schalen von Krustentieren heißt Xanthophyll.","SetC","false","yes",NA,NA,4,7451,1,329,2,690,2,607,NA,NA,"",NA
"TEHT02","4",22,"female","native","psychology","2","1","TRating",22,"Minerva ist die römische Göttin der Weisheit.","SetA","true","yes",NA,NA,4,1506,1,870,2,1687,3,677,NA,NA,"",NA
"TEHT02","4",22,"female","native","psychology","2","1","TRating",23,"Der Kilt stammt ursprünglich aus Irland, nicht aus Schottland.","SetA","false","yes",NA,NA,4,1782,1,2950,2,2023,1,772,NA,NA,"",NA
"TEHT02","4",22,"female","native","psychology","2","1","TRating",24,"Richard Gere und Cindy Crawford ließen sich in Mexiko trauen.","SetB","false","no",NA,NA,3,2657,2,3477,2,2445,NA,772,NA,NA,"",NA
"TEHT02","4",22,"female","native","psychology","2","1","TRating",25,"Die Schweden führten als erste Kartons anstelle von Milchflaschen ein.","SetB","true","no",NA,NA,4,7544,2,708,2,7444,NA,772,NA,NA,"",NA
"TEHT02","4",22,"female","native","psychology","2","1","TRating",26,"Der heißeste Ort im jährlichen Mittel ist Duri in Somalia mit 34,4° Celsius.","SetC","false","yes",NA,NA,5,2036,1,1554,2,3202,1,617,NA,NA,"",NA
"TEHT02","4",22,"female","native","psychology","2","1","TRating",27,"Borkum ist die größte Ostfriesische Insel.","SetC","true","yes",NA,NA,3,7204,2,3631,1,4853,NA,617,NA,NA,"",NA
"TEHT02","4",22,"female","native","psychology","2","1","TRating",28,"Alexander Graham Bell erfand das Tragflügelboot.","SetB","true","no",NA,NA,4,1575,2,562,2,615,NA,617,NA,NA,"",NA
"TEHT02","4",22,"female","native","psychology","2","1","TRating",29,"Der richtige Name des Krümelmonsters aus der Sesamstraße lautet Sam.","SetC","false","yes",NA,NA,3,1528,1,1553,2,1540,2,643,NA,NA,"",NA
"TEHT02","4",22,"female","native","psychology","2","1","TRating",30,"Ebenso wie der Fingerabdruck ist auch der Zungenabdruck eines Menschen einzigartig.","SetC","true","yes",NA,NA,3,1982,1,1176,2,1031,1,763,NA,NA,"",NA
"TEHT02","4",22,"female","native","psychology","2","1","TRating",31,"Virginia war die erste englische Kolonie in Nordamerika ","SetA","true","yes",NA,NA,3,4904,2,772,2,1984,NA,763,NA,NA,"",NA
"TEHT02","4",22,"female","native","psychology","2","1","TRating",32,"Die Schwarzerle zählt zu den Buchengewächsen.","SetA","false","yes",NA,NA,5,819,2,1313,1,1876,NA,763,NA,NA,"",NA
"TEHT02","4",22,"female","native","psychology","2","1","TRating",33,"Seoul bedeutet auf koreanisch Die Hauptstadt.","SetB","true","no",NA,NA,2,1712,2,701,2,811,NA,763,NA,NA,"",NA
"TEHT02","4",22,"female","native","psychology","2","1","TRating",34,"Kendo ist eine aus Japan stammende waffenlose Kampfsportart.","SetB","false","no",NA,NA,3,1766,1,392,2,479,3,475,NA,NA,"",NA
"TEHT02","4",22,"female","native","psychology","2","1","TRating",35,"Es gibt drei Amerikanische Städte, die Santa Claus heißen.","SetB","true","no",NA,NA,4,1925,2,1466,2,624,NA,475,NA,NA,"",NA
"TEHT02","4",22,"female","native","psychology","2","1","TRating",36,"Der Bereich zwischen den Augenbrauen heißt Glabella.","SetA","true","yes",NA,NA,4,649,1,518,2,753,2,628,NA,NA,"",NA
"TEHT02","4",22,"female","native","psychology","2","1","TRating",37,"Tennis wurde in englischen Klöstern erfunden. ","SetB","false","no",NA,NA,4,1144,2,378,2,892,NA,628,NA,NA,"",NA
"TEHT02","4",22,"female","native","psychology","2","1","TRating",38,"Der Allradantrieb wurde 1938 in England erfunden.","SetB","false","no",NA,NA,2,720,2,645,2,660,NA,628,NA,NA,"",NA
"TEHT02","4",22,"female","native","psychology","2","1","TRating",39,"Der preußische König August I. der Starke wurde auch der Soldatenkönig genannt.","SetC","false","yes",NA,NA,2,3439,2,598,2,883,NA,628,NA,NA,"",NA
"TEHT02","4",22,"female","native","psychology","2","1","TRating",40,"Das indische Tadsch Mahal wurde aus Basalt-Stein erbaut.","SetA","false","yes",NA,NA,5,1516,2,656,2,2025,NA,628,NA,NA,"",NA
"TEHT02","4",22,"female","native","psychology","2","1","TRating",41,"Eine der ersten deutschen Internetsuchmaschinen hieß Alcazar.","SetA","false","yes",NA,NA,3,2033,1,340,2,1160,3,673,NA,NA,"",NA
"TEHT02","4",22,"female","native","psychology","2","1","TRating",42,"Im arabischen Raum heißt Homer Simpson Omar Shamshoon.","SetC","true","yes",NA,NA,2,2634,1,708,2,3537,1,796,NA,NA,"",NA
"TEHT02","4",22,"female","native","psychology","2","1","TRating",43,"Balsaholz ist die schwerste aller Holzarten.","SetB","false","no",NA,NA,4,2847,2,516,2,1444,NA,796,NA,NA,"",NA
"TEHT02","4",22,"female","native","psychology","2","1","TRating",44,"Die italienische Flagge wurde von Giuseppe Garibaldi entworfen.","SetB","false","no",NA,NA,3,635,2,580,2,860,NA,796,NA,NA,"",NA
"TEHT02","4",22,"female","native","psychology","2","1","TRating",45,"Die Band Oasis hat sich nach einem Fitness-Studio benannt.","SetC","true","yes",NA,NA,4,2266,1,648,2,822,2,538,NA,NA,"",NA
"TEHT02","4",22,"female","native","psychology","2","1","TRating",46,"Blaue Augen werden im Alter immer heller.","SetC","true","yes",NA,NA,2,3648,1,506,2,516,1,1137,NA,NA,"",NA
"TEHT02","4",22,"female","native","psychology","2","1","TRating",47,"Die in Südamerika beheimatete Kammspinne zählt zu den drei giftigsten Spinnenarten der Welt.","SetB","true","no",NA,NA,5,766,2,1091,2,993,NA,1137,NA,NA,"",NA
"TEHT02","4",22,"female","native","psychology","2","1","TRating",48,"Die Hälfte der Bürger Albaniens ist jünger als 30 Jahre.","SetB","false","no",NA,NA,4,1260,1,1136,2,2073,3,700,NA,NA,"",NA
"TEHT02","4",22,"female","native","psychology","2","1","TRating",49,"Die Norfolkinseln im Pazifik gehören zu Neuseeland. ","SetA","false","yes",NA,NA,3,5516,2,1446,2,1947,NA,700,NA,NA,"",NA
"TEHT02","4",22,"female","native","psychology","2","1","TRating",50,"Alle Uhren im Film Pulp Fiction stehen auf 4.10 Uhr.","SetC","false","yes",NA,NA,4,2990,1,752,2,647,2,1179,NA,NA,"",NA
"TEHT02","4",22,"female","native","psychology","2","1","TRating",51,"In Bolivien liegt der höchstgelegene Regierungssitz der Welt.","SetB","true","no",NA,NA,3,1839,2,728,2,999,NA,1179,NA,NA,"",NA
"TEHT02","4",22,"female","native","psychology","2","1","TRating",52,"Jean-Jaques Rousseau war alleinerziehender Vater.","SetC","false","yes",NA,NA,4,639,1,515,2,800,2,473,NA,NA,"",NA
"TEHT02","4",22,"female","native","psychology","2","1","TRating",53,"In Griechenland gilt  nicht Freitag der 13., sondern Mittwoch der 13. als Unglückstag.","SetC","false","yes",NA,NA,4,2402,1,1207,2,730,1,561,NA,NA,"",NA
"TEHT02","4",22,"female","native","psychology","2","1","TRating",54,"Die Wüste Dahna liegt in Saudi-Arabien.","SetC","true","yes",NA,NA,4,10798,1,2379,2,859,3,1540,NA,NA,"",NA
"TEHT02","4",22,"female","native","psychology","2","1","TRating",55,"Papst Johannes Paul II. wurde seinerzeit als Mann des Jahres ausgezeichnet.","SetC","false","yes",NA,NA,4,2465,1,574,2,894,3,584,NA,NA,"",NA
"TEHT02","4",22,"female","native","psychology","2","1","TRating",56,"Der Durchmesser des Wurfkreises beim Diskuswerfen beträgt 2,5 m","SetA","true","yes",NA,NA,3,1564,2,448,2,605,NA,584,NA,NA,"",NA
"TEHT02","4",22,"female","native","psychology","2","1","TRating",57,"Die längsten Opern stammen von Gioacchino Rossini.","SetC","false","yes",NA,NA,2,859,2,793,2,722,NA,584,NA,NA,"",NA
"TEHT02","4",22,"female","native","psychology","2","1","TRating",58,"Das Schnabeltier gehört nicht zur Gattung der Säugetiere.","SetA","false","yes",NA,NA,2,1844,1,1305,2,716,2,783,NA,NA,"",NA
"TEHT02","4",22,"female","native","psychology","2","1","TRating",59,"Die Tanne ist der Nadelbaum mit den längsten Nadeln.","SetB","false","no",NA,NA,3,1619,2,411,2,475,NA,783,NA,NA,"",NA
"TEHT02","4",22,"female","native","psychology","2","1","TRating",60,"Der See Genezareth ist das tiefst gelegenste stehende Gewässer der Erde.","SetC","false","yes",NA,NA,3,790,1,732,2,976,3,952,NA,NA,"",NA
"TEHT02","4",22,"female","native","psychology","2","1","TRating",61,"Ende 2003 waren in Deutschland 15 Atomkraftwerke am Netz. ","SetB","false","no",NA,NA,3,621,2,540,2,701,NA,952,NA,NA,"",NA
"TEHT02","4",22,"female","native","psychology","2","1","TRating",62,"März und April sind die heißesten Monate auf den Malediven","SetA","true","yes",NA,NA,3,1068,1,692,2,1578,3,1043,NA,NA,"",NA
"TEHT02","4",22,"female","native","psychology","2","1","TRating",63,"Das Gehäuse des ersten Apple Computers bestand aus Aluminium.","SetC","false","yes",NA,NA,4,21403,2,306,2,867,NA,1043,NA,NA,"",NA
"TEHT02","4",22,"female","native","psychology","2","1","TRating",64,"Jimmy Carter war der einzige geschiedene US-Präsident.","SetC","false","yes",NA,NA,3,674,2,546,2,1065,NA,1043,NA,NA,"",NA
"TEHT02","4",22,"female","native","psychology","2","1","TRating",65,"Die Torstangen im Eishockey sind rot.","SetC","true","yes",NA,NA,3,1823,2,550,2,604,NA,1043,NA,NA,"",NA
"TEHT02","4",22,"female","native","psychology","2","1","TRating",66,"Ein neugeborenes Panda-Baby ist kleiner als eine Maus.","SetA","true","yes",NA,NA,4,1197,1,553,2,982,1,605,NA,NA,"",NA
"TEHT02","4",22,"female","native","psychology","2","1","TRating",67,"Der Pavane ist ein spanisch-italienischer Volkstanz aus dem 16. Jahrhundert.","SetA","true","yes",NA,NA,3,629,1,558,2,1430,3,603,NA,NA,"",NA
"TEHT02","4",22,"female","native","psychology","2","1","TRating",68,"Eine Stubenfliege hat eine maximale Lebensdauer von 70 Tagen.","SetB","true","no",NA,NA,4,1110,2,906,2,591,NA,603,NA,NA,"",NA
"TEHT02","4",22,"female","native","psychology","2","1","TRating",69,"Ein Dingo kann länger ohne Wasser leben als ein Kamel.","SetA","false","yes",NA,NA,3,2329,1,1124,2,467,2,313,NA,NA,"",NA
"TEHT02","4",22,"female","native","psychology","2","1","TRating",70,"Mitgliedern der Nazi-SS wurde ihre Blutgruppe in die Achselhöhle tätowiert.","SetB","true","no",NA,NA,6,1561,2,735,1,2908,NA,313,NA,NA,"",NA
"TEHT02","4",22,"female","native","psychology","2","1","TRating",71,"Der spanische Ex-Diktator Francisco Franco hatte den Beinamen Conducator.","SetA","false","yes",NA,NA,3,503,2,1642,2,1284,NA,313,NA,NA,"",NA
"TEHT02","4",22,"female","native","psychology","2","1","TRating",72,"Das Jojo war ursprünglich eine philippinische Jagdwaffe.","SetA","true","yes",NA,NA,3,3867,1,540,2,2086,1,610,NA,NA,"",NA
"TEHT02","4",22,"female","native","psychology","2","1","TRating",73,"Der erste Bordcomputer für Autos wurde in Amerika entwickelt. ","SetA","false","yes",NA,NA,4,1325,1,2452,2,1745,2,642,NA,NA,"",NA
"TEHT02","4",22,"female","native","psychology","2","1","TRating",74,"Die Erde wird in 360 Längengrade unterteilt.","SetC","true","yes",NA,NA,3,7637,2,552,2,588,NA,642,NA,NA,"",NA
"TEHT02","4",22,"female","native","psychology","2","1","TRating",75,"Volleyball wurde in Florida erfunden.","SetB","false","no",NA,NA,4,2494,1,1721,2,914,2,860,NA,NA,"",NA
"TEHT02","4",22,"female","native","psychology","2","1","TRating",76,"Ein Schwan trägt ca. 50.000 Federn am Körper.","SetB","false","no",NA,NA,4,549,2,1015,2,1330,NA,860,NA,NA,"",NA
"TEHT02","4",22,"female","native","psychology","2","1","TRating",77,"Laut WHO sind Krebserkrankungen die häufigste Todesursache.  ","SetA","false","yes",NA,NA,4,1177,2,476,2,469,NA,860,NA,NA,"",NA
"TEHT02","4",22,"female","native","psychology","2","1","TRating",78,"Spanholz besteht hauptsächlich aus Birkenholz.","SetC","true","yes",NA,NA,1,717,2,656,2,906,NA,860,NA,NA,"",NA
"TEHT02","4",22,"female","native","psychology","2","1","TRating",79,"Bob Dylan arbeitet nebenberuflich als Winzer.","SetA","true","yes",NA,NA,3,2314,2,587,2,918,NA,860,NA,NA,"",NA
"TEHT02","4",22,"female","native","psychology","2","1","TRating",80,"In Uganda ist die Amtssprache Englisch.","SetB","true","no",NA,NA,5,2223,1,351,2,864,3,637,NA,NA,"",NA
"TEHT02","4",22,"female","native","psychology","2","1","TRating",81,"Das Domino-Spiel besteht aus 28 Steinen.","SetA","true","yes",NA,NA,3,15966,2,657,2,597,NA,637,NA,NA,"",NA
"TEHT02","4",22,"female","native","psychology","2","1","TRating",82,"Tuberkulose wird durch Viren übertragen.","SetB","false","no",NA,NA,5,8298,2,622,2,462,NA,637,NA,NA,"",NA
"TEHT02","4",22,"female","native","psychology","2","1","TRating",83,"Kleinohrigel haben keine Stacheln.","SetC","false","yes",NA,NA,2,8864,1,2487,2,1029,1,668,NA,NA,"",NA
"TEHT02","4",22,"female","native","psychology","2","1","TRating",84,"Freddie Mercurys richtiger Name lautete Farrokh Bulsara.","SetA","true","yes",NA,NA,2,33091,2,1266,2,1183,NA,668,NA,NA,"",NA
"TEHT02","4",22,"female","native","psychology","2","1","TRating",85,"Schären sind Talgletscher in Skandinavien.","SetB","false","no",NA,NA,3,834,2,436,2,652,NA,668,NA,NA,"",NA
"TEHT02","4",22,"female","native","psychology","2","1","TRating",86,"Karl Marx wurde in London begraben.","SetC","true","yes",NA,NA,1,16334,2,2066,2,5966,NA,668,NA,NA,"",NA
"TEHT02","4",22,"female","native","psychology","2","1","TRating",87,"Das hawaiianische Alphabet besteht aus nur 12 Buchstaben.","SetB","true","no",NA,NA,2,1083,2,663,2,913,NA,668,NA,NA,"",NA
"TEHT02","4",22,"female","native","psychology","2","1","TRating",88,"Moritz Bleibtreu und Heike Makatsch wurden am gleichen Tag geboren.","SetC","true","yes",NA,NA,3,1321,1,1596,2,860,3,933,NA,NA,"",NA
"TEHT02","4",22,"female","native","psychology","2","1","Questions",89,"","",NA,NA,NA,NA,NA,NA,NA,NA,NA,NA,NA,NA,"informed","no","",NA
"TEHT02","4",22,"female","native","psychology","2","1","Questions",90,"","",NA,NA,NA,NA,NA,NA,NA,NA,NA,NA,NA,NA,"hypothesis","yes","ValiditätsEffekt, je häufiger man eine Aussagen präsentiert bekommt, desto eher befindet man diese für wahr. Besonders bei lebhafter Erinerung. ",NA
"TEHT02","5",20,"female","native","soziologie","1","2","Buffer",22,"Die Luftröhre eines Menschen ist durchschnittlich 24 cm lang. ","Buffer","false",NA,2,4415,NA,NA,NA,NA,NA,NA,NA,NA,NA,NA,NA,NA
