{"publication_data":{"authors":"Stump, Rummel, Voss","first_author":"Stump","title":"Is it all about the feeling? Afective and (meta‑)cognitive mechanisms underlying the truth efect","apa_reference":"Stump, A., Rummel, J. & Voss, A. Is it all about the feeling? Affective and (meta-)cognitive mechanisms underlying the truth effect. Psychological Research (2021). doi: 10.1007/s00426-020-01459-1","conducted":"2021","country":"Germany","keywords":"truth effect, fluency, affect","contact":"annika.stump@psychologie.uni-freiburg.de"},"study_info":{"0":{"study_data":{"truth_rating_scale":"dichotomous","truth_rating_scale_details":"","truth_rating_steps":"2","subjective_certainty":"1","rt_measured":"1","rt_onset":"certainty stim","n_participants":"75","participant_age":"21.56","percentage_female":"68","physiological_measures":"0","cognitive_models":"0","open_data_link":"some lijnk","study_comment":"","statementset_name":"no information","secondary_tasks":"1","secondary_task_type":"verbal","secondary_task_name":"test"},"repetition_data":{"0":{"repetition_identifier":"1","repetition_time":"10","repetition_location":"lab","repetition_type":"exact","max_n_repetitions":"1","n_statements":"132","truth_instructions":"0","truth_instruction_timing":"","presentation_time_s":"","presented_until_response":"1","response_deadline":"0","response_deadline_s":"","percent_repeated":"50","presentation_type":"visual","phase":"test","repetition_instructions":"0","repetition_instruction_timing":""},"1":{"repetition_identifier":"2","repetition_time":"10080","repetition_location":"lab","repetition_type":"exact","max_n_repetitions":"1","n_statements":"132","truth_instructions":"0","truth_instruction_timing":"","presentation_time_s":"","presented_until_response":"1","response_deadline":"0","response_deadline_s":"","percent_repeated":"50","presentation_type":"visual","phase":"test","repetition_instructions":"0","repetition_instruction_timing":""}},"condition_data":{"has_within_conditions":"0","within_condition_details":"","has_between_conditions":"1","between_condition_details":[{"name":"control group","identifier":"0"},{"name":"affective priming group","identifier":"1"}]},"measurement_data":{"measures":[{"construct":"need for cognitive closure","details":"NCC"}],"additional_measures":"1"},"raw_data":[{"":1,"subject":2,"presentation_identifier":2,"trial":1,"between_identifier":0,"statement_identifier":1,"repeated":0,"rt":0.933,"response":1,"certainty":3},{"":2,"subject":2,"presentation_identifier":2,"trial":2,"between_identifier":0,"statement_identifier":2,"repeated":0,"rt":1.985,"response":0,"certainty":1},{"":3,"subject":2,"presentation_identifier":2,"trial":3,"between_identifier":0,"statement_identifier":3,"repeated":0,"rt":2.019,"response":0,"certainty":1},{"":4,"subject":2,"presentation_identifier":2,"trial":4,"between_identifier":0,"statement_identifier":4,"repeated":1,"rt":0.694,"response":1,"certainty":2},{"":5,"subject":2,"presentation_identifier":2,"trial":5,"between_identifier":0,"statement_identifier":5,"repeated":1,"rt":1.494,"response":0,"certainty":2},{"":6,"subject":2,"presentation_identifier":2,"trial":6,"between_identifier":0,"statement_identifier":6,"repeated":0,"rt":0.493,"response":1,"certainty":5},{"":7,"subject":2,"presentation_identifier":2,"trial":7,"between_identifier":0,"statement_identifier":7,"repeated":1,"rt":0.526,"response":1,"certainty":5},{"":8,"subject":2,"presentation_identifier":2,"trial":8,"between_identifier":0,"statement_identifier":8,"repeated":1,"rt":0.319,"response":1,"certainty":5},{"":9,"subject":2,"presentation_identifier":2,"trial":9,"between_identifier":0,"statement_identifier":9,"repeated":1,"rt":0.303,"response":1,"certainty":5},{"":10,"subject":2,"presentation_identifier":2,"trial":10,"between_identifier":0,"statement_identifier":10,"repeated":0,"rt":0.287,"response":0,"certainty":5},{"":11,"subject":2,"presentation_identifier":2,"trial":11,"between_identifier":0,"statement_identifier":11,"repeated":1,"rt":0.582,"response":1,"certainty":5},{"":12,"subject":2,"presentation_identifier":2,"trial":12,"between_identifier":0,"statement_identifier":12,"repeated":0,"rt":0.438,"response":1,"certainty":6},{"":13,"subject":2,"presentation_identifier":2,"trial":13,"between_identifier":0,"statement_identifier":13,"repeated":0,"rt":0.912,"response":1,"certainty":2},{"":14,"subject":2,"presentation_identifier":2,"trial":14,"between_identifier":0,"statement_identifier":14,"repeated":1,"rt":0.268,"response":1,"certainty":2},{"":15,"subject":2,"presentation_identifier":2,"trial":15,"between_identifier":0,"statement_identifier":15,"repeated":1,"rt":0.495,"response":0,"certainty":1},{"":16,"subject":2,"presentation_identifier":2,"trial":16,"between_identifier":0,"statement_identifier":16,"repeated":0,"rt":1.894,"response":0,"certainty":2},{"":17,"subject":2,"presentation_identifier":2,"trial":17,"between_identifier":0,"statement_identifier":17,"repeated":1,"rt":1.462,"response":1,"certainty":2},{"":18,"subject":2,"presentation_identifier":2,"trial":18,"between_identifier":0,"statement_identifier":18,"repeated":0,"rt":3.597,"response":1,"certainty":2},{"":19,"subject":2,"presentation_identifier":2,"trial":19,"between_identifier":0,"statement_identifier":19,"repeated":1,"rt":2.572,"response":1,"certainty":2},{"":20,"subject":2,"presentation_identifier":2,"trial":20,"between_identifier":0,"statement_identifier":20,"repeated":0,"rt":0.577,"response":0,"certainty":1},{"":21,"subject":2,"presentation_identifier":2,"trial":21,"between_identifier":0,"statement_identifier":21,"repeated":0,"rt":1.077,"response":1,"certainty":1},{"":22,"subject":2,"presentation_identifier":2,"trial":22,"between_identifier":0,"statement_identifier":22,"repeated":1,"rt":0.367,"response":1,"certainty":5},{"":23,"subject":2,"presentation_identifier":2,"trial":23,"between_identifier":0,"statement_identifier":23,"repeated":1,"rt":0.713,"response":1,"certainty":5},{"":24,"subject":2,"presentation_identifier":2,"trial":24,"between_identifier":0,"statement_identifier":24,"repeated":0,"rt":2.247,"response":1,"certainty":2},{"":25,"subject":2,"presentation_identifier":2,"trial":25,"between_identifier":0,"statement_identifier":25,"repeated":0,"rt":1.678,"response":0,"certainty":1},{"":26,"subject":2,"presentation_identifier":2,"trial":26,"between_identifier":0,"statement_identifier":26,"repeated":1,"rt":0.087,"response":1,"certainty":2},{"":27,"subject":2,"presentation_identifier":2,"trial":27,"between_identifier":0,"statement_identifier":27,"repeated":1,"rt":2.246,"response":1,"certainty":2},{"":28,"subject":2,"presentation_identifier":2,"trial":28,"between_identifier":0,"statement_identifier":28,"repeated":0,"rt":0.342,"response":1,"certainty":2},{"":29,"subject":2,"presentation_identifier":2,"trial":29,"between_identifier":0,"statement_identifier":29,"repeated":0,"rt":1.02,"response":1,"certainty":1},{"":30,"subject":2,"presentation_identifier":2,"trial":30,"between_identifier":0,"statement_identifier":30,"repeated":1,"rt":0.308,"response":1,"certainty":2},{"":31,"subject":2,"presentation_identifier":2,"trial":31,"between_identifier":0,"statement_identifier":31,"repeated":0,"rt":0.549,"response":1,"certainty":2},{"":32,"subject":2,"presentation_identifier":2,"trial":32,"between_identifier":0,"statement_identifier":32,"repeated":1,"rt":1.073,"response":1,"certainty":5},{"":33,"subject":2,"presentation_identifier":2,"trial":33,"between_identifier":0,"statement_identifier":33,"repeated":1,"rt":0.35,"response":1,"certainty":6},{"":34,"subject":2,"presentation_identifier":2,"trial":34,"between_identifier":0,"statement_identifier":34,"repeated":1,"rt":0.46,"response":1,"certainty":1},{"":35,"subject":2,"presentation_identifier":2,"trial":35,"between_identifier":0,"statement_identifier":35,"repeated":0,"rt":0.73,"response":1,"certainty":1},{"":36,"subject":2,"presentation_identifier":2,"trial":36,"between_identifier":0,"statement_identifier":36,"repeated":0,"rt":0.303,"response":0,"certainty":2},{"":37,"subject":2,"presentation_identifier":2,"trial":37,"between_identifier":0,"statement_identifier":37,"repeated":1,"rt":0.109,"response":1,"certainty":5},{"":38,"subject":2,"presentation_identifier":2,"trial":38,"between_identifier":0,"statement_identifier":38,"repeated":1,"rt":1.588,"response":1,"certainty":2},{"":39,"subject":2,"presentation_identifier":2,"trial":39,"between_identifier":0,"statement_identifier":39,"repeated":1,"rt":1.219,"response":0,"certainty":5},{"":40,"subject":2,"presentation_identifier":2,"trial":40,"between_identifier":0,"statement_identifier":40,"repeated":0,"rt":0.284,"response":0,"certainty":1},{"":41,"subject":2,"presentation_identifier":2,"trial":41,"between_identifier":0,"statement_identifier":41,"repeated":0,"rt":0.53,"response":1,"certainty":2},{"":42,"subject":2,"presentation_identifier":2,"trial":42,"between_identifier":0,"statement_identifier":42,"repeated":0,"rt":0.771,"response":0,"certainty":2},{"":43,"subject":2,"presentation_identifier":2,"trial":43,"between_identifier":0,"statement_identifier":43,"repeated":0,"rt":1.605,"response":1,"certainty":2},{"":44,"subject":2,"presentation_identifier":2,"trial":44,"between_identifier":0,"statement_identifier":44,"repeated":0,"rt":0.826,"response":1,"certainty":2},{"":45,"subject":2,"presentation_identifier":2,"trial":45,"between_identifier":0,"statement_identifier":45,"repeated":0,"rt":0.287,"response":1,"certainty":5},{"":46,"subject":2,"presentation_identifier":2,"trial":46,"between_identifier":0,"statement_identifier":46,"repeated":1,"rt":0.395,"response":1,"certainty":5},{"":47,"subject":2,"presentation_identifier":2,"trial":47,"between_identifier":0,"statement_identifier":47,"repeated":1,"rt":0.375,"response":1,"certainty":2},{"":48,"subject":2,"presentation_identifier":2,"trial":48,"between_identifier":0,"statement_identifier":48,"repeated":0,"rt":0.372,"response":1,"certainty":3},{"":49,"subject":2,"presentation_identifier":2,"trial":49,"between_identifier":0,"statement_identifier":49,"repeated":1,"rt":0.375,"response":1,"certainty":2},{"":50,"subject":2,"presentation_identifier":2,"trial":50,"between_identifier":0,"statement_identifier":50,"repeated":1,"rt":0.253,"response":1,"certainty":5},{"":51,"subject":2,"presentation_identifier":2,"trial":51,"between_identifier":0,"statement_identifier":51,"repeated":0,"rt":2.035,"response":1,"certainty":5},{"":52,"subject":2,"presentation_identifier":2,"trial":52,"between_identifier":0,"statement_identifier":52,"repeated":1,"rt":3.95,"response":1,"certainty":6},{"":53,"subject":2,"presentation_identifier":2,"trial":53,"between_identifier":0,"statement_identifier":53,"repeated":0,"rt":0.835,"response":1,"certainty":2},{"":54,"subject":2,"presentation_identifier":2,"trial":54,"between_identifier":0,"statement_identifier":54,"repeated":0,"rt":0.435,"response":1,"certainty":5},{"":55,"subject":2,"presentation_identifier":2,"trial":55,"between_identifier":0,"statement_identifier":55,"repeated":1,"rt":0.412,"response":1,"certainty":5},{"":56,"subject":2,"presentation_identifier":2,"trial":56,"between_identifier":0,"statement_identifier":56,"repeated":1,"rt":3.129,"response":1,"certainty":1},{"":57,"subject":2,"presentation_identifier":2,"trial":57,"between_identifier":0,"statement_identifier":57,"repeated":0,"rt":1.509,"response":1,"certainty":2},{"":58,"subject":2,"presentation_identifier":2,"trial":58,"between_identifier":0,"statement_identifier":58,"repeated":1,"rt":2.974,"response":1,"certainty":1},{"":59,"subject":2,"presentation_identifier":2,"trial":59,"between_identifier":0,"statement_identifier":59,"repeated":1,"rt":0.269,"response":0,"certainty":2},{"":60,"subject":2,"presentation_identifier":2,"trial":60,"between_identifier":0,"statement_identifier":60,"repeated":0,"rt":2.798,"response":0,"certainty":1},{"":61,"subject":4,"presentation_identifier":2,"trial":1,"between_identifier":0,"statement_identifier":36,"repeated":1,"rt":1.058,"response":0,"certainty":3},{"":62,"subject":4,"presentation_identifier":2,"trial":2,"between_identifier":0,"statement_identifier":5,"repeated":0,"rt":2.196,"response":1,"certainty":2},{"":63,"subject":4,"presentation_identifier":2,"trial":3,"between_identifier":0,"statement_identifier":45,"repeated":1,"rt":1.051,"response":1,"certainty":4},{"":64,"subject":4,"presentation_identifier":2,"trial":4,"between_identifier":0,"statement_identifier":52,"repeated":0,"rt":1.365,"response":0,"certainty":5},{"":65,"subject":4,"presentation_identifier":2,"trial":5,"between_identifier":0,"statement_identifier":33,"repeated":0,"rt":3.409,"response":0,"certainty":2},{"":66,"subject":4,"presentation_identifier":2,"trial":6,"between_identifier":0,"statement_identifier":15,"repeated":0,"rt":1.101,"response":1,"certainty":3},{"":67,"subject":4,"presentation_identifier":2,"trial":7,"between_identifier":0,"statement_identifier":6,"repeated":1,"rt":2.379,"response":1,"certainty":5},{"":68,"subject":4,"presentation_identifier":2,"trial":8,"between_identifier":0,"statement_identifier":47,"repeated":0,"rt":2.842,"response":0,"certainty":1},{"":69,"subject":4,"presentation_identifier":2,"trial":9,"between_identifier":0,"statement_identifier":26,"repeated":0,"rt":1.412,"response":1,"certainty":3},{"":70,"subject":4,"presentation_identifier":2,"trial":10,"between_identifier":0,"statement_identifier":37,"repeated":0,"rt":1.26,"response":1,"certainty":3},{"":71,"subject":4,"presentation_identifier":2,"trial":11,"between_identifier":0,"statement_identifier":35,"repeated":1,"rt":1.89,"response":1,"certainty":5},{"":72,"subject":4,"presentation_identifier":2,"trial":12,"between_identifier":0,"statement_identifier":40,"repeated":1,"rt":0.584,"response":1,"certainty":4},{"":73,"subject":4,"presentation_identifier":2,"trial":13,"between_identifier":0,"statement_identifier":53,"repeated":1,"rt":0.497,"response":0,"certainty":3},{"":74,"subject":4,"presentation_identifier":2,"trial":14,"between_identifier":0,"statement_identifier":23,"repeated":0,"rt":2.628,"response":1,"certainty":5},{"":75,"subject":4,"presentation_identifier":2,"trial":15,"between_identifier":0,"statement_identifier":41,"repeated":1,"rt":0.7,"response":0,"certainty":6},{"":76,"subject":4,"presentation_identifier":2,"trial":16,"between_identifier":0,"statement_identifier":27,"repeated":0,"rt":1.475,"response":0,"certainty":3},{"":77,"subject":4,"presentation_identifier":2,"trial":17,"between_identifier":0,"statement_identifier":49,"repeated":0,"rt":1.826,"response":0,"certainty":5},{"":78,"subject":4,"presentation_identifier":2,"trial":18,"between_identifier":0,"statement_identifier":18,"repeated":1,"rt":0.354,"response":0,"certainty":6},{"":79,"subject":4,"presentation_identifier":2,"trial":19,"between_identifier":0,"statement_identifier":44,"repeated":1,"rt":0.336,"response":1,"certainty":5},{"":80,"subject":4,"presentation_identifier":2,"trial":20,"between_identifier":0,"statement_identifier":21,"repeated":1,"rt":0.302,"response":1,"certainty":4},{"":81,"subject":4,"presentation_identifier":2,"trial":21,"between_identifier":0,"statement_identifier":30,"repeated":0,"rt":0.292,"response":1,"certainty":5},{"":82,"subject":4,"presentation_identifier":2,"trial":22,"between_identifier":0,"statement_identifier":29,"repeated":1,"rt":1.047,"response":0,"certainty":3},{"":83,"subject":4,"presentation_identifier":2,"trial":23,"between_identifier":0,"statement_identifier":32,"repeated":0,"rt":1.183,"response":1,"certainty":4},{"":84,"subject":4,"presentation_identifier":2,"trial":24,"between_identifier":0,"statement_identifier":51,"repeated":1,"rt":1.096,"response":1,"certainty":6},{"":85,"subject":4,"presentation_identifier":2,"trial":25,"between_identifier":0,"statement_identifier":20,"repeated":1,"rt":1.606,"response":1,"certainty":5},{"":86,"subject":4,"presentation_identifier":2,"trial":26,"between_identifier":0,"statement_identifier":4,"repeated":0,"rt":0.881,"response":1,"certainty":4},{"":87,"subject":4,"presentation_identifier":2,"trial":27,"between_identifier":0,"statement_identifier":31,"repeated":1,"rt":0.942,"response":0,"certainty":4},{"":88,"subject":4,"presentation_identifier":2,"trial":28,"between_identifier":0,"statement_identifier":11,"repeated":0,"rt":0.363,"response":1,"certainty":6},{"":89,"subject":4,"presentation_identifier":2,"trial":29,"between_identifier":0,"statement_identifier":48,"repeated":1,"rt":1.015,"response":1,"certainty":4},{"":90,"subject":4,"presentation_identifier":2,"trial":30,"between_identifier":0,"statement_identifier":10,"repeated":1,"rt":0.477,"response":0,"certainty":3},{"":91,"subject":4,"presentation_identifier":2,"trial":31,"between_identifier":0,"statement_identifier":57,"repeated":1,"rt":0.354,"response":1,"certainty":5},{"":92,"subject":4,"presentation_identifier":2,"trial":32,"between_identifier":0,"statement_identifier":60,"repeated":1,"rt":0.533,"response":0,"certainty":3},{"":93,"subject":4,"presentation_identifier":2,"trial":33,"between_identifier":0,"statement_identifier":16,"repeated":1,"rt":0.98,"response":0,"certainty":1},{"":94,"subject":4,"presentation_identifier":2,"trial":34,"between_identifier":0,"statement_identifier":1,"repeated":1,"rt":0.452,"response":1,"certainty":6},{"":95,"subject":4,"presentation_identifier":2,"trial":35,"between_identifier":0,"statement_identifier":46,"repeated":0,"rt":1.473,"response":1,"certainty":4},{"":96,"subject":4,"presentation_identifier":2,"trial":36,"between_identifier":0,"statement_identifier":39,"repeated":0,"rt":1.053,"response":0,"certainty":1},{"":97,"subject":4,"presentation_identifier":2,"trial":37,"between_identifier":0,"statement_identifier":28,"repeated":1,"rt":1.546,"response":1,"certainty":4},{"":98,"subject":4,"presentation_identifier":2,"trial":38,"between_identifier":0,"statement_identifier":7,"repeated":0,"rt":1.155,"response":1,"certainty":3},{"":99,"subject":4,"presentation_identifier":2,"trial":39,"between_identifier":0,"statement_identifier":3,"repeated":1,"rt":0.369,"response":1,"certainty":5},{"":100,"subject":4,"presentation_identifier":2,"trial":40,"between_identifier":0,"statement_identifier":54,"repeated":1,"rt":0.372,"response":1,"certainty":6},{"":101,"subject":4,"presentation_identifier":2,"trial":41,"between_identifier":0,"statement_identifier":58,"repeated":0,"rt":0.576,"response":1,"certainty":3},{"":102,"subject":4,"presentation_identifier":2,"trial":42,"between_identifier":0,"statement_identifier":13,"repeated":1,"rt":1.805,"response":0,"certainty":3},{"":103,"subject":4,"presentation_identifier":2,"trial":43,"between_identifier":0,"statement_identifier":19,"repeated":0,"rt":0.595,"response":0,"certainty":1},{"":104,"subject":4,"presentation_identifier":2,"trial":44,"between_identifier":0,"statement_identifier":24,"repeated":1,"rt":1.399,"response":1,"certainty":3},{"":105,"subject":4,"presentation_identifier":2,"trial":45,"between_identifier":0,"statement_identifier":42,"repeated":1,"rt":0.352,"response":1,"certainty":6},{"":106,"subject":4,"presentation_identifier":2,"trial":46,"between_identifier":0,"statement_identifier":14,"repeated":0,"rt":1.28,"response":1,"certainty":3},{"":107,"subject":4,"presentation_identifier":2,"trial":47,"between_identifier":0,"statement_identifier":25,"repeated":1,"rt":0.318,"response":1,"certainty":5},{"":108,"subject":4,"presentation_identifier":2,"trial":48,"between_identifier":0,"statement_identifier":9,"repeated":0,"rt":0.874,"response":1,"certainty":5},{"":109,"subject":4,"presentation_identifier":2,"trial":49,"between_identifier":0,"statement_identifier":59,"repeated":0,"rt":1.193,"response":0,"certainty":6},{"":110,"subject":4,"presentation_identifier":2,"trial":50,"between_identifier":0,"statement_identifier":17,"repeated":0,"rt":0.798,"response":1,"certainty":3},{"":111,"subject":4,"presentation_identifier":2,"trial":51,"between_identifier":0,"statement_identifier":22,"repeated":0,"rt":0.245,"response":0,"certainty":1},{"":112,"subject":4,"presentation_identifier":2,"trial":52,"between_identifier":0,"statement_identifier":50,"repeated":0,"rt":0.799,"response":1,"certainty":4},{"":113,"subject":4,"presentation_identifier":2,"trial":53,"between_identifier":0,"statement_identifier":55,"repeated":0,"rt":0.324,"response":1,"certainty":3},{"":114,"subject":4,"presentation_identifier":2,"trial":54,"between_identifier":0,"statement_identifier":8,"repeated":0,"rt":0.301,"response":1,"certainty":4},{"":115,"subject":4,"presentation_identifier":2,"trial":55,"between_identifier":0,"statement_identifier":56,"repeated":0,"rt":0.514,"response":0,"certainty":2},{"":116,"subject":4,"presentation_identifier":2,"trial":56,"between_identifier":0,"statement_identifier":12,"repeated":1,"rt":0.413,"response":1,"certainty":5},{"":117,"subject":4,"presentation_identifier":2,"trial":57,"between_identifier":0,"statement_identifier":43,"repeated":1,"rt":0.339,"response":1,"certainty":6},{"":118,"subject":4,"presentation_identifier":2,"trial":58,"between_identifier":0,"statement_identifier":2,"repeated":1,"rt":0.349,"response":1,"certainty":6},{"":119,"subject":4,"presentation_identifier":2,"trial":59,"between_identifier":0,"statement_identifier":38,"repeated":0,"rt":0.857,"response":1,"certainty":3},{"":120,"subject":4,"presentation_identifier":2,"trial":60,"between_identifier":0,"statement_identifier":34,"repeated":0,"rt":0.489,"response":0,"certainty":1},{"":121,"subject":6,"presentation_identifier":2,"trial":1,"between_identifier":0,"statement_identifier":6,"repeated":0,"rt":3.977,"response":0,"certainty":4},{"":122,"subject":6,"presentation_identifier":2,"trial":2,"between_identifier":0,"statement_identifier":28,"repeated":0,"rt":10.122,"response":0,"certainty":6},{"":123,"subject":6,"presentation_identifier":2,"trial":3,"between_identifier":0,"statement_identifier":25,"repeated":0,"rt":0.97,"response":0,"certainty":2},{"":124,"subject":6,"presentation_identifier":2,"trial":4,"between_identifier":0,"statement_identifier":44,"repeated":0,"rt":4.109,"response":1,"certainty":4},{"":125,"subject":6,"presentation_identifier":2,"trial":5,"between_identifier":0,"statement_identifier":51,"repeated":0,"rt":1.866,"response":1,"certainty":4},{"":126,"subject":6,"presentation_identifier":2,"trial":6,"between_identifier":0,"statement_identifier":61,"repeated":1,"rt":1.788,"response":1,"certainty":5},{"":127,"subject":6,"presentation_identifier":2,"trial":7,"between_identifier":0,"statement_identifier":45,"repeated":0,"rt":3.277,"response":0,"certainty":6},{"":128,"subject":6,"presentation_identifier":2,"trial":8,"between_identifier":0,"statement_identifier":12,"repeated":0,"rt":1.611,"response":1,"certainty":6},{"":129,"subject":6,"presentation_identifier":2,"trial":9,"between_identifier":0,"statement_identifier":43,"repeated":0,"rt":2.68,"response":0,"certainty":1},{"":130,"subject":6,"presentation_identifier":2,"trial":10,"between_identifier":0,"statement_identifier":62,"repeated":1,"rt":4.54,"response":0,"certainty":6},{"":131,"subject":6,"presentation_identifier":2,"trial":11,"between_identifier":0,"statement_identifier":63,"repeated":1,"rt":1.222,"response":1,"certainty":3},{"":132,"subject":6,"presentation_identifier":2,"trial":12,"between_identifier":0,"statement_identifier":64,"repeated":1,"rt":1.131,"response":0,"certainty":5},{"":133,"subject":6,"presentation_identifier":2,"trial":13,"between_identifier":0,"statement_identifier":65,"repeated":1,"rt":5.611,"response":0,"certainty":4},{"":134,"subject":6,"presentation_identifier":2,"trial":14,"between_identifier":0,"statement_identifier":2,"repeated":0,"rt":8,"response":1,"certainty":1},{"":135,"subject":6,"presentation_identifier":2,"trial":15,"between_identifier":0,"statement_identifier":20,"repeated":0,"rt":1.333,"response":0,"certainty":6},{"":136,"subject":6,"presentation_identifier":2,"trial":16,"between_identifier":0,"statement_identifier":66,"repeated":1,"rt":11.947,"response":0,"certainty":3},{"":137,"subject":6,"presentation_identifier":2,"trial":17,"between_identifier":0,"statement_identifier":67,"repeated":1,"rt":6.683,"response":1,"certainty":4},{"":138,"subject":6,"presentation_identifier":2,"trial":18,"between_identifier":0,"statement_identifier":48,"repeated":0,"rt":2.39,"response":0,"certainty":5},{"":139,"subject":6,"presentation_identifier":2,"trial":19,"between_identifier":0,"statement_identifier":68,"repeated":1,"rt":4.02,"response":1,"certainty":1},{"":140,"subject":6,"presentation_identifier":2,"trial":20,"between_identifier":0,"statement_identifier":31,"repeated":0,"rt":1.411,"response":1,"certainty":3},{"":141,"subject":6,"presentation_identifier":2,"trial":21,"between_identifier":0,"statement_identifier":69,"repeated":1,"rt":1.497,"response":0,"certainty":6},{"":142,"subject":6,"presentation_identifier":2,"trial":22,"between_identifier":0,"statement_identifier":53,"repeated":0,"rt":3.257,"response":1,"certainty":4},{"":143,"subject":6,"presentation_identifier":2,"trial":23,"between_identifier":0,"statement_identifier":24,"repeated":0,"rt":2.691,"response":0,"certainty":5},{"":144,"subject":6,"presentation_identifier":2,"trial":24,"between_identifier":0,"statement_identifier":16,"repeated":0,"rt":8.039,"response":0,"certainty":5},{"":145,"subject":6,"presentation_identifier":2,"trial":25,"between_identifier":0,"statement_identifier":70,"repeated":1,"rt":8.005,"response":0,"certainty":5},{"":146,"subject":6,"presentation_identifier":2,"trial":26,"between_identifier":0,"statement_identifier":57,"repeated":0,"rt":5,"response":1,"certainty":1},{"":147,"subject":6,"presentation_identifier":2,"trial":27,"between_identifier":0,"statement_identifier":13,"repeated":0,"rt":1.645,"response":0,"certainty":6},{"":148,"subject":6,"presentation_identifier":2,"trial":28,"between_identifier":0,"statement_identifier":40,"repeated":0,"rt":1.324,"response":1,"certainty":5},{"":149,"subject":6,"presentation_identifier":2,"trial":29,"between_identifier":0,"statement_identifier":71,"repeated":1,"rt":1.982,"response":0,"certainty":5},{"":150,"subject":6,"presentation_identifier":2,"trial":30,"between_identifier":0,"statement_identifier":72,"repeated":1,"rt":3.998,"response":0,"certainty":5},{"":151,"subject":6,"presentation_identifier":2,"trial":31,"between_identifier":0,"statement_identifier":10,"repeated":0,"rt":13.103,"response":0,"certainty":5},{"":152,"subject":6,"presentation_identifier":2,"trial":32,"between_identifier":0,"statement_identifier":73,"repeated":1,"rt":6.092,"response":1,"certainty":4},{"":153,"subject":6,"presentation_identifier":2,"trial":33,"between_identifier":0,"statement_identifier":74,"repeated":1,"rt":1.98,"response":0,"certainty":3},{"":154,"subject":6,"presentation_identifier":2,"trial":34,"between_identifier":0,"statement_identifier":18,"repeated":0,"rt":2.02,"response":1,"certainty":6},{"":155,"subject":6,"presentation_identifier":2,"trial":35,"between_identifier":0,"statement_identifier":75,"repeated":1,"rt":2.987,"response":1,"certainty":2},{"":156,"subject":6,"presentation_identifier":2,"trial":36,"between_identifier":0,"statement_identifier":54,"repeated":0,"rt":9.686,"response":1,"certainty":2},{"":157,"subject":6,"presentation_identifier":2,"trial":37,"between_identifier":0,"statement_identifier":1,"repeated":0,"rt":1.195,"response":0,"certainty":6},{"":158,"subject":6,"presentation_identifier":2,"trial":38,"between_identifier":0,"statement_identifier":76,"repeated":1,"rt":1.025,"response":1,"certainty":3},{"":159,"subject":6,"presentation_identifier":2,"trial":39,"between_identifier":0,"statement_identifier":77,"repeated":1,"rt":6.043,"response":1,"certainty":1},{"":160,"subject":6,"presentation_identifier":2,"trial":40,"between_identifier":0,"statement_identifier":41,"repeated":0,"rt":4.316,"response":1,"certainty":3},{"":161,"subject":6,"presentation_identifier":2,"trial":41,"between_identifier":0,"statement_identifier":36,"repeated":0,"rt":4.295,"response":1,"certainty":4},{"":162,"subject":6,"presentation_identifier":2,"trial":42,"between_identifier":0,"statement_identifier":78,"repeated":1,"rt":1.22,"response":1,"certainty":3},{"":163,"subject":6,"presentation_identifier":2,"trial":43,"between_identifier":0,"statement_identifier":79,"repeated":1,"rt":1.376,"response":1,"certainty":5},{"":164,"subject":6,"presentation_identifier":2,"trial":44,"between_identifier":0,"statement_identifier":80,"repeated":1,"rt":1.303,"response":0,"certainty":3},{"":165,"subject":6,"presentation_identifier":2,"trial":45,"between_identifier":0,"statement_identifier":35,"repeated":0,"rt":3.269,"response":0,"certainty":6},{"":166,"subject":6,"presentation_identifier":2,"trial":46,"between_identifier":0,"statement_identifier":81,"repeated":1,"rt":7.874,"response":0,"certainty":4},{"":167,"subject":6,"presentation_identifier":2,"trial":47,"between_identifier":0,"statement_identifier":3,"repeated":0,"rt":1.05,"response":1,"certainty":2},{"":168,"subject":6,"presentation_identifier":2,"trial":48,"between_identifier":0,"statement_identifier":82,"repeated":1,"rt":5.167,"response":0,"certainty":6},{"":169,"subject":6,"presentation_identifier":2,"trial":49,"between_identifier":0,"statement_identifier":83,"repeated":1,"rt":1.228,"response":0,"certainty":5},{"":170,"subject":6,"presentation_identifier":2,"trial":50,"between_identifier":0,"statement_identifier":42,"repeated":0,"rt":0.845,"response":0,"certainty":4},{"":171,"subject":6,"presentation_identifier":2,"trial":51,"between_identifier":0,"statement_identifier":29,"repeated":0,"rt":1.615,"response":1,"certainty":1},{"":172,"subject":6,"presentation_identifier":2,"trial":52,"between_identifier":0,"statement_identifier":84,"repeated":1,"rt":2.414,"response":1,"certainty":3},{"":173,"subject":6,"presentation_identifier":2,"trial":53,"between_identifier":0,"statement_identifier":85,"repeated":1,"rt":7.989,"response":0,"certainty":4},{"":174,"subject":6,"presentation_identifier":2,"trial":54,"between_identifier":0,"statement_identifier":86,"repeated":1,"rt":1.154,"response":1,"certainty":2},{"":175,"subject":6,"presentation_identifier":2,"trial":55,"between_identifier":0,"statement_identifier":87,"repeated":1,"rt":1.253,"response":1,"certainty":6},{"":176,"subject":6,"presentation_identifier":2,"trial":56,"between_identifier":0,"statement_identifier":88,"repeated":1,"rt":1.764,"response":1,"certainty":1},{"":177,"subject":6,"presentation_identifier":2,"trial":57,"between_identifier":0,"statement_identifier":89,"repeated":1,"rt":1.132,"response":1,"certainty":6},{"":178,"subject":6,"presentation_identifier":2,"trial":58,"between_identifier":0,"statement_identifier":21,"repeated":0,"rt":1,"response":1,"certainty":5},{"":179,"subject":6,"presentation_identifier":2,"trial":59,"between_identifier":0,"statement_identifier":60,"repeated":0,"rt":1.178,"response":0,"certainty":4},{"":180,"subject":6,"presentation_identifier":2,"trial":60,"between_identifier":0,"statement_identifier":90,"repeated":1,"rt":1.406,"response":1,"certainty":4},{"":181,"subject":8,"presentation_identifier":2,"trial":1,"between_identifier":0,"statement_identifier":85,"repeated":0,"rt":3.673,"response":0,"certainty":1},{"":182,"subject":8,"presentation_identifier":2,"trial":2,"between_identifier":0,"statement_identifier":18,"repeated":1,"rt":8.716,"response":0,"certainty":1},{"":183,"subject":8,"presentation_identifier":2,"trial":3,"between_identifier":0,"statement_identifier":90,"repeated":0,"rt":5.744,"response":1,"certainty":1},{"":184,"subject":8,"presentation_identifier":2,"trial":4,"between_identifier":0,"statement_identifier":12,"repeated":1,"rt":5.12,"response":1,"certainty":2},{"":185,"subject":8,"presentation_identifier":2,"trial":5,"between_identifier":0,"statement_identifier":25,"repeated":1,"rt":5.674,"response":1,"certainty":1},{"":186,"subject":8,"presentation_identifier":2,"trial":6,"between_identifier":0,"statement_identifier":86,"repeated":0,"rt":4.581,"response":0,"certainty":1},{"":187,"subject":8,"presentation_identifier":2,"trial":7,"between_identifier":0,"statement_identifier":64,"repeated":0,"rt":3.96,"response":1,"certainty":3},{"":188,"subject":8,"presentation_identifier":2,"trial":8,"between_identifier":0,"statement_identifier":84,"repeated":0,"rt":1.129,"response":1,"certainty":2},{"":189,"subject":8,"presentation_identifier":2,"trial":9,"between_identifier":0,"statement_identifier":35,"repeated":1,"rt":9.509,"response":0,"certainty":1},{"":190,"subject":8,"presentation_identifier":2,"trial":10,"between_identifier":0,"statement_identifier":62,"repeated":0,"rt":11.115,"response":1,"certainty":3},{"":191,"subject":8,"presentation_identifier":2,"trial":11,"between_identifier":0,"statement_identifier":74,"repeated":0,"rt":6.54,"response":0,"certainty":4},{"":192,"subject":8,"presentation_identifier":2,"trial":12,"between_identifier":0,"statement_identifier":71,"repeated":0,"rt":1.543,"response":0,"certainty":1},{"":193,"subject":8,"presentation_identifier":2,"trial":13,"between_identifier":0,"statement_identifier":21,"repeated":1,"rt":1.487,"response":0,"certainty":3},{"":194,"subject":8,"presentation_identifier":2,"trial":14,"between_identifier":0,"statement_identifier":48,"repeated":1,"rt":2.868,"response":1,"certainty":2},{"":195,"subject":8,"presentation_identifier":2,"trial":15,"between_identifier":0,"statement_identifier":53,"repeated":1,"rt":2.969,"response":1,"certainty":3},{"":196,"subject":8,"presentation_identifier":2,"trial":16,"between_identifier":0,"statement_identifier":81,"repeated":0,"rt":2.408,"response":0,"certainty":1},{"":197,"subject":8,"presentation_identifier":2,"trial":17,"between_identifier":0,"statement_identifier":24,"repeated":1,"rt":2.142,"response":1,"certainty":1},{"":198,"subject":8,"presentation_identifier":2,"trial":18,"between_identifier":0,"statement_identifier":31,"repeated":1,"rt":8.908,"response":0,"certainty":1},{"":199,"subject":8,"presentation_identifier":2,"trial":19,"between_identifier":0,"statement_identifier":70,"repeated":0,"rt":3.673,"response":1,"certainty":1},{"":200,"subject":8,"presentation_identifier":2,"trial":20,"between_identifier":0,"statement_identifier":65,"repeated":0,"rt":1.778,"response":1,"certainty":3},{"":201,"subject":8,"presentation_identifier":2,"trial":21,"between_identifier":0,"statement_identifier":88,"repeated":0,"rt":1.504,"response":1,"certainty":4},{"":202,"subject":8,"presentation_identifier":2,"trial":22,"between_identifier":0,"statement_identifier":36,"repeated":1,"rt":9.794,"response":0,"certainty":1},{"":203,"subject":8,"presentation_identifier":2,"trial":23,"between_identifier":0,"statement_identifier":40,"repeated":1,"rt":3.825,"response":0,"certainty":1},{"":204,"subject":8,"presentation_identifier":2,"trial":24,"between_identifier":0,"statement_identifier":68,"repeated":0,"rt":10.193,"response":1,"certainty":1},{"":205,"subject":8,"presentation_identifier":2,"trial":25,"between_identifier":0,"statement_identifier":10,"repeated":1,"rt":3.012,"response":0,"certainty":1},{"":206,"subject":8,"presentation_identifier":2,"trial":26,"between_identifier":0,"statement_identifier":73,"repeated":0,"rt":2.242,"response":0,"certainty":2},{"":207,"subject":8,"presentation_identifier":2,"trial":27,"between_identifier":0,"statement_identifier":82,"repeated":0,"rt":7.371,"response":1,"certainty":3},{"":208,"subject":8,"presentation_identifier":2,"trial":28,"between_identifier":0,"statement_identifier":63,"repeated":0,"rt":3.768,"response":1,"certainty":2},{"":209,"subject":8,"presentation_identifier":2,"trial":29,"between_identifier":0,"statement_identifier":69,"repeated":0,"rt":1.303,"response":0,"certainty":1},{"":210,"subject":8,"presentation_identifier":2,"trial":30,"between_identifier":0,"statement_identifier":20,"repeated":1,"rt":4.731,"response":0,"certainty":1},{"":211,"subject":8,"presentation_identifier":2,"trial":31,"between_identifier":0,"statement_identifier":2,"repeated":1,"rt":3.894,"response":1,"certainty":1},{"":212,"subject":8,"presentation_identifier":2,"trial":32,"between_identifier":0,"statement_identifier":67,"repeated":0,"rt":1.519,"response":1,"certainty":3},{"":213,"subject":8,"presentation_identifier":2,"trial":33,"between_identifier":0,"statement_identifier":66,"repeated":0,"rt":1.729,"response":1,"certainty":1},{"":214,"subject":8,"presentation_identifier":2,"trial":34,"between_identifier":0,"statement_identifier":16,"repeated":1,"rt":2.368,"response":0,"certainty":1},{"":215,"subject":8,"presentation_identifier":2,"trial":35,"between_identifier":0,"statement_identifier":51,"repeated":1,"rt":2.486,"response":1,"certainty":2},{"":216,"subject":8,"presentation_identifier":2,"trial":36,"between_identifier":0,"statement_identifier":6,"repeated":1,"rt":6.576,"response":0,"certainty":3},{"":217,"subject":8,"presentation_identifier":2,"trial":37,"between_identifier":0,"statement_identifier":42,"repeated":1,"rt":1.394,"response":1,"certainty":1},{"":218,"subject":8,"presentation_identifier":2,"trial":38,"between_identifier":0,"statement_identifier":41,"repeated":1,"rt":0.874,"response":1,"certainty":1},{"":219,"subject":8,"presentation_identifier":2,"trial":39,"between_identifier":0,"statement_identifier":1,"repeated":1,"rt":3.816,"response":0,"certainty":1},{"":220,"subject":8,"presentation_identifier":2,"trial":40,"between_identifier":0,"statement_identifier":87,"repeated":0,"rt":1.156,"response":0,"certainty":3},{"":221,"subject":8,"presentation_identifier":2,"trial":41,"between_identifier":0,"statement_identifier":13,"repeated":1,"rt":0.431,"response":1,"certainty":1},{"":222,"subject":8,"presentation_identifier":2,"trial":42,"between_identifier":0,"statement_identifier":76,"repeated":0,"rt":1.809,"response":0,"certainty":1},{"":223,"subject":8,"presentation_identifier":2,"trial":43,"between_identifier":0,"statement_identifier":54,"repeated":1,"rt":0.649,"response":1,"certainty":1},{"":224,"subject":8,"presentation_identifier":2,"trial":44,"between_identifier":0,"statement_identifier":78,"repeated":0,"rt":1.423,"response":1,"certainty":1},{"":225,"subject":8,"presentation_identifier":2,"trial":45,"between_identifier":0,"statement_identifier":77,"repeated":0,"rt":2.581,"response":1,"certainty":2},{"":226,"subject":8,"presentation_identifier":2,"trial":46,"between_identifier":0,"statement_identifier":75,"repeated":0,"rt":2.443,"response":0,"certainty":2},{"":227,"subject":8,"presentation_identifier":2,"trial":47,"between_identifier":0,"statement_identifier":28,"repeated":1,"rt":2.662,"response":1,"certainty":1},{"":228,"subject":8,"presentation_identifier":2,"trial":48,"between_identifier":0,"statement_identifier":83,"repeated":0,"rt":1.873,"response":0,"certainty":1},{"":229,"subject":8,"presentation_identifier":2,"trial":49,"between_identifier":0,"statement_identifier":57,"repeated":1,"rt":2.051,"response":0,"certainty":1},{"":230,"subject":8,"presentation_identifier":2,"trial":50,"between_identifier":0,"statement_identifier":3,"repeated":1,"rt":2.768,"response":1,"certainty":1},{"":231,"subject":8,"presentation_identifier":2,"trial":51,"between_identifier":0,"statement_identifier":60,"repeated":1,"rt":2.123,"response":0,"certainty":1},{"":232,"subject":8,"presentation_identifier":2,"trial":52,"between_identifier":0,"statement_identifier":79,"repeated":0,"rt":1.466,"response":1,"certainty":2},{"":233,"subject":8,"presentation_identifier":2,"trial":53,"between_identifier":0,"statement_identifier":72,"repeated":0,"rt":3.296,"response":0,"certainty":2},{"":234,"subject":8,"presentation_identifier":2,"trial":54,"between_identifier":0,"statement_identifier":80,"repeated":0,"rt":3.022,"response":0,"certainty":1},{"":235,"subject":8,"presentation_identifier":2,"trial":55,"between_identifier":0,"statement_identifier":89,"repeated":0,"rt":3.844,"response":0,"certainty":1},{"":236,"subject":8,"presentation_identifier":2,"trial":56,"between_identifier":0,"statement_identifier":45,"repeated":1,"rt":2.499,"response":1,"certainty":1},{"":237,"subject":8,"presentation_identifier":2,"trial":57,"between_identifier":0,"statement_identifier":43,"repeated":1,"rt":1.74,"response":0,"certainty":1},{"":238,"subject":8,"presentation_identifier":2,"trial":58,"between_identifier":0,"statement_identifier":61,"repeated":0,"rt":4.286,"response":1,"certainty":2},{"":239,"subject":8,"presentation_identifier":2,"trial":59,"between_identifier":0,"statement_identifier":44,"repeated":1,"rt":5.165,"response":1,"certainty":1},{"":240,"subject":8,"presentation_identifier":2,"trial":60,"between_identifier":0,"statement_identifier":29,"repeated":1,"rt":1.278,"response":0,"certainty":1},{"":241,"subject":10,"presentation_identifier":2,"trial":1,"between_identifier":0,"statement_identifier":87,"repeated":1,"rt":3.79,"response":1,"certainty":3},{"":242,"subject":10,"presentation_identifier":2,"trial":2,"between_identifier":0,"statement_identifier":72,"repeated":1,"rt":0.857,"response":0,"certainty":4},{"":243,"subject":10,"presentation_identifier":2,"trial":3,"between_identifier":0,"statement_identifier":46,"repeated":0,"rt":0.945,"response":1,"certainty":4},{"":244,"subject":10,"presentation_identifier":2,"trial":4,"between_identifier":0,"statement_identifier":85,"repeated":1,"rt":0.417,"response":1,"certainty":3},{"":245,"subject":10,"presentation_identifier":2,"trial":5,"between_identifier":0,"statement_identifier":81,"repeated":1,"rt":0.879,"response":1,"certainty":3},{"":246,"subject":10,"presentation_identifier":2,"trial":6,"between_identifier":0,"statement_identifier":15,"repeated":0,"rt":1.6,"response":1,"certainty":3},{"":247,"subject":10,"presentation_identifier":2,"trial":7,"between_identifier":0,"statement_identifier":7,"repeated":0,"rt":2.009,"response":0,"certainty":2},{"":248,"subject":10,"presentation_identifier":2,"trial":8,"between_identifier":0,"statement_identifier":27,"repeated":0,"rt":0.427,"response":1,"certainty":2},{"":249,"subject":10,"presentation_identifier":2,"trial":9,"between_identifier":0,"statement_identifier":17,"repeated":0,"rt":2.272,"response":1,"certainty":3},{"":250,"subject":10,"presentation_identifier":2,"trial":10,"between_identifier":0,"statement_identifier":47,"repeated":0,"rt":0.544,"response":1,"certainty":2},{"":251,"subject":10,"presentation_identifier":2,"trial":11,"between_identifier":0,"statement_identifier":73,"repeated":1,"rt":1.483,"response":1,"certainty":3},{"":252,"subject":10,"presentation_identifier":2,"trial":12,"between_identifier":0,"statement_identifier":78,"repeated":1,"rt":0.391,"response":1,"certainty":2},{"":253,"subject":10,"presentation_identifier":2,"trial":13,"between_identifier":0,"statement_identifier":4,"repeated":0,"rt":0.569,"response":1,"certainty":4},{"":254,"subject":10,"presentation_identifier":2,"trial":14,"between_identifier":0,"statement_identifier":79,"repeated":1,"rt":2.744,"response":1,"certainty":4},{"":255,"subject":10,"presentation_identifier":2,"trial":15,"between_identifier":0,"statement_identifier":56,"repeated":0,"rt":3.364,"response":0,"certainty":4},{"":256,"subject":10,"presentation_identifier":2,"trial":16,"between_identifier":0,"statement_identifier":69,"repeated":1,"rt":0.685,"response":1,"certainty":3},{"":257,"subject":10,"presentation_identifier":2,"trial":17,"between_identifier":0,"statement_identifier":14,"repeated":0,"rt":2.448,"response":0,"certainty":3},{"":258,"subject":10,"presentation_identifier":2,"trial":18,"between_identifier":0,"statement_identifier":89,"repeated":1,"rt":0.836,"response":1,"certainty":4},{"":259,"subject":10,"presentation_identifier":2,"trial":19,"between_identifier":0,"statement_identifier":71,"repeated":1,"rt":0.575,"response":1,"certainty":2},{"":260,"subject":10,"presentation_identifier":2,"trial":20,"between_identifier":0,"statement_identifier":66,"repeated":1,"rt":0.99,"response":1,"certainty":5},{"":261,"subject":10,"presentation_identifier":2,"trial":21,"between_identifier":0,"statement_identifier":68,"repeated":1,"rt":0.997,"response":0,"certainty":2},{"":262,"subject":10,"presentation_identifier":2,"trial":22,"between_identifier":0,"statement_identifier":8,"repeated":0,"rt":1.107,"response":0,"certainty":1},{"":263,"subject":10,"presentation_identifier":2,"trial":23,"between_identifier":0,"statement_identifier":62,"repeated":1,"rt":4.256,"response":1,"certainty":2},{"":264,"subject":10,"presentation_identifier":2,"trial":24,"between_identifier":0,"statement_identifier":83,"repeated":1,"rt":0.901,"response":1,"certainty":3},{"":265,"subject":10,"presentation_identifier":2,"trial":25,"between_identifier":0,"statement_identifier":52,"repeated":0,"rt":3.1,"response":1,"certainty":3},{"":266,"subject":10,"presentation_identifier":2,"trial":26,"between_identifier":0,"statement_identifier":50,"repeated":0,"rt":0.558,"response":1,"certainty":3},{"":267,"subject":10,"presentation_identifier":2,"trial":27,"between_identifier":0,"statement_identifier":37,"repeated":0,"rt":0.42,"response":0,"certainty":2},{"":268,"subject":10,"presentation_identifier":2,"trial":28,"between_identifier":0,"statement_identifier":19,"repeated":0,"rt":0.753,"response":1,"certainty":3},{"":269,"subject":10,"presentation_identifier":2,"trial":29,"between_identifier":0,"statement_identifier":55,"repeated":0,"rt":0.527,"response":1,"certainty":5},{"":270,"subject":10,"presentation_identifier":2,"trial":30,"between_identifier":0,"statement_identifier":59,"repeated":0,"rt":0.85,"response":0,"certainty":2},{"":271,"subject":10,"presentation_identifier":2,"trial":31,"between_identifier":0,"statement_identifier":38,"repeated":0,"rt":1.966,"response":0,"certainty":3},{"":272,"subject":10,"presentation_identifier":2,"trial":32,"between_identifier":0,"statement_identifier":74,"repeated":1,"rt":2.156,"response":1,"certainty":3},{"":273,"subject":10,"presentation_identifier":2,"trial":33,"between_identifier":0,"statement_identifier":26,"repeated":0,"rt":0.812,"response":1,"certainty":2},{"":274,"subject":10,"presentation_identifier":2,"trial":34,"between_identifier":0,"statement_identifier":67,"repeated":1,"rt":0.8,"response":1,"certainty":5},{"":275,"subject":10,"presentation_identifier":2,"trial":35,"between_identifier":0,"statement_identifier":32,"repeated":0,"rt":0.987,"response":0,"certainty":3},{"":276,"subject":10,"presentation_identifier":2,"trial":36,"between_identifier":0,"statement_identifier":49,"repeated":0,"rt":1.014,"response":1,"certainty":5},{"":277,"subject":10,"presentation_identifier":2,"trial":37,"between_identifier":0,"statement_identifier":58,"repeated":0,"rt":2.169,"response":1,"certainty":2},{"":278,"subject":10,"presentation_identifier":2,"trial":38,"between_identifier":0,"statement_identifier":22,"repeated":0,"rt":0.497,"response":1,"certainty":2},{"":279,"subject":10,"presentation_identifier":2,"trial":39,"between_identifier":0,"statement_identifier":86,"repeated":1,"rt":0.632,"response":1,"certainty":6},{"":280,"subject":10,"presentation_identifier":2,"trial":40,"between_identifier":0,"statement_identifier":30,"repeated":0,"rt":4.505,"response":0,"certainty":3},{"":281,"subject":10,"presentation_identifier":2,"trial":41,"between_identifier":0,"statement_identifier":39,"repeated":0,"rt":3.681,"response":1,"certainty":1},{"":282,"subject":10,"presentation_identifier":2,"trial":42,"between_identifier":0,"statement_identifier":84,"repeated":1,"rt":2.832,"response":1,"certainty":3},{"":283,"subject":10,"presentation_identifier":2,"trial":43,"between_identifier":0,"statement_identifier":88,"repeated":1,"rt":3.855,"response":1,"certainty":2},{"":284,"subject":10,"presentation_identifier":2,"trial":44,"between_identifier":0,"statement_identifier":23,"repeated":0,"rt":3.558,"response":0,"certainty":3},{"":285,"subject":10,"presentation_identifier":2,"trial":45,"between_identifier":0,"statement_identifier":33,"repeated":0,"rt":0.544,"response":1,"certainty":2},{"":286,"subject":10,"presentation_identifier":2,"trial":46,"between_identifier":0,"statement_identifier":65,"repeated":1,"rt":0.803,"response":1,"certainty":5},{"":287,"subject":10,"presentation_identifier":2,"trial":47,"between_identifier":0,"statement_identifier":63,"repeated":1,"rt":0.576,"response":1,"certainty":5},{"":288,"subject":10,"presentation_identifier":2,"trial":48,"between_identifier":0,"statement_identifier":70,"repeated":1,"rt":2.496,"response":0,"certainty":2},{"":289,"subject":10,"presentation_identifier":2,"trial":49,"between_identifier":0,"statement_identifier":9,"repeated":0,"rt":1.254,"response":1,"certainty":3},{"":290,"subject":10,"presentation_identifier":2,"trial":50,"between_identifier":0,"statement_identifier":77,"repeated":1,"rt":0.795,"response":1,"certainty":5},{"":291,"subject":10,"presentation_identifier":2,"trial":51,"between_identifier":0,"statement_identifier":34,"repeated":0,"rt":1.337,"response":1,"certainty":2},{"":292,"subject":10,"presentation_identifier":2,"trial":52,"between_identifier":0,"statement_identifier":61,"repeated":1,"rt":1.054,"response":1,"certainty":4},{"":293,"subject":10,"presentation_identifier":2,"trial":53,"between_identifier":0,"statement_identifier":64,"repeated":1,"rt":3.807,"response":1,"certainty":3},{"":294,"subject":10,"presentation_identifier":2,"trial":54,"between_identifier":0,"statement_identifier":11,"repeated":0,"rt":6.525,"response":0,"certainty":3},{"":295,"subject":10,"presentation_identifier":2,"trial":55,"between_identifier":0,"statement_identifier":90,"repeated":1,"rt":1.043,"response":1,"certainty":5},{"":296,"subject":10,"presentation_identifier":2,"trial":56,"between_identifier":0,"statement_identifier":82,"repeated":1,"rt":0.786,"response":1,"certainty":3},{"":297,"subject":10,"presentation_identifier":2,"trial":57,"between_identifier":0,"statement_identifier":75,"repeated":1,"rt":0.466,"response":1,"certainty":4},{"":298,"subject":10,"presentation_identifier":2,"trial":58,"between_identifier":0,"statement_identifier":76,"repeated":1,"rt":0.75,"response":1,"certainty":5},{"":299,"subject":10,"presentation_identifier":2,"trial":59,"between_identifier":0,"statement_identifier":80,"repeated":1,"rt":2.213,"response":0,"certainty":1},{"":300,"subject":10,"presentation_identifier":2,"trial":60,"between_identifier":0,"statement_identifier":5,"repeated":0,"rt":1.644,"response":1,"certainty":2},{"":301,"subject":12,"presentation_identifier":2,"trial":1,"between_identifier":0,"statement_identifier":47,"repeated":1,"rt":2.248,"response":0,"certainty":1},{"":302,"subject":12,"presentation_identifier":2,"trial":2,"between_identifier":0,"statement_identifier":56,"repeated":1,"rt":1.669,"response":0,"certainty":3},{"":303,"subject":12,"presentation_identifier":2,"trial":3,"between_identifier":0,"statement_identifier":71,"repeated":0,"rt":2.184,"response":0,"certainty":2},{"":304,"subject":12,"presentation_identifier":2,"trial":4,"between_identifier":0,"statement_identifier":37,"repeated":1,"rt":3.33,"response":1,"certainty":1},{"":305,"subject":12,"presentation_identifier":2,"trial":5,"between_identifier":0,"statement_identifier":73,"repeated":0,"rt":1.769,"response":1,"certainty":2},{"":306,"subject":12,"presentation_identifier":2,"trial":6,"between_identifier":0,"statement_identifier":15,"repeated":1,"rt":1.457,"response":1,"certainty":4},{"":307,"subject":12,"presentation_identifier":2,"trial":7,"between_identifier":0,"statement_identifier":65,"repeated":0,"rt":2.474,"response":0,"certainty":3},{"":308,"subject":12,"presentation_identifier":2,"trial":8,"between_identifier":0,"statement_identifier":59,"repeated":1,"rt":1.404,"response":1,"certainty":3},{"":309,"subject":12,"presentation_identifier":2,"trial":9,"between_identifier":0,"statement_identifier":38,"repeated":1,"rt":3.226,"response":1,"certainty":2},{"":310,"subject":12,"presentation_identifier":2,"trial":10,"between_identifier":0,"statement_identifier":49,"repeated":1,"rt":5.203,"response":0,"certainty":3},{"":311,"subject":12,"presentation_identifier":2,"trial":11,"between_identifier":0,"statement_identifier":83,"repeated":0,"rt":3.187,"response":0,"certainty":2},{"":312,"subject":12,"presentation_identifier":2,"trial":12,"between_identifier":0,"statement_identifier":33,"repeated":1,"rt":1.244,"response":1,"certainty":6},{"":313,"subject":12,"presentation_identifier":2,"trial":13,"between_identifier":0,"statement_identifier":32,"repeated":1,"rt":4.087,"response":1,"certainty":2},{"":314,"subject":12,"presentation_identifier":2,"trial":14,"between_identifier":0,"statement_identifier":84,"repeated":0,"rt":1.895,"response":1,"certainty":2},{"":315,"subject":12,"presentation_identifier":2,"trial":15,"between_identifier":0,"statement_identifier":64,"repeated":0,"rt":1.445,"response":1,"certainty":2},{"":316,"subject":12,"presentation_identifier":2,"trial":16,"between_identifier":0,"statement_identifier":62,"repeated":0,"rt":5.006,"response":1,"certainty":5},{"":317,"subject":12,"presentation_identifier":2,"trial":17,"between_identifier":0,"statement_identifier":17,"repeated":1,"rt":1.872,"response":1,"certainty":3},{"":318,"subject":12,"presentation_identifier":2,"trial":18,"between_identifier":0,"statement_identifier":79,"repeated":0,"rt":1.997,"response":0,"certainty":3},{"":319,"subject":12,"presentation_identifier":2,"trial":19,"between_identifier":0,"statement_identifier":34,"repeated":1,"rt":2.045,"response":0,"certainty":2},{"":320,"subject":12,"presentation_identifier":2,"trial":20,"between_identifier":0,"statement_identifier":63,"repeated":0,"rt":1.115,"response":1,"certainty":2},{"":321,"subject":12,"presentation_identifier":2,"trial":21,"between_identifier":0,"statement_identifier":11,"repeated":1,"rt":1.384,"response":0,"certainty":4},{"":322,"subject":12,"presentation_identifier":2,"trial":22,"between_identifier":0,"statement_identifier":50,"repeated":1,"rt":1.217,"response":1,"certainty":5},{"":323,"subject":12,"presentation_identifier":2,"trial":23,"between_identifier":0,"statement_identifier":66,"repeated":0,"rt":1.455,"response":0,"certainty":5},{"":324,"subject":12,"presentation_identifier":2,"trial":24,"between_identifier":0,"statement_identifier":23,"repeated":1,"rt":2.661,"response":1,"certainty":4},{"":325,"subject":12,"presentation_identifier":2,"trial":25,"between_identifier":0,"statement_identifier":14,"repeated":1,"rt":1.625,"response":0,"certainty":4},{"":326,"subject":12,"presentation_identifier":2,"trial":26,"between_identifier":0,"statement_identifier":87,"repeated":0,"rt":4.059,"response":1,"certainty":3},{"":327,"subject":12,"presentation_identifier":2,"trial":27,"between_identifier":0,"statement_identifier":77,"repeated":0,"rt":2.935,"response":1,"certainty":4},{"":328,"subject":12,"presentation_identifier":2,"trial":28,"between_identifier":0,"statement_identifier":19,"repeated":1,"rt":2.622,"response":1,"certainty":3},{"":329,"subject":12,"presentation_identifier":2,"trial":29,"between_identifier":0,"statement_identifier":72,"repeated":0,"rt":0.978,"response":0,"certainty":4},{"":330,"subject":12,"presentation_identifier":2,"trial":30,"between_identifier":0,"statement_identifier":75,"repeated":0,"rt":1.511,"response":0,"certainty":6},{"":331,"subject":12,"presentation_identifier":2,"trial":31,"between_identifier":0,"statement_identifier":5,"repeated":1,"rt":2.444,"response":0,"certainty":2},{"":332,"subject":12,"presentation_identifier":2,"trial":32,"between_identifier":0,"statement_identifier":26,"repeated":1,"rt":1.65,"response":1,"certainty":2},{"":333,"subject":12,"presentation_identifier":2,"trial":33,"between_identifier":0,"statement_identifier":4,"repeated":1,"rt":3.708,"response":1,"certainty":2},{"":334,"subject":12,"presentation_identifier":2,"trial":34,"between_identifier":0,"statement_identifier":76,"repeated":0,"rt":1.155,"response":1,"certainty":1},{"":335,"subject":12,"presentation_identifier":2,"trial":35,"between_identifier":0,"statement_identifier":78,"repeated":0,"rt":1.049,"response":0,"certainty":3},{"":336,"subject":12,"presentation_identifier":2,"trial":36,"between_identifier":0,"statement_identifier":82,"repeated":0,"rt":1.377,"response":0,"certainty":2},{"":337,"subject":12,"presentation_identifier":2,"trial":37,"between_identifier":0,"statement_identifier":67,"repeated":0,"rt":0.982,"response":1,"certainty":3},{"":338,"subject":12,"presentation_identifier":2,"trial":38,"between_identifier":0,"statement_identifier":7,"repeated":1,"rt":2.753,"response":1,"certainty":2},{"":339,"subject":12,"presentation_identifier":2,"trial":39,"between_identifier":0,"statement_identifier":39,"repeated":1,"rt":1.928,"response":1,"certainty":2},{"":340,"subject":12,"presentation_identifier":2,"trial":40,"between_identifier":0,"statement_identifier":52,"repeated":1,"rt":1.674,"response":0,"certainty":4},{"":341,"subject":12,"presentation_identifier":2,"trial":41,"between_identifier":0,"statement_identifier":80,"repeated":0,"rt":2.465,"response":0,"certainty":5},{"":342,"subject":12,"presentation_identifier":2,"trial":42,"between_identifier":0,"statement_identifier":88,"repeated":0,"rt":3.744,"response":0,"certainty":3},{"":343,"subject":12,"presentation_identifier":2,"trial":43,"between_identifier":0,"statement_identifier":27,"repeated":1,"rt":3.299,"response":1,"certainty":2},{"":344,"subject":12,"presentation_identifier":2,"trial":44,"between_identifier":0,"statement_identifier":9,"repeated":1,"rt":0.711,"response":1,"certainty":4},{"":345,"subject":12,"presentation_identifier":2,"trial":45,"between_identifier":0,"statement_identifier":74,"repeated":0,"rt":2.297,"response":1,"certainty":3},{"":346,"subject":12,"presentation_identifier":2,"trial":46,"between_identifier":0,"statement_identifier":30,"repeated":1,"rt":0.807,"response":1,"certainty":2},{"":347,"subject":12,"presentation_identifier":2,"trial":47,"between_identifier":0,"statement_identifier":89,"repeated":0,"rt":1.537,"response":1,"certainty":1},{"":348,"subject":12,"presentation_identifier":2,"trial":48,"between_identifier":0,"statement_identifier":81,"repeated":0,"rt":3.454,"response":0,"certainty":2},{"":349,"subject":12,"presentation_identifier":2,"trial":49,"between_identifier":0,"statement_identifier":55,"repeated":1,"rt":1.522,"response":0,"certainty":1},{"":350,"subject":12,"presentation_identifier":2,"trial":50,"between_identifier":0,"statement_identifier":70,"repeated":0,"rt":3.954,"response":0,"certainty":3},{"":351,"subject":12,"presentation_identifier":2,"trial":51,"between_identifier":0,"statement_identifier":90,"repeated":0,"rt":2.143,"response":0,"certainty":1},{"":352,"subject":12,"presentation_identifier":2,"trial":52,"between_identifier":0,"statement_identifier":46,"repeated":1,"rt":0.999,"response":0,"certainty":2},{"":353,"subject":12,"presentation_identifier":2,"trial":53,"between_identifier":0,"statement_identifier":58,"repeated":1,"rt":1.517,"response":1,"certainty":2},{"":354,"subject":12,"presentation_identifier":2,"trial":54,"between_identifier":0,"statement_identifier":8,"repeated":1,"rt":2.67,"response":1,"certainty":1},{"":355,"subject":12,"presentation_identifier":2,"trial":55,"between_identifier":0,"statement_identifier":68,"repeated":0,"rt":1.269,"response":0,"certainty":1},{"":356,"subject":12,"presentation_identifier":2,"trial":56,"between_identifier":0,"statement_identifier":22,"repeated":1,"rt":0.742,"response":1,"certainty":2},{"":357,"subject":12,"presentation_identifier":2,"trial":57,"between_identifier":0,"statement_identifier":69,"repeated":0,"rt":2.573,"response":1,"certainty":2},{"":358,"subject":12,"presentation_identifier":2,"trial":58,"between_identifier":0,"statement_identifier":61,"repeated":0,"rt":2.314,"response":0,"certainty":1},{"":359,"subject":12,"presentation_identifier":2,"trial":59,"between_identifier":0,"statement_identifier":86,"repeated":0,"rt":0.827,"response":1,"certainty":2},{"":360,"subject":12,"presentation_identifier":2,"trial":60,"between_identifier":0,"statement_identifier":85,"repeated":0,"rt":1.481,"response":1,"certainty":3},{"":361,"subject":14,"presentation_identifier":2,"trial":1,"between_identifier":0,"statement_identifier":7,"repeated":1,"rt":1.706,"response":1,"certainty":3},{"":362,"subject":14,"presentation_identifier":2,"trial":2,"between_identifier":0,"statement_identifier":1,"repeated":0,"rt":1.664,"response":0,"certainty":3},{"":363,"subject":14,"presentation_identifier":2,"trial":3,"between_identifier":0,"statement_identifier":36,"repeated":0,"rt":1.46,"response":0,"certainty":6},{"":364,"subject":14,"presentation_identifier":2,"trial":4,"between_identifier":0,"statement_identifier":34,"repeated":1,"rt":2.452,"response":1,"certainty":3},{"":365,"subject":14,"presentation_identifier":2,"trial":5,"between_identifier":0,"statement_identifier":29,"repeated":0,"rt":0.996,"response":1,"certainty":1},{"":366,"subject":14,"presentation_identifier":2,"trial":6,"between_identifier":0,"statement_identifier":42,"repeated":0,"rt":3.131,"response":1,"certainty":4},{"":367,"subject":14,"presentation_identifier":2,"trial":7,"between_identifier":0,"statement_identifier":39,"repeated":1,"rt":5.477,"response":0,"certainty":4},{"":368,"subject":14,"presentation_identifier":2,"trial":8,"between_identifier":0,"statement_identifier":43,"repeated":0,"rt":3.282,"response":1,"certainty":3},{"":369,"subject":14,"presentation_identifier":2,"trial":9,"between_identifier":0,"statement_identifier":16,"repeated":0,"rt":2.457,"response":0,"certainty":2},{"":370,"subject":14,"presentation_identifier":2,"trial":10,"between_identifier":0,"statement_identifier":37,"repeated":1,"rt":0.571,"response":1,"certainty":5},{"":371,"subject":14,"presentation_identifier":2,"trial":11,"between_identifier":0,"statement_identifier":55,"repeated":1,"rt":1.808,"response":1,"certainty":3},{"":372,"subject":14,"presentation_identifier":2,"trial":12,"between_identifier":0,"statement_identifier":9,"repeated":1,"rt":1.317,"response":1,"certainty":6},{"":373,"subject":14,"presentation_identifier":2,"trial":13,"between_identifier":0,"statement_identifier":24,"repeated":0,"rt":2.862,"response":1,"certainty":3},{"":374,"subject":14,"presentation_identifier":2,"trial":14,"between_identifier":0,"statement_identifier":59,"repeated":1,"rt":0.736,"response":1,"certainty":6},{"":375,"subject":14,"presentation_identifier":2,"trial":15,"between_identifier":0,"statement_identifier":56,"repeated":1,"rt":3.566,"response":1,"certainty":5},{"":376,"subject":14,"presentation_identifier":2,"trial":16,"between_identifier":0,"statement_identifier":17,"repeated":1,"rt":2.323,"response":1,"certainty":3},{"":377,"subject":14,"presentation_identifier":2,"trial":17,"between_identifier":0,"statement_identifier":58,"repeated":1,"rt":0.738,"response":0,"certainty":6},{"":378,"subject":14,"presentation_identifier":2,"trial":18,"between_identifier":0,"statement_identifier":35,"repeated":0,"rt":1.639,"response":0,"certainty":3},{"":379,"subject":14,"presentation_identifier":2,"trial":19,"between_identifier":0,"statement_identifier":19,"repeated":1,"rt":0.86,"response":1,"certainty":3},{"":380,"subject":14,"presentation_identifier":2,"trial":20,"between_identifier":0,"statement_identifier":53,"repeated":0,"rt":2.272,"response":1,"certainty":4},{"":381,"subject":14,"presentation_identifier":2,"trial":21,"between_identifier":0,"statement_identifier":46,"repeated":1,"rt":3.564,"response":1,"certainty":2},{"":382,"subject":14,"presentation_identifier":2,"trial":22,"between_identifier":0,"statement_identifier":38,"repeated":1,"rt":1.844,"response":1,"certainty":2},{"":383,"subject":14,"presentation_identifier":2,"trial":23,"between_identifier":0,"statement_identifier":49,"repeated":1,"rt":0.43,"response":0,"certainty":6},{"":384,"subject":14,"presentation_identifier":2,"trial":24,"between_identifier":0,"statement_identifier":25,"repeated":0,"rt":2.472,"response":0,"certainty":3},{"":385,"subject":14,"presentation_identifier":2,"trial":25,"between_identifier":0,"statement_identifier":13,"repeated":0,"rt":1.768,"response":0,"certainty":3},{"":386,"subject":14,"presentation_identifier":2,"trial":26,"between_identifier":0,"statement_identifier":2,"repeated":0,"rt":0.877,"response":1,"certainty":1},{"":387,"subject":14,"presentation_identifier":2,"trial":27,"between_identifier":0,"statement_identifier":52,"repeated":1,"rt":4.895,"response":1,"certainty":3},{"":388,"subject":14,"presentation_identifier":2,"trial":28,"between_identifier":0,"statement_identifier":44,"repeated":0,"rt":0.611,"response":1,"certainty":4},{"":389,"subject":14,"presentation_identifier":2,"trial":29,"between_identifier":0,"statement_identifier":6,"repeated":0,"rt":3.876,"response":0,"certainty":6},{"":390,"subject":14,"presentation_identifier":2,"trial":30,"between_identifier":0,"statement_identifier":60,"repeated":0,"rt":0.865,"response":1,"certainty":3},{"":391,"subject":14,"presentation_identifier":2,"trial":31,"between_identifier":0,"statement_identifier":31,"repeated":0,"rt":2.834,"response":1,"certainty":3},{"":392,"subject":14,"presentation_identifier":2,"trial":32,"between_identifier":0,"statement_identifier":4,"repeated":1,"rt":0.575,"response":1,"certainty":4},{"":393,"subject":14,"presentation_identifier":2,"trial":33,"between_identifier":0,"statement_identifier":28,"repeated":0,"rt":4.279,"response":1,"certainty":4},{"":394,"subject":14,"presentation_identifier":2,"trial":34,"between_identifier":0,"statement_identifier":50,"repeated":1,"rt":3.253,"response":0,"certainty":1},{"":395,"subject":14,"presentation_identifier":2,"trial":35,"between_identifier":0,"statement_identifier":27,"repeated":1,"rt":2.654,"response":0,"certainty":3},{"":396,"subject":14,"presentation_identifier":2,"trial":36,"between_identifier":0,"statement_identifier":41,"repeated":0,"rt":3.014,"response":1,"certainty":4},{"":397,"subject":14,"presentation_identifier":2,"trial":37,"between_identifier":0,"statement_identifier":51,"repeated":0,"rt":0.824,"response":1,"certainty":5},{"":398,"subject":14,"presentation_identifier":2,"trial":38,"between_identifier":0,"statement_identifier":18,"repeated":0,"rt":0.67,"response":0,"certainty":6},{"":399,"subject":14,"presentation_identifier":2,"trial":39,"between_identifier":0,"statement_identifier":30,"repeated":1,"rt":4.17,"response":0,"certainty":6},{"":400,"subject":14,"presentation_identifier":2,"trial":40,"between_identifier":0,"statement_identifier":10,"repeated":0,"rt":3.661,"response":0,"certainty":6},{"":401,"subject":14,"presentation_identifier":2,"trial":41,"between_identifier":0,"statement_identifier":45,"repeated":0,"rt":3.244,"response":0,"certainty":6},{"":402,"subject":14,"presentation_identifier":2,"trial":42,"between_identifier":0,"statement_identifier":47,"repeated":1,"rt":2.914,"response":1,"certainty":1},{"":403,"subject":14,"presentation_identifier":2,"trial":43,"between_identifier":0,"statement_identifier":26,"repeated":1,"rt":2.02,"response":0,"certainty":3},{"":404,"subject":14,"presentation_identifier":2,"trial":44,"between_identifier":0,"statement_identifier":21,"repeated":0,"rt":6.25,"response":1,"certainty":3},{"":405,"subject":14,"presentation_identifier":2,"trial":45,"between_identifier":0,"statement_identifier":14,"repeated":1,"rt":1.837,"response":0,"certainty":3},{"":406,"subject":14,"presentation_identifier":2,"trial":46,"between_identifier":0,"statement_identifier":11,"repeated":1,"rt":1.276,"response":0,"certainty":4},{"":407,"subject":14,"presentation_identifier":2,"trial":47,"between_identifier":0,"statement_identifier":20,"repeated":0,"rt":0.97,"response":0,"certainty":3},{"":408,"subject":14,"presentation_identifier":2,"trial":48,"between_identifier":0,"statement_identifier":8,"repeated":1,"rt":0.383,"response":1,"certainty":5},{"":409,"subject":14,"presentation_identifier":2,"trial":49,"between_identifier":0,"statement_identifier":5,"repeated":1,"rt":1.472,"response":1,"certainty":1},{"":410,"subject":14,"presentation_identifier":2,"trial":50,"between_identifier":0,"statement_identifier":23,"repeated":1,"rt":1.308,"response":0,"certainty":5},{"":411,"subject":14,"presentation_identifier":2,"trial":51,"between_identifier":0,"statement_identifier":22,"repeated":1,"rt":0.562,"response":0,"certainty":3},{"":412,"subject":14,"presentation_identifier":2,"trial":52,"between_identifier":0,"statement_identifier":48,"repeated":0,"rt":3.75,"response":1,"certainty":3},{"":413,"subject":14,"presentation_identifier":2,"trial":53,"between_identifier":0,"statement_identifier":40,"repeated":0,"rt":1.38,"response":0,"certainty":3},{"":414,"subject":14,"presentation_identifier":2,"trial":54,"between_identifier":0,"statement_identifier":57,"repeated":0,"rt":0.789,"response":1,"certainty":4},{"":415,"subject":14,"presentation_identifier":2,"trial":55,"between_identifier":0,"statement_identifier":32,"repeated":1,"rt":4.045,"response":1,"certainty":5},{"":416,"subject":14,"presentation_identifier":2,"trial":56,"between_identifier":0,"statement_identifier":12,"repeated":0,"rt":0.387,"response":1,"certainty":6},{"":417,"subject":14,"presentation_identifier":2,"trial":57,"between_identifier":0,"statement_identifier":15,"repeated":1,"rt":0.714,"response":1,"certainty":5},{"":418,"subject":14,"presentation_identifier":2,"trial":58,"between_identifier":0,"statement_identifier":3,"repeated":0,"rt":0.49,"response":1,"certainty":6},{"":419,"subject":14,"presentation_identifier":2,"trial":59,"between_identifier":0,"statement_identifier":54,"repeated":0,"rt":0.335,"response":1,"certainty":5},{"":420,"subject":14,"presentation_identifier":2,"trial":60,"between_identifier":0,"statement_identifier":33,"repeated":1,"rt":0.401,"response":0,"certainty":3},{"":421,"subject":16,"presentation_identifier":2,"trial":1,"between_identifier":0,"statement_identifier":21,"repeated":1,"rt":9.955,"response":0,"certainty":2},{"":422,"subject":16,"presentation_identifier":2,"trial":2,"between_identifier":0,"statement_identifier":56,"repeated":0,"rt":3.212,"response":1,"certainty":3},{"":423,"subject":16,"presentation_identifier":2,"trial":3,"between_identifier":0,"statement_identifier":9,"repeated":0,"rt":7.008,"response":1,"certainty":3},{"":424,"subject":16,"presentation_identifier":2,"trial":4,"between_identifier":0,"statement_identifier":13,"repeated":1,"rt":4.329,"response":1,"certainty":3},{"":425,"subject":16,"presentation_identifier":2,"trial":5,"between_identifier":0,"statement_identifier":35,"repeated":1,"rt":1.901,"response":1,"certainty":4},{"":426,"subject":16,"presentation_identifier":2,"trial":6,"between_identifier":0,"statement_identifier":37,"repeated":0,"rt":2.966,"response":1,"certainty":6},{"":427,"subject":16,"presentation_identifier":2,"trial":7,"between_identifier":0,"statement_identifier":45,"repeated":1,"rt":1.892,"response":0,"certainty":6},{"":428,"subject":16,"presentation_identifier":2,"trial":8,"between_identifier":0,"statement_identifier":36,"repeated":1,"rt":1.69,"response":0,"certainty":1},{"":429,"subject":16,"presentation_identifier":2,"trial":9,"between_identifier":0,"statement_identifier":8,"repeated":0,"rt":3.756,"response":1,"certainty":3},{"":430,"subject":16,"presentation_identifier":2,"trial":10,"between_identifier":0,"statement_identifier":52,"repeated":0,"rt":10.125,"response":1,"certainty":3},{"":431,"subject":16,"presentation_identifier":2,"trial":11,"between_identifier":0,"statement_identifier":55,"repeated":0,"rt":3.181,"response":1,"certainty":2},{"":432,"subject":16,"presentation_identifier":2,"trial":12,"between_identifier":0,"statement_identifier":31,"repeated":1,"rt":3.9,"response":1,"certainty":1},{"":433,"subject":16,"presentation_identifier":2,"trial":13,"between_identifier":0,"statement_identifier":43,"repeated":1,"rt":2.505,"response":0,"certainty":1},{"":434,"subject":16,"presentation_identifier":2,"trial":14,"between_identifier":0,"statement_identifier":26,"repeated":0,"rt":7.028,"response":0,"certainty":1},{"":435,"subject":16,"presentation_identifier":2,"trial":15,"between_identifier":0,"statement_identifier":38,"repeated":0,"rt":4.781,"response":1,"certainty":3},{"":436,"subject":16,"presentation_identifier":2,"trial":16,"between_identifier":0,"statement_identifier":16,"repeated":1,"rt":8.942,"response":1,"certainty":3},{"":437,"subject":16,"presentation_identifier":2,"trial":17,"between_identifier":0,"statement_identifier":19,"repeated":0,"rt":2.032,"response":0,"certainty":2},{"":438,"subject":16,"presentation_identifier":2,"trial":18,"between_identifier":0,"statement_identifier":42,"repeated":1,"rt":10.244,"response":0,"certainty":3},{"":439,"subject":16,"presentation_identifier":2,"trial":19,"between_identifier":0,"statement_identifier":1,"repeated":1,"rt":10.431,"response":1,"certainty":2},{"":440,"subject":16,"presentation_identifier":2,"trial":20,"between_identifier":0,"statement_identifier":46,"repeated":0,"rt":8.784,"response":1,"certainty":3},{"":441,"subject":16,"presentation_identifier":2,"trial":21,"between_identifier":0,"statement_identifier":20,"repeated":1,"rt":2.029,"response":0,"certainty":4},{"":442,"subject":16,"presentation_identifier":2,"trial":22,"between_identifier":0,"statement_identifier":47,"repeated":0,"rt":1.612,"response":0,"certainty":4},{"":443,"subject":16,"presentation_identifier":2,"trial":23,"between_identifier":0,"statement_identifier":44,"repeated":1,"rt":1.525,"response":1,"certainty":4},{"":444,"subject":16,"presentation_identifier":2,"trial":24,"between_identifier":0,"statement_identifier":4,"repeated":0,"rt":3.042,"response":1,"certainty":6},{"":445,"subject":16,"presentation_identifier":2,"trial":25,"between_identifier":0,"statement_identifier":30,"repeated":0,"rt":6.002,"response":0,"certainty":3},{"":446,"subject":16,"presentation_identifier":2,"trial":26,"between_identifier":0,"statement_identifier":41,"repeated":1,"rt":9.353,"response":1,"certainty":1},{"":447,"subject":16,"presentation_identifier":2,"trial":27,"between_identifier":0,"statement_identifier":51,"repeated":1,"rt":6.603,"response":1,"certainty":3},{"":448,"subject":16,"presentation_identifier":2,"trial":28,"between_identifier":0,"statement_identifier":50,"repeated":0,"rt":3.098,"response":0,"certainty":4},{"":449,"subject":16,"presentation_identifier":2,"trial":29,"between_identifier":0,"statement_identifier":2,"repeated":1,"rt":2.541,"response":1,"certainty":4},{"":450,"subject":16,"presentation_identifier":2,"trial":30,"between_identifier":0,"statement_identifier":25,"repeated":1,"rt":3.173,"response":0,"certainty":6},{"":451,"subject":16,"presentation_identifier":2,"trial":31,"between_identifier":0,"statement_identifier":23,"repeated":0,"rt":2.082,"response":0,"certainty":6},{"":452,"subject":16,"presentation_identifier":2,"trial":32,"between_identifier":0,"statement_identifier":10,"repeated":1,"rt":4.537,"response":0,"certainty":5},{"":453,"subject":16,"presentation_identifier":2,"trial":33,"between_identifier":0,"statement_identifier":39,"repeated":0,"rt":8.032,"response":1,"certainty":3},{"":454,"subject":16,"presentation_identifier":2,"trial":34,"between_identifier":0,"statement_identifier":54,"repeated":1,"rt":3.563,"response":1,"certainty":4},{"":455,"subject":16,"presentation_identifier":2,"trial":35,"between_identifier":0,"statement_identifier":5,"repeated":0,"rt":1.601,"response":0,"certainty":3},{"":456,"subject":16,"presentation_identifier":2,"trial":36,"between_identifier":0,"statement_identifier":7,"repeated":0,"rt":3.47,"response":1,"certainty":1},{"":457,"subject":16,"presentation_identifier":2,"trial":37,"between_identifier":0,"statement_identifier":40,"repeated":1,"rt":2.679,"response":0,"certainty":2},{"":458,"subject":16,"presentation_identifier":2,"trial":38,"between_identifier":0,"statement_identifier":24,"repeated":1,"rt":2.478,"response":0,"certainty":1},{"":459,"subject":16,"presentation_identifier":2,"trial":39,"between_identifier":0,"statement_identifier":18,"repeated":1,"rt":1.847,"response":0,"certainty":3},{"":460,"subject":16,"presentation_identifier":2,"trial":40,"between_identifier":0,"statement_identifier":57,"repeated":1,"rt":1.398,"response":1,"certainty":2},{"":461,"subject":16,"presentation_identifier":2,"trial":41,"between_identifier":0,"statement_identifier":15,"repeated":0,"rt":1.864,"response":1,"certainty":3},{"":462,"subject":16,"presentation_identifier":2,"trial":42,"between_identifier":0,"statement_identifier":27,"repeated":0,"rt":2.365,"response":0,"certainty":3},{"":463,"subject":16,"presentation_identifier":2,"trial":43,"between_identifier":0,"statement_identifier":34,"repeated":0,"rt":4.99,"response":0,"certainty":1},{"":464,"subject":16,"presentation_identifier":2,"trial":44,"between_identifier":0,"statement_identifier":11,"repeated":0,"rt":7.076,"response":0,"certainty":4},{"":465,"subject":16,"presentation_identifier":2,"trial":45,"between_identifier":0,"statement_identifier":6,"repeated":1,"rt":5.223,"response":1,"certainty":5},{"":466,"subject":16,"presentation_identifier":2,"trial":46,"between_identifier":0,"statement_identifier":17,"repeated":0,"rt":4.176,"response":1,"certainty":3},{"":467,"subject":16,"presentation_identifier":2,"trial":47,"between_identifier":0,"statement_identifier":60,"repeated":1,"rt":1.252,"response":0,"certainty":1},{"":468,"subject":16,"presentation_identifier":2,"trial":48,"between_identifier":0,"statement_identifier":29,"repeated":1,"rt":1.388,"response":0,"certainty":2},{"":469,"subject":16,"presentation_identifier":2,"trial":49,"between_identifier":0,"statement_identifier":49,"repeated":0,"rt":3.421,"response":0,"certainty":3},{"":470,"subject":16,"presentation_identifier":2,"trial":50,"between_identifier":0,"statement_identifier":12,"repeated":1,"rt":1.658,"response":1,"certainty":5},{"":471,"subject":16,"presentation_identifier":2,"trial":51,"between_identifier":0,"statement_identifier":28,"repeated":1,"rt":3.659,"response":1,"certainty":4},{"":472,"subject":16,"presentation_identifier":2,"trial":52,"between_identifier":0,"statement_identifier":48,"repeated":1,"rt":2.999,"response":1,"certainty":4},{"":473,"subject":16,"presentation_identifier":2,"trial":53,"between_identifier":0,"statement_identifier":53,"repeated":1,"rt":4.299,"response":1,"certainty":4},{"":474,"subject":16,"presentation_identifier":2,"trial":54,"between_identifier":0,"statement_identifier":3,"repeated":1,"rt":1.894,"response":0,"certainty":4},{"":475,"subject":16,"presentation_identifier":2,"trial":55,"between_identifier":0,"statement_identifier":58,"repeated":0,"rt":3.356,"response":1,"certainty":5},{"":476,"subject":16,"presentation_identifier":2,"trial":56,"between_identifier":0,"statement_identifier":22,"repeated":0,"rt":2.399,"response":0,"certainty":1},{"":477,"subject":16,"presentation_identifier":2,"trial":57,"between_identifier":0,"statement_identifier":33,"repeated":0,"rt":1.379,"response":0,"certainty":4},{"":478,"subject":16,"presentation_identifier":2,"trial":58,"between_identifier":0,"statement_identifier":32,"repeated":0,"rt":4.501,"response":1,"certainty":2},{"":479,"subject":16,"presentation_identifier":2,"trial":59,"between_identifier":0,"statement_identifier":14,"repeated":0,"rt":4.557,"response":0,"certainty":4},{"":480,"subject":16,"presentation_identifier":2,"trial":60,"between_identifier":0,"statement_identifier":59,"repeated":0,"rt":9.833,"response":0,"certainty":5},{"":481,"subject":18,"presentation_identifier":2,"trial":1,"between_identifier":0,"statement_identifier":48,"repeated":0,"rt":8.651,"response":1,"certainty":1},{"":482,"subject":18,"presentation_identifier":2,"trial":2,"between_identifier":0,"statement_identifier":91,"repeated":1,"rt":1.597,"response":1,"certainty":3},{"":483,"subject":18,"presentation_identifier":2,"trial":3,"between_identifier":0,"statement_identifier":53,"repeated":0,"rt":0.949,"response":0,"certainty":1},{"":484,"subject":18,"presentation_identifier":2,"trial":4,"between_identifier":0,"statement_identifier":92,"repeated":1,"rt":1.097,"response":1,"certainty":3},{"":485,"subject":18,"presentation_identifier":2,"trial":5,"between_identifier":0,"statement_identifier":93,"repeated":1,"rt":1.708,"response":0,"certainty":1},{"":486,"subject":18,"presentation_identifier":2,"trial":6,"between_identifier":0,"statement_identifier":18,"repeated":0,"rt":1.382,"response":0,"certainty":1},{"":487,"subject":18,"presentation_identifier":2,"trial":7,"between_identifier":0,"statement_identifier":94,"repeated":1,"rt":2.192,"response":1,"certainty":1},{"":488,"subject":18,"presentation_identifier":2,"trial":8,"between_identifier":0,"statement_identifier":1,"repeated":0,"rt":1.616,"response":0,"certainty":3},{"":489,"subject":18,"presentation_identifier":2,"trial":9,"between_identifier":0,"statement_identifier":95,"repeated":1,"rt":1.06,"response":1,"certainty":5},{"":490,"subject":18,"presentation_identifier":2,"trial":10,"between_identifier":0,"statement_identifier":28,"repeated":0,"rt":1.151,"response":1,"certainty":5},{"":491,"subject":18,"presentation_identifier":2,"trial":11,"between_identifier":0,"statement_identifier":42,"repeated":0,"rt":1.115,"response":0,"certainty":1},{"":492,"subject":18,"presentation_identifier":2,"trial":12,"between_identifier":0,"statement_identifier":36,"repeated":0,"rt":0.525,"response":1,"certainty":1},{"":493,"subject":18,"presentation_identifier":2,"trial":13,"between_identifier":0,"statement_identifier":44,"repeated":0,"rt":1.234,"response":1,"certainty":1},{"":494,"subject":18,"presentation_identifier":2,"trial":14,"between_identifier":0,"statement_identifier":6,"repeated":0,"rt":1.553,"response":1,"certainty":1},{"":495,"subject":18,"presentation_identifier":2,"trial":15,"between_identifier":0,"statement_identifier":31,"repeated":0,"rt":1.594,"response":0,"certainty":1},{"":496,"subject":18,"presentation_identifier":2,"trial":16,"between_identifier":0,"statement_identifier":96,"repeated":1,"rt":0.848,"response":1,"certainty":1},{"":497,"subject":18,"presentation_identifier":2,"trial":17,"between_identifier":0,"statement_identifier":13,"repeated":0,"rt":0.58,"response":1,"certainty":1},{"":498,"subject":18,"presentation_identifier":2,"trial":18,"between_identifier":0,"statement_identifier":97,"repeated":1,"rt":2.286,"response":1,"certainty":4},{"":499,"subject":18,"presentation_identifier":2,"trial":19,"between_identifier":0,"statement_identifier":20,"repeated":0,"rt":1.334,"response":0,"certainty":3},{"":500,"subject":18,"presentation_identifier":2,"trial":20,"between_identifier":0,"statement_identifier":54,"repeated":0,"rt":1.325,"response":1,"certainty":3},{"":501,"subject":18,"presentation_identifier":2,"trial":21,"between_identifier":0,"statement_identifier":98,"repeated":1,"rt":1.679,"response":1,"certainty":3},{"":502,"subject":18,"presentation_identifier":2,"trial":22,"between_identifier":0,"statement_identifier":99,"repeated":1,"rt":1.254,"response":1,"certainty":6},{"":503,"subject":18,"presentation_identifier":2,"trial":23,"between_identifier":0,"statement_identifier":40,"repeated":0,"rt":1.236,"response":0,"certainty":3},{"":504,"subject":18,"presentation_identifier":2,"trial":24,"between_identifier":0,"statement_identifier":100,"repeated":1,"rt":1.303,"response":1,"certainty":6},{"":505,"subject":18,"presentation_identifier":2,"trial":25,"between_identifier":0,"statement_identifier":12,"repeated":0,"rt":0.604,"response":1,"certainty":6},{"":506,"subject":18,"presentation_identifier":2,"trial":26,"between_identifier":0,"statement_identifier":101,"repeated":1,"rt":1.453,"response":0,"certainty":6},{"":507,"subject":18,"presentation_identifier":2,"trial":27,"between_identifier":0,"statement_identifier":102,"repeated":1,"rt":2.507,"response":1,"certainty":6},{"":508,"subject":18,"presentation_identifier":2,"trial":28,"between_identifier":0,"statement_identifier":103,"repeated":1,"rt":1.505,"response":0,"certainty":6},{"":509,"subject":18,"presentation_identifier":2,"trial":29,"between_identifier":0,"statement_identifier":16,"repeated":0,"rt":1.307,"response":0,"certainty":6},{"":510,"subject":18,"presentation_identifier":2,"trial":30,"between_identifier":0,"statement_identifier":41,"repeated":0,"rt":1.111,"response":1,"certainty":3},{"":511,"subject":18,"presentation_identifier":2,"trial":31,"between_identifier":0,"statement_identifier":104,"repeated":1,"rt":2.168,"response":1,"certainty":3},{"":512,"subject":18,"presentation_identifier":2,"trial":32,"between_identifier":0,"statement_identifier":105,"repeated":1,"rt":0.559,"response":1,"certainty":4},{"":513,"subject":18,"presentation_identifier":2,"trial":33,"between_identifier":0,"statement_identifier":106,"repeated":1,"rt":0.8,"response":1,"certainty":3},{"":514,"subject":18,"presentation_identifier":2,"trial":34,"between_identifier":0,"statement_identifier":25,"repeated":0,"rt":1.899,"response":0,"certainty":2},{"":515,"subject":18,"presentation_identifier":2,"trial":35,"between_identifier":0,"statement_identifier":107,"repeated":1,"rt":2.272,"response":0,"certainty":4},{"":516,"subject":18,"presentation_identifier":2,"trial":36,"between_identifier":0,"statement_identifier":35,"repeated":0,"rt":1.448,"response":1,"certainty":3},{"":517,"subject":18,"presentation_identifier":2,"trial":37,"between_identifier":0,"statement_identifier":43,"repeated":0,"rt":0.7,"response":1,"certainty":2},{"":518,"subject":18,"presentation_identifier":2,"trial":38,"between_identifier":0,"statement_identifier":108,"repeated":1,"rt":0.828,"response":1,"certainty":4},{"":519,"subject":18,"presentation_identifier":2,"trial":39,"between_identifier":0,"statement_identifier":57,"repeated":0,"rt":0.885,"response":0,"certainty":6},{"":520,"subject":18,"presentation_identifier":2,"trial":40,"between_identifier":0,"statement_identifier":109,"repeated":1,"rt":0.42,"response":1,"certainty":3},{"":521,"subject":18,"presentation_identifier":2,"trial":41,"between_identifier":0,"statement_identifier":21,"repeated":0,"rt":0.527,"response":1,"certainty":3},{"":522,"subject":18,"presentation_identifier":2,"trial":42,"between_identifier":0,"statement_identifier":24,"repeated":0,"rt":1.194,"response":0,"certainty":1},{"":523,"subject":18,"presentation_identifier":2,"trial":43,"between_identifier":0,"statement_identifier":3,"repeated":0,"rt":0.713,"response":0,"certainty":2},{"":524,"subject":18,"presentation_identifier":2,"trial":44,"between_identifier":0,"statement_identifier":110,"repeated":1,"rt":1.484,"response":1,"certainty":2},{"":525,"subject":18,"presentation_identifier":2,"trial":45,"between_identifier":0,"statement_identifier":111,"repeated":1,"rt":0.893,"response":1,"certainty":3},{"":526,"subject":18,"presentation_identifier":2,"trial":46,"between_identifier":0,"statement_identifier":29,"repeated":0,"rt":0.891,"response":0,"certainty":1},{"":527,"subject":18,"presentation_identifier":2,"trial":47,"between_identifier":0,"statement_identifier":112,"repeated":1,"rt":1.841,"response":1,"certainty":2},{"":528,"subject":18,"presentation_identifier":2,"trial":48,"between_identifier":0,"statement_identifier":113,"repeated":1,"rt":0.524,"response":1,"certainty":6},{"":529,"subject":18,"presentation_identifier":2,"trial":49,"between_identifier":0,"statement_identifier":10,"repeated":0,"rt":1.051,"response":0,"certainty":6},{"":530,"subject":18,"presentation_identifier":2,"trial":50,"between_identifier":0,"statement_identifier":51,"repeated":0,"rt":0.72,"response":1,"certainty":3},{"":531,"subject":18,"presentation_identifier":2,"trial":51,"between_identifier":0,"statement_identifier":2,"repeated":0,"rt":1.292,"response":0,"certainty":4},{"":532,"subject":18,"presentation_identifier":2,"trial":52,"between_identifier":0,"statement_identifier":114,"repeated":1,"rt":0.864,"response":1,"certainty":3},{"":533,"subject":18,"presentation_identifier":2,"trial":53,"between_identifier":0,"statement_identifier":60,"repeated":0,"rt":0.898,"response":0,"certainty":1},{"":534,"subject":18,"presentation_identifier":2,"trial":54,"between_identifier":0,"statement_identifier":115,"repeated":1,"rt":0.417,"response":1,"certainty":2},{"":535,"subject":18,"presentation_identifier":2,"trial":55,"between_identifier":0,"statement_identifier":45,"repeated":0,"rt":1.216,"response":0,"certainty":6},{"":536,"subject":18,"presentation_identifier":2,"trial":56,"between_identifier":0,"statement_identifier":116,"repeated":1,"rt":0.718,"response":1,"certainty":1},{"":537,"subject":18,"presentation_identifier":2,"trial":57,"between_identifier":0,"statement_identifier":117,"repeated":1,"rt":0.954,"response":1,"certainty":6},{"":538,"subject":18,"presentation_identifier":2,"trial":58,"between_identifier":0,"statement_identifier":118,"repeated":1,"rt":0.687,"response":1,"certainty":2},{"":539,"subject":18,"presentation_identifier":2,"trial":59,"between_identifier":0,"statement_identifier":119,"repeated":1,"rt":1.219,"response":0,"certainty":6},{"":540,"subject":18,"presentation_identifier":2,"trial":60,"between_identifier":0,"statement_identifier":120,"repeated":1,"rt":0.998,"response":1,"certainty":3},{"":541,"subject":20,"presentation_identifier":2,"trial":1,"between_identifier":0,"statement_identifier":1,"repeated":1,"rt":24.135,"response":1,"certainty":3},{"":542,"subject":20,"presentation_identifier":2,"trial":2,"between_identifier":0,"statement_identifier":48,"repeated":1,"rt":2.508,"response":0,"certainty":5},{"":543,"subject":20,"presentation_identifier":2,"trial":3,"between_identifier":0,"statement_identifier":105,"repeated":0,"rt":4.998,"response":1,"certainty":2},{"":544,"subject":20,"presentation_identifier":2,"trial":4,"between_identifier":0,"statement_identifier":44,"repeated":1,"rt":4.055,"response":1,"certainty":2},{"":545,"subject":20,"presentation_identifier":2,"trial":5,"between_identifier":0,"statement_identifier":36,"repeated":1,"rt":0.95,"response":1,"certainty":1},{"":546,"subject":20,"presentation_identifier":2,"trial":6,"between_identifier":0,"statement_identifier":20,"repeated":1,"rt":3.755,"response":0,"certainty":6},{"":547,"subject":20,"presentation_identifier":2,"trial":7,"between_identifier":0,"statement_identifier":2,"repeated":1,"rt":2.832,"response":1,"certainty":4},{"":548,"subject":20,"presentation_identifier":2,"trial":8,"between_identifier":0,"statement_identifier":115,"repeated":0,"rt":3.635,"response":1,"certainty":2},{"":549,"subject":20,"presentation_identifier":2,"trial":9,"between_identifier":0,"statement_identifier":120,"repeated":0,"rt":2.337,"response":1,"certainty":1},{"":550,"subject":20,"presentation_identifier":2,"trial":10,"between_identifier":0,"statement_identifier":54,"repeated":1,"rt":1.671,"response":1,"certainty":5},{"":551,"subject":20,"presentation_identifier":2,"trial":11,"between_identifier":0,"statement_identifier":60,"repeated":1,"rt":1.75,"response":1,"certainty":3},{"":552,"subject":20,"presentation_identifier":2,"trial":12,"between_identifier":0,"statement_identifier":42,"repeated":1,"rt":1.253,"response":1,"certainty":2},{"":553,"subject":20,"presentation_identifier":2,"trial":13,"between_identifier":0,"statement_identifier":12,"repeated":1,"rt":7.011,"response":0,"certainty":1},{"":554,"subject":20,"presentation_identifier":2,"trial":14,"between_identifier":0,"statement_identifier":94,"repeated":0,"rt":2.311,"response":1,"certainty":5},{"":555,"subject":20,"presentation_identifier":2,"trial":15,"between_identifier":0,"statement_identifier":57,"repeated":1,"rt":0.821,"response":1,"certainty":3},{"":556,"subject":20,"presentation_identifier":2,"trial":16,"between_identifier":0,"statement_identifier":107,"repeated":0,"rt":1.831,"response":0,"certainty":3},{"":557,"subject":20,"presentation_identifier":2,"trial":17,"between_identifier":0,"statement_identifier":99,"repeated":0,"rt":3.179,"response":1,"certainty":3},{"":558,"subject":20,"presentation_identifier":2,"trial":18,"between_identifier":0,"statement_identifier":112,"repeated":0,"rt":6.818,"response":0,"certainty":4},{"":559,"subject":20,"presentation_identifier":2,"trial":19,"between_identifier":0,"statement_identifier":93,"repeated":0,"rt":4.402,"response":1,"certainty":3},{"":560,"subject":20,"presentation_identifier":2,"trial":20,"between_identifier":0,"statement_identifier":104,"repeated":0,"rt":5.059,"response":1,"certainty":2},{"":561,"subject":20,"presentation_identifier":2,"trial":21,"between_identifier":0,"statement_identifier":41,"repeated":1,"rt":0.39,"response":1,"certainty":5},{"":562,"subject":20,"presentation_identifier":2,"trial":22,"between_identifier":0,"statement_identifier":97,"repeated":0,"rt":3.732,"response":1,"certainty":2},{"":563,"subject":20,"presentation_identifier":2,"trial":23,"between_identifier":0,"statement_identifier":35,"repeated":1,"rt":0.46,"response":1,"certainty":6},{"":564,"subject":20,"presentation_identifier":2,"trial":24,"between_identifier":0,"statement_identifier":98,"repeated":0,"rt":1.135,"response":1,"certainty":3},{"":565,"subject":20,"presentation_identifier":2,"trial":25,"between_identifier":0,"statement_identifier":29,"repeated":1,"rt":1.01,"response":1,"certainty":2},{"":566,"subject":20,"presentation_identifier":2,"trial":26,"between_identifier":0,"statement_identifier":3,"repeated":1,"rt":1.43,"response":1,"certainty":1},{"":567,"subject":20,"presentation_identifier":2,"trial":27,"between_identifier":0,"statement_identifier":111,"repeated":0,"rt":1.087,"response":0,"certainty":1},{"":568,"subject":20,"presentation_identifier":2,"trial":28,"between_identifier":0,"statement_identifier":118,"repeated":0,"rt":10.106,"response":1,"certainty":2},{"":569,"subject":20,"presentation_identifier":2,"trial":29,"between_identifier":0,"statement_identifier":51,"repeated":1,"rt":6.922,"response":1,"certainty":4},{"":570,"subject":20,"presentation_identifier":2,"trial":30,"between_identifier":0,"statement_identifier":100,"repeated":0,"rt":1.604,"response":0,"certainty":2},{"":571,"subject":20,"presentation_identifier":2,"trial":31,"between_identifier":0,"statement_identifier":116,"repeated":0,"rt":2.447,"response":1,"certainty":2},{"":572,"subject":20,"presentation_identifier":2,"trial":32,"between_identifier":0,"statement_identifier":31,"repeated":1,"rt":1.16,"response":0,"certainty":1},{"":573,"subject":20,"presentation_identifier":2,"trial":33,"between_identifier":0,"statement_identifier":102,"repeated":0,"rt":1.276,"response":1,"certainty":1},{"":574,"subject":20,"presentation_identifier":2,"trial":34,"between_identifier":0,"statement_identifier":18,"repeated":1,"rt":0.82,"response":1,"certainty":4},{"":575,"subject":20,"presentation_identifier":2,"trial":35,"between_identifier":0,"statement_identifier":16,"repeated":1,"rt":7.373,"response":0,"certainty":2},{"":576,"subject":20,"presentation_identifier":2,"trial":36,"between_identifier":0,"statement_identifier":109,"repeated":0,"rt":1.37,"response":1,"certainty":2},{"":577,"subject":20,"presentation_identifier":2,"trial":37,"between_identifier":0,"statement_identifier":92,"repeated":0,"rt":0.89,"response":1,"certainty":3},{"":578,"subject":20,"presentation_identifier":2,"trial":38,"between_identifier":0,"statement_identifier":43,"repeated":1,"rt":0.609,"response":0,"certainty":2},{"":579,"subject":20,"presentation_identifier":2,"trial":39,"between_identifier":0,"statement_identifier":101,"repeated":0,"rt":2.422,"response":0,"certainty":1},{"":580,"subject":20,"presentation_identifier":2,"trial":40,"between_identifier":0,"statement_identifier":119,"repeated":0,"rt":6.94,"response":0,"certainty":2},{"":581,"subject":20,"presentation_identifier":2,"trial":41,"between_identifier":0,"statement_identifier":10,"repeated":1,"rt":4.192,"response":0,"certainty":4},{"":582,"subject":20,"presentation_identifier":2,"trial":42,"between_identifier":0,"statement_identifier":45,"repeated":1,"rt":1.09,"response":0,"certainty":6},{"":583,"subject":20,"presentation_identifier":2,"trial":43,"between_identifier":0,"statement_identifier":25,"repeated":1,"rt":1.491,"response":1,"certainty":2},{"":584,"subject":20,"presentation_identifier":2,"trial":44,"between_identifier":0,"statement_identifier":24,"repeated":1,"rt":0.775,"response":1,"certainty":3},{"":585,"subject":20,"presentation_identifier":2,"trial":45,"between_identifier":0,"statement_identifier":110,"repeated":0,"rt":1.574,"response":1,"certainty":1},{"":586,"subject":20,"presentation_identifier":2,"trial":46,"between_identifier":0,"statement_identifier":13,"repeated":1,"rt":0.44,"response":1,"certainty":4},{"":587,"subject":20,"presentation_identifier":2,"trial":47,"between_identifier":0,"statement_identifier":21,"repeated":1,"rt":0.447,"response":1,"certainty":6},{"":588,"subject":20,"presentation_identifier":2,"trial":48,"between_identifier":0,"statement_identifier":53,"repeated":1,"rt":0.653,"response":0,"certainty":1},{"":589,"subject":20,"presentation_identifier":2,"trial":49,"between_identifier":0,"statement_identifier":117,"repeated":0,"rt":0.655,"response":0,"certainty":3},{"":590,"subject":20,"presentation_identifier":2,"trial":50,"between_identifier":0,"statement_identifier":28,"repeated":1,"rt":2.267,"response":1,"certainty":5},{"":591,"subject":20,"presentation_identifier":2,"trial":51,"between_identifier":0,"statement_identifier":103,"repeated":0,"rt":0.726,"response":0,"certainty":4},{"":592,"subject":20,"presentation_identifier":2,"trial":52,"between_identifier":0,"statement_identifier":96,"repeated":0,"rt":2.649,"response":0,"certainty":6},{"":593,"subject":20,"presentation_identifier":2,"trial":53,"between_identifier":0,"statement_identifier":106,"repeated":0,"rt":0.498,"response":1,"certainty":1},{"":594,"subject":20,"presentation_identifier":2,"trial":54,"between_identifier":0,"statement_identifier":91,"repeated":0,"rt":9.204,"response":0,"certainty":1},{"":595,"subject":20,"presentation_identifier":2,"trial":55,"between_identifier":0,"statement_identifier":40,"repeated":1,"rt":2.538,"response":0,"certainty":1},{"":596,"subject":20,"presentation_identifier":2,"trial":56,"between_identifier":0,"statement_identifier":6,"repeated":1,"rt":0.736,"response":0,"certainty":3},{"":597,"subject":20,"presentation_identifier":2,"trial":57,"between_identifier":0,"statement_identifier":114,"repeated":0,"rt":1.975,"response":1,"certainty":5},{"":598,"subject":20,"presentation_identifier":2,"trial":58,"between_identifier":0,"statement_identifier":113,"repeated":0,"rt":0.542,"response":1,"certainty":1},{"":599,"subject":20,"presentation_identifier":2,"trial":59,"between_identifier":0,"statement_identifier":95,"repeated":0,"rt":7.1,"response":1,"certainty":3},{"":600,"subject":20,"presentation_identifier":2,"trial":60,"between_identifier":0,"statement_identifier":108,"repeated":0,"rt":2.159,"response":0,"certainty":5},{"":601,"subject":24,"presentation_identifier":2,"trial":1,"between_identifier":0,"statement_identifier":114,"repeated":0,"rt":2.461,"response":1,"certainty":4},{"":602,"subject":24,"presentation_identifier":2,"trial":2,"between_identifier":0,"statement_identifier":103,"repeated":0,"rt":2.193,"response":1,"certainty":6},{"":603,"subject":24,"presentation_identifier":2,"trial":3,"between_identifier":0,"statement_identifier":58,"repeated":1,"rt":1.243,"response":1,"certainty":6},{"":604,"subject":24,"presentation_identifier":2,"trial":4,"between_identifier":0,"statement_identifier":113,"repeated":0,"rt":1.78,"response":0,"certainty":2},{"":605,"subject":24,"presentation_identifier":2,"trial":5,"between_identifier":0,"statement_identifier":37,"repeated":1,"rt":1.648,"response":1,"certainty":5},{"":606,"subject":24,"presentation_identifier":2,"trial":6,"between_identifier":0,"statement_identifier":27,"repeated":1,"rt":1.507,"response":1,"certainty":4},{"":607,"subject":24,"presentation_identifier":2,"trial":7,"between_identifier":0,"statement_identifier":91,"repeated":0,"rt":2.475,"response":0,"certainty":1},{"":608,"subject":24,"presentation_identifier":2,"trial":8,"between_identifier":0,"statement_identifier":56,"repeated":1,"rt":2.001,"response":1,"certainty":3},{"":609,"subject":24,"presentation_identifier":2,"trial":9,"between_identifier":0,"statement_identifier":99,"repeated":0,"rt":3.328,"response":1,"certainty":5},{"":610,"subject":24,"presentation_identifier":2,"trial":10,"between_identifier":0,"statement_identifier":93,"repeated":0,"rt":3.002,"response":0,"certainty":1},{"":611,"subject":24,"pres