"","subject","statement_identifier","presentation_identifier","within_identifier","between_identifier","rt","response","repeated","trial"
"1",2,1,1,1,"noatt_nocred",7.026,1,0,NA
"2",2,2,1,1,"noatt_nocred",5.021,1,1,NA
"3",2,3,1,1,"noatt_nocred",10.527,0,1,NA
"4",2,4,1,1,"noatt_nocred",6.423,0,1,NA
"5",2,5,1,1,"noatt_nocred",6.298,0,0,NA
"6",2,6,1,1,"noatt_nocred",5.294,1,0,NA
"7",2,7,1,1,"noatt_nocred",5.4,1,1,NA
"8",2,8,1,1,"noatt_nocred",7.125,0,1,NA
"9",2,9,1,1,"noatt_nocred",6.209,1,1,NA
"10",2,10,1,1,"noatt_nocred",5.54,0,0,NA
"11",2,11,1,1,"noatt_nocred",4.462,0,0,NA
"12",2,12,1,1,"noatt_nocred",6.672,1,0,NA
"13",2,13,1,1,"noatt_nocred",4.357,1,0,NA
"14",2,14,1,1,"noatt_nocred",6.392,1,0,NA
"15",2,15,1,1,"noatt_nocred",5.651,1,1,NA
"16",2,16,1,1,"noatt_nocred",11.643,1,1,NA
"17",2,17,1,1,"noatt_nocred",6.63,0,0,NA
"18",2,18,1,1,"noatt_nocred",8.91,1,1,NA
"19",2,19,1,1,"noatt_nocred",4.648,1,1,NA
"20",2,20,1,1,"noatt_nocred",4.508,1,1,NA
"21",2,21,1,1,"noatt_nocred",5.671,1,1,NA
"22",2,22,1,1,"noatt_nocred",8.188,0,1,NA
"23",2,23,1,1,"noatt_nocred",7.138,0,0,NA
"24",2,24,1,1,"noatt_nocred",5.556,0,1,NA
"25",2,25,1,1,"noatt_nocred",5.369,1,1,NA
"26",2,26,1,1,"noatt_nocred",4.058,0,0,NA
"27",2,27,1,1,"noatt_nocred",5.251,0,0,NA
"28",2,28,1,1,"noatt_nocred",16.104,1,0,NA
"29",2,29,1,1,"noatt_nocred",3.929,1,0,NA
"30",2,30,1,1,"noatt_nocred",11.464,1,0,NA
"31",2,31,1,1,"noatt_nocred",6.21,1,1,NA
"32",2,32,1,1,"noatt_nocred",4.186,0,0,NA
"33",2,33,1,1,"noatt_nocred",3.625,0,1,NA
"34",2,34,1,1,"noatt_nocred",6.877,0,0,NA
"35",2,35,1,1,"noatt_nocred",4.403,0,0,NA
"36",2,36,1,1,"noatt_nocred",4.808,0,0,NA
"37",2,37,1,1,"noatt_nocred",11.147,0,0,NA
"38",2,38,1,1,"noatt_nocred",3.314,1,1,NA
"39",2,39,1,1,"noatt_nocred",5.129,1,0,NA
"40",2,40,1,1,"noatt_nocred",3.369,1,0,NA
"41",2,41,1,1,"noatt_nocred",0.349,0,1,NA
"42",2,42,1,1,"noatt_nocred",8.1,1,1,NA
"43",2,43,1,1,"noatt_nocred",5.22,1,1,NA
"44",2,44,1,1,"noatt_nocred",5.935,1,1,NA
"45",2,45,1,1,"noatt_nocred",7.712,1,0,NA
"46",2,46,1,1,"noatt_nocred",8.365,0,1,NA
"47",2,47,1,1,"noatt_nocred",4.83,1,1,NA
"48",2,48,1,1,"noatt_nocred",7.441,0,0,NA
"49",2,49,1,1,"noatt_nocred",9.344,1,0,NA
"50",2,50,1,1,"noatt_nocred",4.018,1,1,NA
"51",2,51,1,1,"noatt_nocred",5.209,1,1,NA
"52",2,52,1,1,"noatt_nocred",3.575,1,1,NA
"53",2,53,1,1,"noatt_nocred",4.994,1,1,NA
"54",2,54,1,1,"noatt_nocred",5.469,0,0,NA
"55",2,55,1,1,"noatt_nocred",4.259,1,0,NA
"56",2,56,1,1,"noatt_nocred",4.357,0,0,NA
"57",101,57,1,1,"noatt_nocred",2.76,1,1,NA
"58",101,58,1,1,"noatt_nocred",2.09,1,0,NA
"59",101,59,1,1,"noatt_nocred",3.262,1,0,NA
"60",101,60,1,1,"noatt_nocred",3.504,0,1,NA
"61",101,61,1,1,"noatt_nocred",3.257,1,1,NA
"62",101,6,1,1,"noatt_nocred",3.04,1,1,NA
"63",101,62,1,1,"noatt_nocred",2.008,1,1,NA
"64",101,8,1,1,"noatt_nocred",1.874,0,0,NA
"65",101,63,1,1,"noatt_nocred",2.371,1,1,NA
"66",101,10,1,1,"noatt_nocred",1.56,1,0,NA
"67",101,11,1,1,"noatt_nocred",2.531,0,0,NA
"68",101,12,1,1,"noatt_nocred",2.115,0,1,NA
"69",101,64,1,1,"noatt_nocred",4.154,1,0,NA
"70",101,65,1,1,"noatt_nocred",2.129,1,1,NA
"71",101,15,1,1,"noatt_nocred",3.619,0,0,NA
"72",101,66,1,1,"noatt_nocred",6.066,1,1,NA
"73",101,17,1,1,"noatt_nocred",3.182,1,1,NA
"74",101,67,1,1,"noatt_nocred",6.77,0,1,NA
"75",101,68,1,1,"noatt_nocred",1.905,1,0,NA
"76",101,20,1,1,"noatt_nocred",2.346,1,0,NA
"77",101,69,1,1,"noatt_nocred",5.776,0,0,NA
"78",101,70,1,1,"noatt_nocred",2.154,1,0,NA
"79",101,23,1,1,"noatt_nocred",3.176,0,0,NA
"80",101,71,1,1,"noatt_nocred",1.95,0,0,NA
"81",101,25,1,1,"noatt_nocred",3.309,1,1,NA
"82",101,72,1,1,"noatt_nocred",3.23,1,1,NA
"83",101,73,1,1,"noatt_nocred",3.271,1,1,NA
"84",101,26,1,1,"noatt_nocred",1.945,0,1,NA
"85",101,74,1,1,"noatt_nocred",2.674,1,0,NA
"86",101,28,1,1,"noatt_nocred",4.632,1,0,NA
"87",101,29,1,1,"noatt_nocred",1.395,1,0,NA
"88",101,30,1,1,"noatt_nocred",9.296,1,1,NA
"89",101,31,1,1,"noatt_nocred",2.625,1,0,NA
"90",101,75,1,1,"noatt_nocred",3.174,0,0,NA
"91",101,33,1,1,"noatt_nocred",1.866,1,0,NA
"92",101,35,1,1,"noatt_nocred",2.514,1,1,NA
"93",101,76,1,1,"noatt_nocred",3.091,1,0,NA
"94",101,77,1,1,"noatt_nocred",2.034,1,0,NA
"95",101,38,1,1,"noatt_nocred",1.568,1,1,NA
"96",101,39,1,1,"noatt_nocred",2.572,1,1,NA
"97",101,40,1,1,"noatt_nocred",1.678,1,1,NA
"98",101,41,1,1,"noatt_nocred",3.065,0,0,NA
"99",101,78,1,1,"noatt_nocred",2.24,1,1,NA
"100",101,43,1,1,"noatt_nocred",2.249,1,0,NA
"101",101,45,1,1,"noatt_nocred",2.57,1,1,NA
"102",101,79,1,1,"noatt_nocred",2.202,1,1,NA
"103",101,80,1,1,"noatt_nocred",2.378,1,0,NA
"104",101,47,1,1,"noatt_nocred",2.694,1,1,NA
"105",101,81,1,1,"noatt_nocred",2.601,1,1,NA
"106",101,50,1,1,"noatt_nocred",3.628,0,0,NA
"107",101,52,1,1,"noatt_nocred",0.975,1,0,NA
"108",101,82,1,1,"noatt_nocred",3.033,1,1,NA
"109",101,54,1,1,"noatt_nocred",4.902,0,1,NA
"110",101,55,1,1,"noatt_nocred",3.906,1,1,NA
"111",101,56,1,1,"noatt_nocred",2.42,0,0,NA
"112",101,83,1,1,"noatt_nocred",4.018,0,0,NA
"113",185,57,1,1,"noatt_nocred",2.71,0,1,NA
"114",185,58,1,1,"noatt_nocred",3.089,1,0,NA
"115",185,59,1,1,"noatt_nocred",2.973,1,1,NA
"116",185,4,1,1,"noatt_nocred",4.435,0,0,NA
"117",185,61,1,1,"noatt_nocred",2.931,1,1,NA
"118",185,84,1,1,"noatt_nocred",3.038,1,1,NA
"119",185,7,1,1,"noatt_nocred",7.241,0,1,NA
"120",185,63,1,1,"noatt_nocred",2.922,1,1,NA
"121",185,10,1,1,"noatt_nocred",3.865,0,1,NA
"122",185,85,1,1,"noatt_nocred",3.977,1,1,NA
"123",185,12,1,1,"noatt_nocred",1.548,1,1,NA
"124",185,64,1,1,"noatt_nocred",4.011,0,1,NA
"125",185,65,1,1,"noatt_nocred",4.69,0,0,NA
"126",185,86,1,1,"noatt_nocred",2.022,1,1,NA
"127",185,15,1,1,"noatt_nocred",3.51,1,0,NA
"128",185,16,1,1,"noatt_nocred",2.106,0,0,NA
"129",185,87,1,1,"noatt_nocred",3.875,1,0,NA
"130",185,18,1,1,"noatt_nocred",2.581,1,0,NA
"131",185,68,1,1,"noatt_nocred",3.902,1,1,NA
"132",185,20,1,1,"noatt_nocred",3.291,0,0,NA
"133",185,21,1,1,"noatt_nocred",2.608,0,0,NA
"134",185,22,1,1,"noatt_nocred",3.496,1,0,NA
"135",185,71,1,1,"noatt_nocred",4.022,1,0,NA
"136",185,88,1,1,"noatt_nocred",3.248,0,1,NA
"137",185,89,1,1,"noatt_nocred",3.977,1,1,NA
"138",185,73,1,1,"noatt_nocred",2.763,0,1,NA
"139",185,26,1,1,"noatt_nocred",1.942,0,0,NA
"140",185,27,1,1,"noatt_nocred",3.781,0,0,NA
"141",185,28,1,1,"noatt_nocred",4.633,0,0,NA
"142",185,29,1,1,"noatt_nocred",2.461,1,1,NA
"143",185,30,1,1,"noatt_nocred",2.441,0,1,NA
"144",185,75,1,1,"noatt_nocred",2.12,1,1,NA
"145",185,90,1,1,"noatt_nocred",1.885,1,0,NA
"146",185,34,1,1,"noatt_nocred",1.813,0,0,NA
"147",185,35,1,1,"noatt_nocred",2.64,1,0,NA
"148",185,76,1,1,"noatt_nocred",3.126,0,0,NA
"149",185,77,1,1,"noatt_nocred",3.87,1,1,NA
"150",185,91,1,1,"noatt_nocred",2.863,0,1,NA
"151",185,92,1,1,"noatt_nocred",3.4,0,0,NA
"152",185,93,1,1,"noatt_nocred",3.404,0,0,NA
"153",185,94,1,1,"noatt_nocred",3.3,0,0,NA
"154",185,78,1,1,"noatt_nocred",3.365,1,1,NA
"155",185,95,1,1,"noatt_nocred",4.697,1,0,NA
"156",185,79,1,1,"noatt_nocred",2.576,0,0,NA
"157",185,46,1,1,"noatt_nocred",2.048,0,1,NA
"158",185,47,1,1,"noatt_nocred",4.874,0,1,NA
"159",185,49,1,1,"noatt_nocred",2.872,1,1,NA
"160",185,96,1,1,"noatt_nocred",3.643,0,0,NA
"161",185,97,1,1,"noatt_nocred",7.756,0,0,NA
"162",185,98,1,1,"noatt_nocred",4.244,1,1,NA
"163",185,53,1,1,"noatt_nocred",4.051,0,0,NA
"164",185,99,1,1,"noatt_nocred",2.907,0,0,NA
"165",185,100,1,1,"noatt_nocred",6.044,0,1,NA
"166",185,101,1,1,"noatt_nocred",1.771,1,1,NA
"167",185,56,1,1,"noatt_nocred",3.862,0,1,NA
"168",185,83,1,1,"noatt_nocred",5.365,0,0,NA
"169",186,1,1,1,"att_nocred",9.655,0,1,NA
"170",186,2,1,1,"att_nocred",3.424,1,1,NA
"171",186,59,1,1,"att_nocred",15.892,1,0,NA
"172",186,61,1,1,"att_nocred",7.813,1,1,NA
"173",186,6,1,1,"att_nocred",9.507,1,0,NA
"174",186,7,1,1,"att_nocred",2.553,0,1,NA
"175",186,8,1,1,"att_nocred",13.86,0,0,NA
"176",186,9,1,1,"att_nocred",3.908,0,0,NA
"177",186,102,1,1,"att_nocred",3.702,0,0,NA
"178",186,85,1,1,"att_nocred",7.373,0,1,NA
"179",186,103,1,1,"att_nocred",8.334,1,1,NA
"180",186,64,1,1,"att_nocred",5.541,1,1,NA
"181",186,65,1,1,"att_nocred",10.494,1,0,NA
"182",186,86,1,1,"att_nocred",4.293,1,0,NA
"183",186,104,1,1,"att_nocred",6.225,0,1,NA
"184",186,16,1,1,"att_nocred",8.998,1,0,NA
"185",186,87,1,1,"att_nocred",9.483,1,1,NA
"186",186,67,1,1,"att_nocred",5.059,1,0,NA
"187",186,19,1,1,"att_nocred",7.166,0,0,NA
"188",186,105,1,1,"att_nocred",6.877,1,1,NA
"189",186,69,1,1,"att_nocred",7.445,1,0,NA
"190",186,70,1,1,"att_nocred",13.062,0,1,NA
"191",186,23,1,1,"att_nocred",13.457,0,1,NA
"192",186,71,1,1,"att_nocred",12.929,1,0,NA
"193",186,25,1,1,"att_nocred",10.283,1,1,NA
"194",186,72,1,1,"att_nocred",4.475,1,1,NA
"195",186,26,1,1,"att_nocred",3.67,1,0,NA
"196",186,27,1,1,"att_nocred",4.364,0,1,NA
"197",186,106,1,1,"att_nocred",7.918,1,1,NA
"198",186,107,1,1,"att_nocred",7.344,1,0,NA
"199",186,31,1,1,"att_nocred",6.253,1,0,NA
"200",186,75,1,1,"att_nocred",2.602,1,0,NA
"201",186,33,1,1,"att_nocred",9.404,0,1,NA
"202",186,34,1,1,"att_nocred",4.035,1,0,NA
"203",186,35,1,1,"att_nocred",9.995,1,1,NA
"204",186,36,1,1,"att_nocred",5.627,1,0,NA
"205",186,77,1,1,"att_nocred",8.635,1,0,NA
"206",186,38,1,1,"att_nocred",13.872,1,0,NA
"207",186,39,1,1,"att_nocred",1.704,0,1,NA
"208",186,40,1,1,"att_nocred",3.13,1,1,NA
"209",186,41,1,1,"att_nocred",9.192,0,1,NA
"210",186,78,1,1,"att_nocred",8.329,1,0,NA
"211",186,108,1,1,"att_nocred",2.752,1,1,NA
"212",186,79,1,1,"att_nocred",3.902,0,0,NA
"213",186,46,1,1,"att_nocred",4.44,0,1,NA
"214",186,109,1,1,"att_nocred",1.972,1,1,NA
"215",186,48,1,1,"att_nocred",16.194,0,1,NA
"216",186,81,1,1,"att_nocred",10.788,1,0,NA
"217",186,50,1,1,"att_nocred",6.654,1,1,NA
"218",186,51,1,1,"att_nocred",9.746,0,0,NA
"219",186,52,1,1,"att_nocred",8.743,0,1,NA
"220",186,82,1,1,"att_nocred",8.592,0,0,NA
"221",186,100,1,1,"att_nocred",4.464,1,0,NA
"222",186,101,1,1,"att_nocred",5.936,1,0,NA
"223",186,110,1,1,"att_nocred",6.018,1,1,NA
"224",186,83,1,1,"att_nocred",8.958,0,0,NA
"225",188,1,1,1,"att_nocred",1.726,1,1,NA
"226",188,58,1,1,"att_nocred",2.354,1,1,NA
"227",188,3,1,1,"att_nocred",1.832,1,1,NA
"228",188,60,1,1,"att_nocred",5.243,0,0,NA
"229",188,5,1,1,"att_nocred",8.764,0,1,NA
"230",188,6,1,1,"att_nocred",1.699,1,1,NA
"231",188,7,1,1,"att_nocred",11.316,0,0,NA
"232",188,8,1,1,"att_nocred",4.911,1,0,NA
"233",188,9,1,1,"att_nocred",2.909,0,0,NA
"234",188,10,1,1,"att_nocred",2.423,1,0,NA
"235",188,85,1,1,"att_nocred",5.645,1,0,NA
"236",188,103,1,1,"att_nocred",3.501,1,0,NA
"237",188,64,1,1,"att_nocred",3.669,0,0,NA
"238",188,65,1,1,"att_nocred",1.085,1,1,NA
"239",188,104,1,1,"att_nocred",4.811,0,1,NA
"240",188,16,1,1,"att_nocred",3.52,0,0,NA
"241",188,87,1,1,"att_nocred",6.215,0,0,NA
"242",188,68,1,1,"att_nocred",1.248,1,1,NA
"243",188,20,1,1,"att_nocred",3.652,1,0,NA
"244",188,69,1,1,"att_nocred",3.485,1,0,NA
"245",188,22,1,1,"att_nocred",3.389,1,0,NA
"246",188,23,1,1,"att_nocred",6.629,1,1,NA
"247",188,71,1,1,"att_nocred",10.633,0,0,NA
"248",188,25,1,1,"att_nocred",9.709,0,1,NA
"249",188,89,1,1,"att_nocred",5.479,1,1,NA
"250",188,73,1,1,"att_nocred",5.755,0,1,NA
"251",188,26,1,1,"att_nocred",9.542,0,0,NA
"252",188,27,1,1,"att_nocred",10.856,1,1,NA
"253",188,111,1,1,"att_nocred",7.179,0,0,NA
"254",188,106,1,1,"att_nocred",2.434,1,1,NA
"255",188,107,1,1,"att_nocred",6.012,1,0,NA
"256",188,112,1,1,"att_nocred",11.877,0,1,NA
"257",188,32,1,1,"att_nocred",2.655,1,1,NA
"258",188,33,1,1,"att_nocred",5.039,1,1,NA
"259",188,113,1,1,"att_nocred",4.287,1,0,NA
"260",188,114,1,1,"att_nocred",3.886,1,0,NA
"261",188,36,1,1,"att_nocred",1.912,1,1,NA
"262",188,77,1,1,"att_nocred",8.087,1,0,NA
"263",188,92,1,1,"att_nocred",9.27,0,0,NA
"264",188,93,1,1,"att_nocred",2.4,1,1,NA
"265",188,94,1,1,"att_nocred",4.344,1,0,NA
"266",188,42,1,1,"att_nocred",2.93,1,0,NA
"267",188,43,1,1,"att_nocred",1.565,1,1,NA
"268",188,95,1,1,"att_nocred",4.514,1,1,NA
"269",188,44,1,1,"att_nocred",3.228,1,1,NA
"270",188,45,1,1,"att_nocred",9.383,1,0,NA
"271",188,80,1,1,"att_nocred",4.601,1,1,NA
"272",188,109,1,1,"att_nocred",4.063,1,0,NA
"273",188,81,1,1,"att_nocred",7.518,0,0,NA
"274",188,96,1,1,"att_nocred",1.647,1,1,NA
"275",188,51,1,1,"att_nocred",4.573,0,0,NA
"276",188,53,1,1,"att_nocred",2.077,1,1,NA
"277",188,100,1,1,"att_nocred",1.33,1,1,NA
"278",188,55,1,1,"att_nocred",5.534,0,0,NA
"279",188,56,1,1,"att_nocred",1.821,1,1,NA
"280",188,83,1,1,"att_nocred",5.956,0,1,NA
"281",189,57,1,1,"noatt_cred",12.158,0,1,NA
"282",189,2,1,1,"noatt_cred",3.697,0,1,NA
"283",189,3,1,1,"noatt_cred",15.944,0,0,NA
"284",189,4,1,1,"noatt_cred",5.13,0,1,NA
"285",189,61,1,1,"noatt_cred",12.051,1,1,NA
"286",189,6,1,1,"noatt_cred",4.407,0,0,NA
"287",189,62,1,1,"noatt_cred",7.51,0,1,NA
"288",189,8,1,1,"noatt_cred",2.87,0,0,NA
"289",189,9,1,1,"noatt_cred",6.593,1,0,NA
"290",189,102,1,1,"noatt_cred",3.825,0,1,NA
"291",189,11,1,1,"noatt_cred",16.363,0,0,NA
"292",189,64,1,1,"noatt_cred",8.551,0,0,NA
"293",189,65,1,1,"noatt_cred",8.346,1,0,NA
"294",189,15,1,1,"noatt_cred",3.813,1,0,NA
"295",189,66,1,1,"noatt_cred",7.91,0,1,NA
"296",189,67,1,1,"noatt_cred",5.443,1,0,NA
"297",189,19,1,1,"noatt_cred",8.371,0,0,NA
"298",189,20,1,1,"noatt_cred",4.319,0,1,NA
"299",189,21,1,1,"noatt_cred",8.724,0,1,NA
"300",189,70,1,1,"noatt_cred",4.347,1,1,NA
"301",189,115,1,1,"noatt_cred",12.009,1,0,NA
"302",189,24,1,1,"noatt_cred",9.906,0,0,NA
"303",189,25,1,1,"noatt_cred",7.573,1,1,NA
"304",189,89,1,1,"noatt_cred",24.128,0,0,NA
"305",189,73,1,1,"noatt_cred",2.674,1,1,NA
"306",189,26,1,1,"noatt_cred",4.857,1,0,NA
"307",189,74,1,1,"noatt_cred",12.337,0,1,NA
"308",189,111,1,1,"noatt_cred",5.828,0,0,NA
"309",189,106,1,1,"noatt_cred",5.401,1,1,NA
"310",189,107,1,1,"noatt_cred",14.258,1,0,NA
"311",189,31,1,1,"noatt_cred",7.192,0,1,NA
"312",189,75,1,1,"noatt_cred",3.403,0,0,NA
"313",189,90,1,1,"noatt_cred",3.094,1,1,NA
"314",189,113,1,1,"noatt_cred",7.295,1,0,NA
"315",189,114,1,1,"noatt_cred",3.61,1,1,NA
"316",189,36,1,1,"noatt_cred",7.991,1,1,NA
"317",189,77,1,1,"noatt_cred",13.097,1,0,NA
"318",189,39,1,1,"noatt_cred",19.436,1,0,NA
"319",189,40,1,1,"noatt_cred",2.466,0,1,NA
"320",189,41,1,1,"noatt_cred",5.371,0,0,NA
"321",189,42,1,1,"noatt_cred",7.275,1,0,NA
"322",189,108,1,1,"noatt_cred",3.954,1,0,NA
"323",189,45,1,1,"noatt_cred",11.765,0,0,NA
"324",189,79,1,1,"noatt_cred",12.312,0,1,NA
"325",189,46,1,1,"noatt_cred",4.255,1,1,NA
"326",189,47,1,1,"noatt_cred",5.268,1,1,NA
"327",189,48,1,1,"noatt_cred",13.213,0,0,NA
"328",189,81,1,1,"noatt_cred",4.487,1,1,NA
"329",189,50,1,1,"noatt_cred",20.873,0,1,NA
"330",189,51,1,1,"noatt_cred",15.848,1,1,NA
"331",189,98,1,1,"noatt_cred",11.004,0,1,NA
"332",189,82,1,1,"noatt_cred",8.107,0,0,NA
"333",189,54,1,1,"noatt_cred",2.296,1,1,NA
"334",189,101,1,1,"noatt_cred",10.235,1,0,NA
"335",189,110,1,1,"noatt_cred",16.684,1,1,NA
"336",189,116,1,1,"noatt_cred",4.722,1,0,NA
"337",19,1,1,1,"att_nocred",12.223,0,0,NA
"338",19,58,1,1,"att_nocred",6.85,0,1,NA
"339",19,3,1,1,"att_nocred",5.685,1,1,NA
"340",19,60,1,1,"att_nocred",8.25,0,0,NA
"341",19,5,1,1,"att_nocred",5.97,1,1,NA
"342",19,6,1,1,"att_nocred",8.095,0,1,NA
"343",19,62,1,1,"att_nocred",3.419,1,1,NA
"344",19,8,1,1,"att_nocred",6.234,0,1,NA
"345",19,63,1,1,"att_nocred",4.628,1,0,NA
"346",19,10,1,1,"att_nocred",4.77,1,1,NA
"347",19,85,1,1,"att_nocred",7.051,1,1,NA
"348",19,103,1,1,"att_nocred",12.637,1,1,NA
"349",19,64,1,1,"att_nocred",17.523,1,0,NA
"350",19,65,1,1,"att_nocred",4.368,0,0,NA
"351",19,86,1,1,"att_nocred",4.507,1,0,NA
"352",19,15,1,1,"att_nocred",1.902,1,1,NA
"353",19,16,1,1,"att_nocred",11.943,0,0,NA
"354",19,17,1,1,"att_nocred",4.515,1,1,NA
"355",19,67,1,1,"att_nocred",6.061,0,0,NA
"356",19,68,1,1,"att_nocred",4.466,0,0,NA
"357",19,105,1,1,"att_nocred",5.326,1,1,NA
"358",19,21,1,1,"att_nocred",8.584,1,1,NA
"359",19,22,1,1,"att_nocred",4.995,0,1,NA
"360",19,115,1,1,"att_nocred",7.415,1,0,NA
"361",19,24,1,1,"att_nocred",4.778,0,0,NA
"362",19,88,1,1,"att_nocred",6.909,1,0,NA
"363",19,89,1,1,"att_nocred",19.108,0,0,NA
"364",19,117,1,1,"att_nocred",6.701,0,1,NA
"365",19,26,1,1,"att_nocred",3.196,1,1,NA
"366",19,74,1,1,"att_nocred",6.548,0,0,NA
"367",19,28,1,1,"att_nocred",6.81,0,0,NA
"368",19,29,1,1,"att_nocred",1.78,1,1,NA
"369",19,107,1,1,"att_nocred",23.249,1,0,NA
"370",19,31,1,1,"att_nocred",3.224,1,1,NA
"371",19,32,1,1,"att_nocred",8.832,0,0,NA
"372",19,33,1,1,"att_nocred",3.675,1,1,NA
"373",19,113,1,1,"att_nocred",6.235,0,1,NA
"374",19,114,1,1,"att_nocred",2.749,1,1,NA
"375",19,36,1,1,"att_nocred",3.245,1,1,NA
"376",19,37,1,1,"att_nocred",4.884,1,1,NA
"377",19,91,1,1,"att_nocred",2.714,1,1,NA
"378",19,92,1,1,"att_nocred",3.599,0,0,NA
"379",19,93,1,1,"att_nocred",3.132,0,0,NA
"380",19,94,1,1,"att_nocred",2.822,0,0,NA
"381",19,78,1,1,"att_nocred",10.508,0,1,NA
"382",19,43,1,1,"att_nocred",7.683,1,1,NA
"383",19,95,1,1,"att_nocred",5.129,0,0,NA
"384",19,80,1,1,"att_nocred",3.356,0,0,NA
"385",19,81,1,1,"att_nocred",7.687,0,0,NA
"386",19,50,1,1,"att_nocred",8.53,0,0,NA
"387",19,51,1,1,"att_nocred",7.274,0,0,NA
"388",19,53,1,1,"att_nocred",3.374,1,1,NA
"389",19,54,1,1,"att_nocred",3.605,0,0,NA
"390",19,101,1,1,"att_nocred",11.146,1,0,NA
"391",19,110,1,1,"att_nocred",7.926,0,1,NA
"392",19,83,1,1,"att_nocred",9.621,0,0,NA
"393",190,57,1,1,"att_nocred",2.265,1,0,NA
"394",190,58,1,1,"att_nocred",3.23,0,1,NA
"395",190,59,1,1,"att_nocred",4.972,1,1,NA
"396",190,4,1,1,"att_nocred",5.478,1,1,NA
"397",190,61,1,1,"att_nocred",9.914,0,1,NA
"398",190,84,1,1,"att_nocred",8.841,1,1,NA
"399",190,62,1,1,"att_nocred",3.248,0,0,NA
"400",190,8,1,1,"att_nocred",6.459,0,0,NA
"401",190,9,1,1,"att_nocred",7.517,1,1,NA
"402",190,102,1,1,"att_nocred",6.95,0,1,NA
"403",190,11,1,1,"att_nocred",8.315,0,0,NA
"404",190,12,1,1,"att_nocred",3,1,0,NA
"405",190,64,1,1,"att_nocred",5.757,0,1,NA
"406",190,65,1,1,"att_nocred",4.547,1,1,NA
"407",190,15,1,1,"att_nocred",3.092,0,0,NA
"408",190,66,1,1,"att_nocred",5.25,1,0,NA
"409",190,17,1,1,"att_nocred",2.881,1,1,NA
"410",190,18,1,1,"att_nocred",6.165,0,0,NA
"411",190,68,1,1,"att_nocred",3.672,1,0,NA
"412",190,20,1,1,"att_nocred",4.647,1,0,NA
"413",190,21,1,1,"att_nocred",5.173,1,0,NA
"414",190,70,1,1,"att_nocred",2.569,1,1,NA
"415",190,115,1,1,"att_nocred",14.691,0,0,NA
"416",190,24,1,1,"att_nocred",6.884,0,1,NA
"417",190,25,1,1,"att_nocred",6.022,0,1,NA
"418",190,89,1,1,"att_nocred",4.517,1,1,NA
"419",190,73,1,1,"att_nocred",5.645,1,1,NA
"420",190,118,1,1,"att_nocred",3.538,0,0,NA
"421",190,74,1,1,"att_nocred",4.928,1,0,NA
"422",190,111,1,1,"att_nocred",3.58,0,0,NA
"423",190,29,1,1,"att_nocred",2.722,0,1,NA
"424",190,107,1,1,"att_nocred",6.455,1,0,NA
"425",190,112,1,1,"att_nocred",4.373,1,1,NA
"426",190,75,1,1,"att_nocred",5.067,1,0,NA
"427",190,33,1,1,"att_nocred",3.506,0,0,NA
"428",190,34,1,1,"att_nocred",3.166,0,0,NA
"429",190,36,1,1,"att_nocred",4.815,0,1,NA
"430",190,37,1,1,"att_nocred",5.037,0,0,NA
"431",190,38,1,1,"att_nocred",2.024,1,1,NA
"432",190,39,1,1,"att_nocred",2.848,1,1,NA
"433",190,93,1,1,"att_nocred",2.969,1,0,NA
"434",190,41,1,1,"att_nocred",4.611,1,0,NA
"435",190,42,1,1,"att_nocred",6.469,1,1,NA
"436",190,43,1,1,"att_nocred",3.996,1,0,NA
"437",190,44,1,1,"att_nocred",3.118,1,1,NA
"438",190,80,1,1,"att_nocred",4.584,0,1,NA
"439",190,47,1,1,"att_nocred",4.317,1,0,NA
"440",190,48,1,1,"att_nocred",8.777,1,1,NA
"441",190,96,1,1,"att_nocred",6.203,1,1,NA
"442",190,97,1,1,"att_nocred",7.685,0,0,NA
"443",190,52,1,1,"att_nocred",5.482,1,1,NA
"444",190,82,1,1,"att_nocred",6.941,0,0,NA
"445",190,54,1,1,"att_nocred",3.388,0,1,NA
"446",190,55,1,1,"att_nocred",4.509,0,0,NA
"447",190,110,1,1,"att_nocred",5.561,0,0,NA
"448",190,116,1,1,"att_nocred",7.287,1,1,NA
"449",191,1,1,1,"att_cred",4.044,1,0,NA
"450",191,2,1,1,"att_cred",1.426,0,1,NA
"451",191,3,1,1,"att_cred",6.593,1,0,NA
"452",191,60,1,1,"att_cred",2.233,1,0,NA
"453",191,61,1,1,"att_cred",4.741,1,0,NA
"454",191,6,1,1,"att_cred",3.76,0,1,NA
"455",191,7,1,1,"att_cred",3.68,1,1,NA
"456",191,9,1,1,"att_cred",5.179,1,1,NA
"457",191,10,1,1,"att_cred",1.732,1,0,NA
"458",191,11,1,1,"att_cred",8.795,0,0,NA
"459",191,12,1,1,"att_cred",3.002,0,0,NA
"460",191,64,1,1,"att_cred",3.619,1,1,NA
"461",191,65,1,1,"att_cred",2.491,1,1,NA
"462",191,86,1,1,"att_cred",1.806,1,0,NA
"463",191,15,1,1,"att_cred",3.278,0,0,NA
"464",191,17,1,1,"att_cred",3.442,0,1,NA
"465",191,68,1,1,"att_cred",3.562,0,1,NA
"466",191,20,1,1,"att_cred",4.739,1,1,NA
"467",191,69,1,1,"att_cred",4.565,1,0,NA
"468",191,22,1,1,"att_cred",3.505,1,0,NA
"469",191,23,1,1,"att_cred",2.396,1,0,NA
"470",191,24,1,1,"att_cred",2.027,0,0,NA
"471",191,88,1,1,"att_cred",2.252,0,0,NA
"472",191,72,1,1,"att_cred",4.17,1,1,NA
"473",191,73,1,1,"att_cred",2.308,0,1,NA
"474",191,118,1,1,"att_cred",4.029,1,0,NA
"475",191,74,1,1,"att_cred",3.645,1,1,NA
"476",191,111,1,1,"att_cred",2.127,1,1,NA
"477",191,29,1,1,"att_cred",7.52,1,0,NA
"478",191,107,1,1,"att_cred",3.744,1,0,NA
"479",191,112,1,1,"att_cred",4.201,1,0,NA
"480",191,32,1,1,"att_cred",5.004,1,0,NA
"481",191,90,1,1,"att_cred",2.675,1,1,NA
"482",191,34,1,1,"att_cred",1.774,1,1,NA
"483",191,35,1,1,"att_cred",1.778,0,1,NA
"484",191,36,1,1,"att_cred",2.267,1,1,NA
"485",191,91,1,1,"att_cred",1.139,1,1,NA
"486",191,92,1,1,"att_cred",3.512,1,1,NA
"487",191,40,1,1,"att_cred",4.774,1,1,NA
"488",191,94,1,1,"att_cred",2.558,0,0,NA
"489",191,42,1,1,"att_cred",2.531,0,1,NA
"490",191,108,1,1,"att_cred",2.175,1,1,NA
"491",191,79,1,1,"att_cred",2.234,1,0,NA
"492",191,80,1,1,"att_cred",1.976,1,1,NA
"493",191,47,1,1,"att_cred",1.787,1,0,NA
"494",191,48,1,1,"att_cred",2.856,0,0,NA
"495",191,81,1,1,"att_cred",4.477,0,1,NA
"496",191,96,1,1,"att_cred",2.531,1,0,NA
"497",191,51,1,1,"att_cred",3.761,0,0,NA
"498",191,52,1,1,"att_cred",3.372,0,1,NA
"499",191,82,1,1,"att_cred",5.649,1,1,NA
"500",191,99,1,1,"att_cred",4.095,0,0,NA
"501",191,100,1,1,"att_cred",4.431,1,1,NA
"502",191,101,1,1,"att_cred",3.476,0,1,NA
"503",191,110,1,1,"att_cred",2.3,1,0,NA
"504",191,116,1,1,"att_cred",3.312,1,0,NA
"505",192,57,1,1,"att_nocred",4.561,0,0,NA
"506",192,2,1,1,"att_nocred",13.538,0,0,NA
"507",192,59,1,1,"att_nocred",11.593,1,1,NA
"508",192,61,1,1,"att_nocred",11.489,0,1,NA
"509",192,6,1,1,"att_nocred",7.267,0,1,NA
"510",192,7,1,1,"att_nocred",13.12,0,0,NA
"511",192,9,1,1,"att_nocred",8.288,0,1,NA
"512",192,10,1,1,"att_nocred",15.141,1,0,NA
"513",192,11,1,1,"att_nocred",6.772,0,0,NA
"514",192,12,1,1,"att_nocred",7.212,1,1,NA
"515",192,64,1,1,"att_nocred",18.841,0,1,NA
"516",192,14,1,1,"att_nocred",14.247,0,0,NA
"517",192,86,1,1,"att_nocred",8.311,1,0,NA
"518",192,15,1,1,"att_nocred",6.489,1,0,NA
"519",192,16,1,1,"att_nocred",10.302,1,1,NA
"520",192,17,1,1,"att_nocred",9.629,1,0,NA
"521",192,67,1,1,"att_nocred",9.223,0,1,NA
"522",192,68,1,1,"att_nocred",2.956,1,1,NA
"523",192,20,1,1,"att_nocred",5.52,1,1,NA
"524",192,69,1,1,"att_nocred",4.675,1,0,NA
"525",192,70,1,1,"att_nocred",4.912,0,1,NA
"526",192,23,1,1,"att_nocred",13.346,0,1,NA
"527",192,24,1,1,"att_nocred",12.417,0,1,NA
"528",192,25,1,1,"att_nocred",4.275,1,1,NA
"529",192,72,1,1,"att_nocred",9.26,1,0,NA
"530",192,73,1,1,"att_nocred",5.26,1,0,NA
"531",192,26,1,1,"att_nocred",6.767,1,0,NA
"532",192,74,1,1,"att_nocred",8.613,1,0,NA
"533",192,28,1,1,"att_nocred",9.757,0,1,NA
"534",192,106,1,1,"att_nocred",7.929,0,0,NA
"535",192,30,1,1,"att_nocred",16.233,0,1,NA
"536",192,112,1,1,"att_nocred",15.695,0,1,NA
"537",192,75,1,1,"att_nocred",5.752,1,1,NA
"538",192,90,1,1,"att_nocred",4.208,1,1,NA
"539",192,113,1,1,"att_nocred",14.355,0,0,NA
"540",192,35,1,1,"att_nocred",24.427,1,0,NA
"541",192,36,1,1,"att_nocred",4.559,0,1,NA
"542",192,77,1,1,"att_nocred",11.755,1,0,NA
"543",192,38,1,1,"att_nocred",3.811,1,0,NA
"544",192,39,1,1,"att_nocred",12.132,0,0,NA
"545",192,93,1,1,"att_nocred",2.823,1,1,NA
"546",192,94,1,1,"att_nocred",5.358,1,0,NA
"547",192,42,1,1,"att_nocred",6.11,1,0,NA
"548",192,79,1,1,"att_nocred",12.478,1,1,NA
"549",192,80,1,1,"att_nocred",12.926,0,0,NA
"550",192,47,1,1,"att_nocred",4.028,1,0,NA
"551",192,48,1,1,"att_nocred",9.083,1,1,NA
"552",192,49,1,1,"att_nocred",11.108,1,1,NA
"553",192,50,1,1,"att_nocred",6.941,1,1,NA
"554",192,97,1,1,"att_nocred",16.915,0,1,NA
"555",192,52,1,1,"att_nocred",9.443,1,0,NA
"556",192,82,1,1,"att_nocred",16.937,0,0,NA
"557",192,99,1,1,"att_nocred",3.374,1,0,NA
"558",192,55,1,1,"att_nocred",3.69,1,1,NA
"559",192,110,1,1,"att_nocred",5.073,1,1,NA
"560",192,83,1,1,"att_nocred",6.06,0,0,NA
"561",193,1,1,1,"noatt_nocred",9.413,1,0,NA
"562",193,2,1,1,"noatt_nocred",8.465,1,0,NA
"563",193,3,1,1,"noatt_nocred",22.51,0,0,NA
"564",193,60,1,1,"noatt_nocred",6.562,0,1,NA
"565",193,5,1,1,"noatt_nocred",8.132,0,0,NA
"566",193,84,1,1,"noatt_nocred",7.656,0,1,NA
"567",193,7,1,1,"noatt_nocred",6.803,0,1,NA
"568",193,8,1,1,"noatt_nocred",8.151,1,1,NA
"569",193,63,1,1,"noatt_nocred",6.4,1,1,NA
"570",193,102,1,1,"noatt_nocred",14.038,1,1,NA
"571",193,11,1,1,"noatt_nocred",5.509,1,0,NA
"572",193,103,1,1,"noatt_nocred",8.146,0,1,NA
"573",193,13,1,1,"noatt_nocred",15.76,0,0,NA
"574",193,65,1,1,"noatt_nocred",15.035,1,1,NA
"575",193,104,1,1,"noatt_nocred",6.9,1,0,NA
"576",193,16,1,1,"noatt_nocred",5.732,1,0,NA
"577",193,87,1,1,"noatt_nocred",11.293,0,0,NA
"578",193,19,1,1,"noatt_nocred",11.322,0,1,NA
"579",193,20,1,1,"noatt_nocred",7.969,0,0,NA
"580",193,69,1,1,"noatt_nocred",5.962,1,1,NA
"581",193,70,1,1,"noatt_nocred",19.929,1,1,NA
"582",193,115,1,1,"noatt_nocred",9.691,1,0,NA
"583",193,24,1,1,"noatt_nocred",17.094,0,1,NA
"584",193,88,1,1,"noatt_nocred",5.852,0,1,NA
"585",193,89,1,1,"noatt_nocred",22.926,1,1,NA
"586",193,117,1,1,"noatt_nocred",6.188,1,1,NA
"587",193,26,1,1,"noatt_nocred",7.083,1,0,NA
"588",193,74,1,1,"noatt_nocred",5.693,0,0,NA
"589",193,28,1,1,"noatt_nocred",22.156,1,0,NA
"590",193,29,1,1,"noatt_nocred",7.057,1,1,NA
"591",193,107,1,1,"noatt_nocred",22.459,1,1,NA
"592",193,31,1,1,"noatt_nocred",8.729,1,0,NA
"593",193,32,1,1,"noatt_nocred",4.689,0,0,NA
"594",193,33,1,1,"noatt_nocred",13.617,0,0,NA
"595",193,114,1,1,"noatt_nocred",5.292,0,0,NA
"596",193,77,1,1,"noatt_nocred",9.062,1,0,NA
"597",193,91,1,1,"noatt_nocred",3.754,1,0,NA
"598",193,92,1,1,"noatt_nocred",5.515,0,1,NA
"599",193,93,1,1,"noatt_nocred",3.65,1,0,NA
"600",193,41,1,1,"noatt_nocred",12.28,0,0,NA
"601",193,78,1,1,"noatt_nocred",8.116,1,0,NA
"602",193,108,1,1,"noatt_nocred",8.137,1,1,NA
"603",193,95,1,1,"noatt_nocred",14.741,1,1,NA
"604",193,44,1,1,"noatt_nocred",6.032,1,1,NA
"605",193,45,1,1,"noatt_nocred",7.421,1,0,NA
"606",193,46,1,1,"noatt_nocred",7.024,1,1,NA
"607",193,109,1,1,"noatt_nocred",8.649,1,0,NA
"608",193,81,1,1,"noatt_nocred",9.252,0,0,NA
"609",193,96,1,1,"noatt_nocred",6.216,0,1,NA
"610",193,51,1,1,"noatt_nocred",9.856,0,1,NA
"611",193,52,1,1,"noatt_nocred",11.736,0,1,NA
"612",193,82,1,1,"noatt_nocred",14.405,0,0,NA
"613",193,100,1,1,"noatt_nocred",7.336,0,1,NA
"614",193,101,1,1,"noatt_nocred",8.258,0,1,NA
"615",193,110,1,1,"noatt_nocred",12.114,1,0,NA
"616",193,116,1,1,"noatt_nocred",8.841,0,1,NA
"617",194,1,1,1,"noatt_cred",3.992,1,1,NA
"618",194,58,1,1,"noatt_cred",3.803,1,0,NA
"619",194,59,1,1,"noatt_cred",6.816,0,1,NA
"620",194,4,1,1,"noatt_cred",5.274,1,1,NA
"621",194,7,1,1,"noatt_cred",12.114,0,0,NA
"622",194,9,1,1,"noatt_cred",9.601,0,1,NA
"623",194,102,1,1,"noatt_cred",5.227,1,0,NA
"624",194,85,1,1,"noatt_cred",4.654,1,0,NA
"625",194,12,1,1,"noatt_cred",4.028,1,0,NA
"626",194,13,1,1,"noatt_cred",3.892,0,1,NA
"627",194,65,1,1,"noatt_cred",2.754,1,1,NA
"628",194,15,1,1,"noatt_cred",2.022,0,1,NA
"629",194,66,1,1,"noatt_cred",8.343,1,0,NA
"630",194,18,1,1,"noatt_cred",1.304,1,1,NA
"631",194,19,1,1,"noatt_cred",2.273,0,1,NA
"632",194,105,1,1,"noatt_cred",6.752,1,1,NA
"633",194,69,1,1,"noatt_cred",7.086,0,0,NA
"634",194,22,1,1,"noatt_cred",3.606,1,1,NA
"635",194,115,1,1,"noatt_cred",5.284,1,0,NA
"636",194,71,1,1,"noatt_cred",8.144,0,0,NA
"637",194,88,1,1,"noatt_cred",4.059,0,1,NA
"638",194,89,1,1,"noatt_cred",8.833,1,0,NA
"639",194,73,1,1,"noatt_cred",4.967,0,0,NA
"640",194,118,1,1,"noatt_cred",3.911,1,0,NA
"641",194,74,1,1,"noatt_cred",3.206,1,1,NA
"642",194,28,1,1,"noatt_cred",14.102,0,1,NA
"643",194,29,1,1,"noatt_cred",5.995,1,0,NA
"644",194,30,1,1,"noatt_cred",14.248,1,0,NA
"645",194,31,1,1,"noatt_cred",5.653,1,0,NA
"646",194,32,1,1,"noatt_cred",6.22,1,1,NA
"647",194,90,1,1,"noatt_cred",3.285,1,1,NA
"648",194,34,1,1,"noatt_cred",6.124,0,1,NA
"649",194,35,1,1,"noatt_cred",5.044,1,0,NA
"650",194,36,1,1,"noatt_cred",6.862,0,0,NA
"651",194,77,1,1,"noatt_cred",3.917,1,0,NA
"652",194,91,1,1,"noatt_cred",1.97,1,1,NA
"653",194,39,1,1,"noatt_cred",3.894,1,0,NA
"654",194,40,1,1,"noatt_cred",1.77,0,1,NA
"655",194,94,1,1,"noatt_cred",3.977,1,1,NA
"656",194,78,1,1,"noatt_cred",5.181,1,1,NA
"657",194,108,1,1,"noatt_cred",4.935,1,1,NA
"658",194,44,1,1,"noatt_cred",5.116,0,1,NA
"659",194,45,1,1,"noatt_cred",4.595,1,0,NA
"660",194,46,1,1,"noatt_cred",10.182,0,1,NA
"661",194,47,1,1,"noatt_cred",1.97,0,1,NA
"662",194,48,1,1,"noatt_cred",11.26,1,0,NA
"663",194,49,1,1,"noatt_cred",4.506,1,0,NA
"664",194,96,1,1,"noatt_cred",7.608,0,1,NA
"665",194,97,1,1,"noatt_cred",10.51,1,0,NA
"666",194,98,1,1,"noatt_cred",6.654,0,0,NA
"667",194,82,1,1,"noatt_cred",4.707,0,0,NA
"668",194,99,1,1,"noatt_cred",4.089,1,0,NA
"669",194,100,1,1,"noatt_cred",3.636,1,1,NA
"670",194,101,1,1,"noatt_cred",5.132,1,0,NA
"671",194,56,1,1,"noatt_cred",7.027,1,1,NA
"672",194,83,1,1,"noatt_cred",9.077,0,0,NA
"673",102,57,1,1,"att_cred",2.128,1,0,NA
"674",102,58,1,1,"att_cred",5.656,1,1,NA
"675",102,59,1,1,"att_cred",6.535,0,0,NA
"676",102,5,1,1,"att_cred",4.439,0,0,NA
"677",102,6,1,1,"att_cred",3.789,1,0,NA
"678",102,62,1,1,"att_cred",14.657,1,1,NA
"679",102,9,1,1,"att_cred",5.429,1,1,NA
"680",102,10,1,1,"att_cred",4.651,1,0,NA
"681",102,85,1,1,"att_cred",7.446,1,1,NA
"682",102,12,1,1,"att_cred",3.482,1,0,NA
"683",102,13,1,1,"att_cred",2.698,0,0,NA
"684",102,14,1,1,"att_cred",5.401,0,0,NA
"685",102,86,1,1,"att_cred",3.64,0,0,NA
"686",102,104,1,1,"att_cred",3.931,0,0,NA
"687",102,16,1,1,"att_cred",4.924,0,1,NA
"688",102,87,1,1,"att_cred",6.443,0,1,NA
"689",102,67,1,1,"att_cred",6.429,1,0,NA
"690",102,68,1,1,"att_cred",4.524,1,1,NA
"691",102,105,1,1,"att_cred",8.609,0,1,NA
"692",102,21,1,1,"att_cred",4.162,0,0,NA
"693",102,22,1,1,"att_cred",4.714,0,0,NA
"694",102,115,1,1,"att_cred",3.642,1,0,NA
"695",102,24,1,1,"att_cred",6.622,0,1,NA
"696",102,88,1,1,"att_cred",3.311,0,0,NA
"697",102,89,1,1,"att_cred",4.341,1,0,NA
"698",102,117,1,1,"att_cred",4.982,0,0,NA
"699",102,26,1,1,"att_cred",3.251,0,1,NA
"700",102,27,1,1,"att_cred",5.414,0,1,NA
"701",102,111,1,1,"att_cred",4.554,1,1,NA
"702",102,29,1,1,"att_cred",2.866,1,1,NA
"703",102,107,1,1,"att_cred",4.801,1,0,NA
"704",102,31,1,1,"att_cred",6.29,1,0,NA
"705",102,33,1,1,"att_cred",5.331,1,1,NA
"706",102,34,1,1,"att_cred",7.382,0,1,NA
"707",102,35,1,1,"att_cred",2.735,0,0,NA
"708",102,76,1,1,"att_cred",3.583,0,1,NA
"709",102,77,1,1,"att_cred",6.263,1,1,NA
"710",102,91,1,1,"att_cred",2.872,0,0,NA
"711",102,40,1,1,"att_cred",2.484,0,1,NA
"712",102,94,1,1,"att_cred",5.094,1,1,NA
"713",102,42,1,1,"att_cred",5.309,0,0,NA
"714",102,108,1,1,"att_cred",3.209,1,1,NA
"715",102,44,1,1,"att_cred",7.665,1,1,NA
"716",102,46,1,1,"att_cred",2.869,1,0,NA
"717",102,47,1,1,"att_cred",2.624,1,0,NA
"718",102,48,1,1,"att_cred",4.508,0,0,NA
"719",102,81,1,1,"att_cred",3.369,1,0,NA
"720",102,50,1,1,"att_cred",3.431,1,1,NA
"721",102,97,1,1,"att_cred",4.902,0,0,NA
"722",102,98,1,1,"att_cred",7.292,1,1,NA
"723",102,53,1,1,"att_cred",7.717,0,1,NA
"724",102,99,1,1,"att_cred",4.074,0,1,NA
"725",102,100,1,1,"att_cred",2.497,0,1,NA
"726",102,101,1,1,"att_cred",4.129,1,1,NA
"727",102,110,1,1,"att_cred",3.518,0,0,NA
"728",102,116,1,1,"att_cred",2.862,0,1,NA
"729",195,1,1,1,"att_cred",3.055,1,1,NA
"730",195,2,1,1,"att_cred",2.199,1,0,NA
"731",195,3,1,1,"att_cred",2.885,0,0,NA
"732",195,61,1,1,"att_cred",2.006,1,1,NA
"733",195,84,1,1,"att_cred",3.503,0,0,NA
"734",195,7,1,1,"att_cred",2.419,1,0,NA
"735",195,8,1,1,"att_cred",2.732,0,0,NA
"736",195,63,1,1,"att_cred",3.566,1,1,NA
"737",195,102,1,1,"att_cred",5.421,0,1,NA
"738",195,11,1,1,"att_cred",1.916,1,1,NA
"739",195,12,1,1,"att_cred",2.061,0,0,NA
"740",195,13,1,1,"att_cred",4.631,0,0,NA
"741",195,65,1,1,"att_cred",4.974,0,0,NA
"742",195,104,1,1,"att_cred",2.741,0,0,NA
"743",195,16,1,1,"att_cred",2.938,1,1,NA
"744",195,87,1,1,"att_cred",7.565,1,1,NA
"745",195,68,1,1,"att_cred",4.459,1,1,NA
"746",195,20,1,1,"att_cred",2.695,1,1,NA
"747",195,21,1,1,"att_cred",4.602,1,0,NA
"748",195,70,1,1,"att_cred",7.448,0,1,NA
"749",195,23,1,1,"att_cred",5.551,0,1,NA
"750",195,24,1,1,"att_cred",3.873,1,1,NA
"751",195,25,1,1,"att_cred",4.365,0,0,NA
"752",195,72,1,1,"att_cred",3.18,0,0,NA
"753",195,73,1,1,"att_cred",3.314,1,0,NA
"754",195,74,1,1,"att_cred",4.454,0,1,NA
"755",195,28,1,1,"att_cred",3.853,1,0,NA
"756",195,29,1,1,"att_cred",3.167,1,1,NA
"757",195,30,1,1,"att_cred",10.133,1,1,NA
"758",195,31,1,1,"att_cred",2.177,0,0,NA
"759",195,32,1,1,"att_cred",6.418,1,0,NA
"760",195,33,1,1,"att_cred",3.599,0,0,NA
"761",195,34,1,1,"att_cred",2.597,1,1,NA
"762",195,114,1,1,"att_cred",2.336,1,0,NA
"763",195,36,1,1,"att_cred",3.175,0,0,NA
"764",195,77,1,1,"att_cred",3.482,1,1,NA
"765",195,38,1,1,"att_cred",5.334,0,0,NA
"766",195,39,1,1,"att_cred",2.348,1,1,NA
"767",195,93,1,1,"att_cred",1.8,1,0,NA
"768",195,41,1,1,"att_cred",3.652,0,0,NA
"769",195,78,1,1,"att_cred",4.419,1,1,NA
"770",195,43,1,1,"att_cred",2.529,1,0,NA
"771",195,95,1,1,"att_cred",5.228,1,1,NA
"772",195,45,1,1,"att_cred",1.938,1,1,NA
"773",195,79,1,1,"att_cred",2.654,1,0,NA
"774",195,46,1,1,"att_cred",3.866,0,1,NA
"775",195,109,1,1,"att_cred",7.851,1,1,NA
"776",195,81,1,1,"att_cred",3.635,1,0,NA
"777",195,96,1,1,"att_cred",4.311,0,0,NA
"778",195,51,1,1,"att_cred",7.575,1,0,NA
"779",195,98,1,1,"att_cred",5.085,1,1,NA
"780",195,82,1,1,"att_cred",2.393,0,0,NA
"781",195,100,1,1,"att_cred",2.164,0,1,NA
"782",195,101,1,1,"att_cred",1.82,1,1,NA
"783",195,56,1,1,"att_cred",2.172,1,1,NA
"784",195,83,1,1,"att_cred",3.561,0,1,NA
"785",196,1,1,1,"att_nocred",4.811,0,0,NA
"786",196,2,1,1,"att_nocred",2.162,1,1,NA
"787",196,3,1,1,"att_nocred",4.687,1,1,NA
"788",196,4,1,1,"att_nocred",9.433,1,1,NA
"789",196,61,1,1,"att_nocred",9.021,1,0,NA
"790",196,6,1,1,"att_nocred",5.571,0,1,NA
"791",196,62,1,1,"att_nocred",5.933,0,1,NA
"792",196,8,1,1,"att_nocred",3.658,1,1,NA
"793",196,9,1,1,"att_nocred",4.468,0,0,NA
"794",196,102,1,1,"att_nocred",4.483,1,0,NA
"795",196,85,1,1,"att_nocred",4.268,0,0,NA
"796",196,12,1,1,"att_nocred",7.524,0,1,NA
"797",196,13,1,1,"att_nocred",2.822,0,0,NA
"798",196,65,1,1,"att_nocred",1.822,0,1,NA
"799",196,15,1,1,"att_nocred",3.59,0,1,NA
"800",196,66,1,1,"att_nocred",6.156,1,1,NA
"801",196,87,1,1,"att_nocred",3.177,1,0,NA
"802",196,18,1,1,"att_nocred",3.554,1,0,NA
"803",196,68,1,1,"att_nocred",3.666,1,1,NA
"804",196,70,1,1,"att_nocred",3.959,1,0,NA
"805",196,115,1,1,"att_nocred",4.344,0,1,NA
"806",196,24,1,1,"att_nocred",6.408,0,0,NA
"807",196,25,1,1,"att_nocred",6.3,1,1,NA
"808",196,89,1,1,"att_nocred",4.908,0,1,NA
"809",196,117,1,1,"att_nocred",3.404,0,1,NA
"810",196,118,1,1,"att_nocred",4.038,1,1,NA
"811",196,27,1,1,"att_nocred",3.928,0,1,NA
"812",196,111,1,1,"att_nocred",5.495,1,0,NA
"813",196,29,1,1,"att_nocred",3.161,0,1,NA
"814",196,30,1,1,"att_nocred",8.883,0,1,NA
"815",196,31,1,1,"att_nocred",5.632,0,0,NA
"816",196,75,1,1,"att_nocred",4.584,0,1,NA
"817",196,90,1,1,"att_nocred",3.98,0,0,NA
"818",196,113,1,1,"att_nocred",4.344,1,0,NA
"819",196,114,1,1,"att_nocred",5.596,1,1,NA
"820",196,76,1,1,"att_nocred",5.095,0,0,NA
"821",196,77,1,1,"att_nocred",3.69,0,0,NA
"822",196,91,1,1,"att_nocred",2.849,1,1,NA
"823",196,39,1,1,"att_nocred",2.213,1,1,NA
"824",196,40,1,1,"att_nocred",2.147,1,1,NA
"825",196,94,1,1,"att_nocred",3.919,0,1,NA
"826",196,42,1,1,"att_nocred",8.649,0,0,NA
"827",196,43,1,1,"att_nocred",3.379,1,0,NA
"828",196,45,1,1,"att_nocred",4.549,1,0,NA
"829",196,79,1,1,"att_nocred",3.437,0,1,NA
"830",196,47,1,1,"att_nocred",8.136,1,0,NA
"831",196,48,1,1,"att_nocred",6.705,1,0,NA
"832",196,81,1,1,"att_nocred",5.246,1,1,NA
"833",196,96,1,1,"att_nocred",7.867,1,0,NA
"834",196,51,1,1,"att_nocred",4.26,0,0,NA
"835",196,52,1,1,"att_nocred",1.292,1,0,NA
"836",196,82,1,1,"att_nocred",5.38,0,0,NA
"837",196,100,1,1,"att_nocred",6.278,1,0,NA
"838",196,101,1,1,"att_nocred",7.31,1,0,NA
"839",196,56,1,1,"att_nocred",3.119,0,1,NA
"840",196,116,1,1,"att_nocred",7.757,0,0,NA
"841",197,57,1,1,"att_cred",2.132,0,0,NA
"842",197,58,1,1,"att_cred",6.239,1,1,NA
"843",197,59,1,1,"att_cred",3.174,1,1,NA
"844",197,4,1,1,"att_cred",4.005,1,1,NA
"845",197,61,1,1,"att_cred",4.107,1,1,NA
"846",197,84,1,1,"att_cred",3.313,0,0,NA
"847",197,7,1,1,"att_cred",1.663,1,1,NA
"848",197,63,1,1,"att_cred",1.913,0,0,NA
"849",197,10,1,1,"att_cred",3.223,0,0,NA
"850",197,11,1,1,"att_cred",5.051,0,0,NA
"851",197,103,1,1,"att_cred",3.235,1,0,NA
"852",197,64,1,1,"att_cred",2.754,0,0,NA
"853",197,104,1,1,"att_cred",3.694,0,1,NA
"854",197,66,1,1,"att_cred",3.941,1,0,NA
"855",197,87,1,1,"att_cred",4.789,1,1,NA
"856",197,67,1,1,"att_cred",3.945,0,0,NA
"857",197,19,1,1,"att_cred",3.935,0,0,NA
"858",197,20,1,1,"att_cred",3.135,0,1,NA
"859",197,21,1,1,"att_cred",2.604,0,0,NA
"860",197,22,1,1,"att_cred",2.623,1,1,NA
"861",197,23,1,1,"att_cred",4.358,1,0,NA
"862",197,71,1,1,"att_cred",2.367,1,1,NA
"863",197,88,1,1,"att_cred",2.564,1,0,NA
"864",197,72,1,1,"att_cred",15.571,0,0,NA
"865",197,73,1,1,"att_cred",3.807,0,0,NA
"866",197,26,1,1,"att_cred",4.34,0,1,NA
"867",197,74,1,1,"att_cred",2.214,1,0,NA
"868",197,28,1,1,"att_cred",6.421,0,0,NA
"869",197,106,1,1,"att_cred",1.877,1,1,NA
"870",197,107,1,1,"att_cred",14.767,1,0,NA
"871",197,31,1,1,"att_cred",1.944,0,0,NA
"872",197,75,1,1,"att_cred",2.895,1,1,NA
"873",197,90,1,1,"att_cred",3.018,1,1,NA
"874",197,35,1,1,"att_cred",5.174,1,0,NA
"875",197,76,1,1,"att_cred",4.932,0,1,NA
"876",197,77,1,1,"att_cred",4.056,1,0,NA
"877",197,91,1,1,"att_cred",2.677,0,1,NA
"878",197,39,1,1,"att_cred",6.744,0,0,NA
"879",197,93,1,1,"att_cred",3.374,0,1,NA
"880",197,94,1,1,"att_cred",3.503,1,1,NA
"881",197,42,1,1,"att_cred",3.667,0,1,NA
"882",197,43,1,1,"att_cred",2.222,0,1,NA
"883",197,95,1,1,"att_cred",7.895,1,1,NA
"884",197,44,1,1,"att_cred",1.8,1,1,NA
"885",197,45,1,1,"att_cred",3.692,1,0,NA
"886",197,46,1,1,"att_cred",2.476,1,1,NA
"887",197,109,1,1,"att_cred",1.516,1,1,NA
"888",197,49,1,1,"att_cred",4.957,1,1,NA
"889",197,96,1,1,"att_cred",4.657,1,0,NA
"890",197,52,1,1,"att_cred",3.607,0,0,NA
"891",197,53,1,1,"att_cred",2.094,0,0,NA
"892",197,99,1,1,"att_cred",3.506,1,0,NA
"893",197,54,1,1,"att_cred",1.93,0,1,NA
"894",197,101,1,1,"att_cred",2.296,1,1,NA
"895",197,56,1,1,"att_cred",2.437,0,0,NA
"896",197,116,1,1,"att_cred",3.811,1,1,NA
"897",198,1,1,1,"noatt_nocred",5.612,1,0,NA
"898",198,58,1,1,"noatt_nocred",3.623,1,1,NA
"899",198,59,1,1,"noatt_nocred",7.923,0,1,NA
"900",198,4,1,1,"noatt_nocred",5.332,0,0,NA
"901",198,5,1,1,"noatt_nocred",10.294,1,1,NA
"902",198,6,1,1,"noatt_nocred",9.348,1,0,NA
"903",198,62,1,1,"noatt_nocred",8.029,1,1,NA
"904",198,8,1,1,"noatt_nocred",2.944,0,0,NA
"905",198,63,1,1,"noatt_nocred",3.875,1,1,NA
"906",198,102,1,1,"noatt_nocred",6.072,0,0,NA
"907",198,85,1,1,"noatt_nocred",3.416,0,0,NA
"908",198,12,1,1,"noatt_nocred",4.544,1,0,NA
"909",198,13,1,1,"noatt_nocred",12.048,0,1,NA
"910",198,65,1,1,"noatt_nocred",10.071,1,1,NA
"911",198,15,1,1,"noatt_nocred",6.842,1,0,NA
"912",198,66,1,1,"noatt_nocred",7.446,1,0,NA
"913",198,87,1,1,"noatt_nocred",14.148,0,0,NA
"914",198,67,1,1,"noatt_nocred",2.489,1,1,NA
"915",198,68,1,1,"noatt_nocred",3.696,1,0,NA
"916",198,105,1,1,"noatt_nocred",12.759,0,0,NA
"917",198,69,1,1,"noatt_nocred",3.885,1,0,NA
"918",198,70,1,1,"noatt_nocred",3.678,1,0,NA
"919",198,23,1,1,"noatt_nocred",7.084,1,1,NA
"920",198,24,1,1,"noatt_nocred",11.417,1,1,NA
"921",198,25,1,1,"noatt_nocred",3.387,1,1,NA
"922",198,89,1,1,"noatt_nocred",7.56,1,0,NA
"923",198,117,1,1,"noatt_nocred",4.666,1,0,NA
"924",198,26,1,1,"noatt_nocred",2.104,1,1,NA
"925",198,74,1,1,"noatt_nocred",5.56,1,1,NA
"926",198,29,1,1,"noatt_nocred",6.092,0,0,NA
"927",198,30,1,1,"noatt_nocred",16.411,0,0,NA
"928",198,112,1,1,"noatt_nocred",28.804,1,1,NA
"929",198,75,1,1,"noatt_nocred",9.907,0,1,NA
"930",198,34,1,1,"noatt_nocred",4.935,0,0,NA
"931",198,35,1,1,"noatt_nocred",2.061,1,1,NA
"932",198,76,1,1,"noatt_nocred",4.691,0,1,NA
"933",198,77,1,1,"noatt_nocred",6.301,1,1,NA
"934",198,38,1,1,"noatt_nocred",5.109,0,0,NA
"935",198,92,1,1,"noatt_nocred",2.922,1,1,NA
"936",198,40,1,1,"noatt_nocred",3.276,1,0,NA
"937",198,41,1,1,"noatt_nocred",0.034,1,0,NA
"938",198,78,1,1,"noatt_nocred",7.312,1,1,NA
"939",198,108,1,1,"noatt_nocred",5.48,1,1,NA
"940",198,44,1,1,"noatt_nocred",9.476,0,0,NA
"941",198,45,1,1,"noatt_nocred",3.989,1,1,NA
"942",198,46,1,1,"noatt_nocred",3.794,1,0,NA
"943",198,109,1,1,"noatt_nocred",6.032,1,1,NA
"944",198,48,1,1,"noatt_nocred",14.313,0,0,NA
"945",198,81,1,1,"noatt_nocred",5.929,0,1,NA
"946",198,96,1,1,"noatt_nocred",3.969,1,0,NA
"947",198,97,1,1,"noatt_nocred",5.217,1,1,NA
"948",198,52,1,1,"noatt_nocred",2.809,1,1,NA
"949",198,53,1,1,"noatt_nocred",2.952,1,1,NA
"950",198,100,1,1,"noatt_nocred",2.208,1,1,NA
"951",198,101,1,1,"noatt_nocred",4.331,1,0,NA
"952",198,56,1,1,"noatt_nocred",3.523,0,0,NA
"953",199,58,1,1,"att_nocred",2.567,1,0,NA
"954",199,59,1,1,"att_nocred",5.513,0,1,NA
"955",199,4,1,1,"att_nocred",8.573,0,1,NA
"956",199,5,1,1,"att_nocred",9.803,0,0,NA
"957",199,84,1,1,"att_nocred",5.003,0,0,NA
"958",199,62,1,1,"att_nocred",5.012,0,0,NA
"959",199,9,1,1,"att_nocred",3.351,0,0,NA
"960",199,102,1,1,"att_nocred",4.346,0,0,NA
"961",199,85,1,1,"att_nocred",4.819,1,1,NA
"962",199,13,1,1,"att_nocred",4.968,1,1,NA
"963",199,65,1,1,"att_nocred",5.362,0,0,NA
"964",199,86,1,1,"att_nocred",6.194,0,0,NA
"965",199,15,1,1,"att_nocred",2.829,0,0,NA
"966",199,16,1,1,"att_nocred",8.977,1,1,NA
"967",199,87,1,1,"att_nocred",8.149,0,0,NA
"968",199,18,1,1,"att_nocred",4.542,0,1,NA
"969",199,19,1,1,"att_nocred",5.928,1,1,NA
"970",199,105,1,1,"att_nocred",3.244,1,1,NA
"971",199,69,1,1,"att_nocred",3.129,0,1,NA
"972",199,70,1,1,"att_nocred",2.721,1,1,NA
"973",199,115,1,1,"att_nocred",5.595,0,0,NA
"974",199,71,1,1,"att_nocred",7.346,0,1,NA
"975",199,25,1,1,"att_nocred",4.524,0,1,NA
"976",199,72,1,1,"att_nocred",9.283,0,1,NA
"977",199,117,1,1,"att_nocred",6.062,1,0,NA
"978",199,118,1,1,"att_nocred",5.601,0,1,NA
"979",199,27,1,1,"att_nocred",7.632,0,0,NA
"980",199,111,1,1,"att_nocred",7.471,0,0,NA
"981",199,106,1,1,"att_nocred",4.19,1,0,NA
"982",199,107,1,1,"att_nocred",8.9,1,0,NA
"983",199,31,1,1,"att_nocred",4.802,1,1,NA
"984",199,32,1,1,"att_nocred",9.619,1,1,NA
"985",199,90,1,1,"att_nocred",6.737,1,0,NA
"986",199,34,1,1,"att_nocred",4.252,0,0,NA
"987",199,114,1,1,"att_nocred",5.855,0,1,NA
"988",199,36,1,1,"att_nocred",3.869,0,1,NA
"989",199,77,1,1,"att_nocred",11.241,0,1,NA
"990",199,91,1,1,"att_nocred",3.173,0,0,NA
"991",199,39,1,1,"att_nocred",8.286,1,0,NA
"992",199,93,1,1,"att_nocred",3.098,1,0,NA
"993",199,41,1,1,"att_nocred",4.788,1,1,NA
"994",199,42,1,1,"att_nocred",6.85,1,1,NA
"995",199,43,1,1,"att_nocred",4.18,1,0,NA
"996",199,44,1,1,"att_nocred",3.443,1,0,NA
"997",199,80,1,1,"att_nocred",4.139,1,0,NA
"998",199,109,1,1,"att_nocred",4.743,0,0,NA
"999",199,48,1,1,"att_nocred",7.463,0,1,NA
"1000",199,81,1,1,"att_nocred",4.574,0,1,NA
"1001",199,96,1,1,"att_nocred",6.939,1,1,NA
"1002",199,97,1,1,"att_nocred",13.276,0,1,NA
"1003",199,52,1,1,"att_nocred",3.475,0,0,NA
"1004",199,53,1,1,"att_nocred",2.737,0,1,NA
"1005",199,100,1,1,"att_nocred",3.34,0,1,NA
"1006",199,101,1,1,"att_nocred",7.964,0,0,NA
"1007",199,56,1,1,"att_nocred",5.803,0,0,NA
"1008",199,116,1,1,"att_nocred",4.054,0,1,NA
"1009",20,1,1,1,"noatt_nocred",0.008,1,1,NA
"1010",20,2,1,1,"noatt_nocred",9.577,1,0,NA
"1011",20,3,1,1,"noatt_nocred",6.621,1,1,NA
"1012",20,60,1,1,"noatt_nocred",10.766,0,1,NA
"1013",20,61,1,1,"noatt_nocred",7.186,1,0,NA
"1014",20,6,1,1,"noatt_nocred",8.811,1,1,NA
"1015",20,62,1,1,"noatt_nocred",6.279,0,1,NA
"1016",20,9,1,1,"noatt_nocred",11.057,0,0,NA
"1017",20,10,1,1,"noatt_nocred",8.903,1,1,NA
"1018",20,11,1,1,"noatt_nocred",6.057,1,1,NA
"1019",20,12,1,1,"noatt_nocred",3.464,1,1,NA
"1020",20,64,1,1,"noatt_nocred",8.706,1,1,NA
"1021",20,65,1,1,"noatt_nocred",8.543,0,1,NA
"1022",20,15,1,1,"noatt_nocred",8.42,0,0,NA
"1023",20,16,1,1,"noatt_nocred",7.874,1,0,NA
"1024",20,87,1,1,"noatt_nocred",8.781,1,1,NA
"1025",20,67,1,1,"noatt_nocred",2.292,1,1,NA
"1026",20,19,1,1,"noatt_nocred",9.735,0,0,NA
"1027",20,20,1,1,"noatt_nocred",5.262,1,0,NA
"1028",20,21,1,1,"noatt_nocred",7.096,1,1,NA
"1029",20,70,1,1,"noatt_nocred",6.077,0,0,NA
"1030",20,23,1,1,"noatt_nocred",10.392,1,1,NA
"1031",20,24,1,1,"noatt_nocred",8.415,0,0,NA
"1032",20,25,1,1,"noatt_nocred",8.554,0,0,NA
"1033",20,89,1,1,"noatt_nocred",9.147,0,0,NA
"1034",20,73,1,1,"noatt_nocred",8.259,0,0,NA
"1035",20,118,1,1,"noatt_nocred",2.75,1,1,NA
"1036",20,74,1,1,"noatt_nocred",6.084,1,0,NA
"1037",20,111,1,1,"noatt_nocred",5.587,1,1,NA
"1038",20,29,1,1,"noatt_nocred",5.297,1,0,NA
"1039",20,30,1,1,"noatt_nocred",8.129,0,1,NA
"1040",20,112,1,1,"noatt_nocred",4.587,1,0,NA
"1041",20,32,1,1,"noatt_nocred",7.857,1,0,NA
"1042",20,113,1,1,"noatt_nocred",9.995,1,1,NA
"1043",20,114,1,1,"noatt_nocred",6.086,1,0,NA
"1044",20,76,1,1,"noatt_nocred",6.559,1,1,NA
"1045",20,77,1,1,"noatt_nocred",10.321,0,0,NA
"1046",20,38,1,1,"noatt_nocred",4.046,1,0,NA
"1047",20,92,1,1,"noatt_nocred",5.725,1,0,NA
"1048",20,40,1,1,"noatt_nocred",7.605,0,0,NA
"1049",20,41,1,1,"noatt_nocred",4.29,1,1,NA
"1050",20,78,1,1,"noatt_nocred",8.156,1,0,NA
"1051",20,45,1,1,"noatt_nocred",6.724,0,0,NA
"1052",20,79,1,1,"noatt_nocred",3.266,1,1,NA
"1053",20,80,1,1,"noatt_nocred",9.319,0,0,NA
"1054",20,109,1,1,"noatt_nocred",5.671,1,1,NA
"1055",20,48,1,1,"noatt_nocred",7.169,0,1,NA
"1056",20,50,1,1,"noatt_nocred",5.459,0,1,NA
"1057",20,51,1,1,"noatt_nocred",9.561,1,0,NA
"1058",20,98,1,1,"noatt_nocred",4.829,0,0,NA
"1059",20,82,1,1,"noatt_nocred",4.538,0,0,NA
"1060",20,99,1,1,"noatt_nocred",3.381,1,1,NA
"1061",20,100,1,1,"noatt_nocred",5.903,1,1,NA
"1062",20,101,1,1,"noatt_nocred",5.357,0,0,NA
"1063",20,110,1,1,"noatt_nocred",5.38,1,1,NA
"1064",20,116,1,1,"noatt_nocred",5.364,1,1,NA
"1065",21,1,1,1,"att_nocred",3.174,1,1,NA
"1066",21,58,1,1,"att_nocred",2.664,1,0,NA
"1067",21,59,1,1,"att_nocred",3.472,1,1,NA
"1068",21,60,1,1,"att_nocred",6.616,0,0,NA
"1069",21,5,1,1,"att_nocred",2.911,1,1,NA
"1070",21,84,1,1,"att_nocred",3.931,0,0,NA
"1071",21,7,1,1,"att_nocred",6.239,0,1,NA
"1072",21,63,1,1,"att_nocred",1.469,0,1,NA
"1073",21,102,1,1,"att_nocred",2.312,1,1,NA
"1074",21,11,1,1,"att_nocred",5.98,0,0,NA
"1075",21,103,1,1,"att_nocred",2.702,1,1,NA
"1076",21,64,1,1,"att_nocred",2.754,0,1,NA
"1077",21,14,1,1,"att_nocred",3.269,0,1,NA
"1078",21,86,1,1,"att_nocred",1.783,1,1,NA
"1079",21,15,1,1,"att_nocred",2.813,1,1,NA
"1080",21,16,1,1,"att_nocred",3.642,1,1,NA
"1081",21,87,1,1,"att_nocred",4.774,0,1,NA
"1082",21,67,1,1,"att_nocred",4.953,1,1,NA
"1083",21,68,1,1,"att_nocred",2.896,1,1,NA
"1084",21,20,1,1,"att_nocred",1.528,1,0,NA
"1085",21,69,1,1,"att_nocred",4.663,1,1,NA
"1086",21,22,1,1,"att_nocred",2.212,1,1,NA
"1087",21,115,1,1,"att_nocred",7.211,1,0,NA
"1088",21,24,1,1,"att_nocred",9.447,0,1,NA
"1089",21,25,1,1,"att_nocred",4.387,1,0,NA
"1090",21,72,1,1,"att_nocred",6.196,0,0,NA
"1091",21,117,1,1,"att_nocred",4.04,1,0,NA
"1092",21,26,1,1,"att_nocred",2.434,1,1,NA
"1093",21,28,1,1,"att_nocred",6.557,1,0,NA
"1094",21,29,1,1,"att_nocred",11.045,1,0,NA
"1095",21,107,1,1,"att_nocred",4.952,0,1,NA
"1096",21,112,1,1,"att_nocred",5.138,0,0,NA
"1097",21,75,1,1,"att_nocred",3.145,0,1,NA
"1098",21,90,1,1,"att_nocred",4.326,0,0,NA
"1099",21,34,1,1,"att_nocred",1.081,0,1,NA
"1100",21,114,1,1,"att_nocred",3.227,1,1,NA
"1101",21,76,1,1,"att_nocred",4.83,0,0,NA
"1102",21,77,1,1,"att_nocred",2.678,1,0,NA
"1103",21,38,1,1,"att_nocred",4.971,0,0,NA
"1104",21,92,1,1,"att_nocred",4.04,1,0,NA
"1105",21,93,1,1,"att_nocred",2.941,1,0,NA
"1106",21,94,1,1,"att_nocred",3.411,1,0,NA
"1107",21,42,1,1,"att_nocred",5.69,0,0,NA
"1108",21,108,1,1,"att_nocred",6.537,1,1,NA
"1109",21,95,1,1,"att_nocred",7.687,0,0,NA
"1110",21,79,1,1,"att_nocred",5.603,1,1,NA
"1111",21,46,1,1,"att_nocred",2.417,0,0,NA
"1112",21,47,1,1,"att_nocred",2.527,1,0,NA
"1113",21,81,1,1,"att_nocred",1.266,1,1,NA
"1114",21,96,1,1,"att_nocred",7.177,0,0,NA
"1115",21,97,1,1,"att_nocred",2.551,0,0,NA
"1116",21,52,1,1,"att_nocred",4.293,0,0,NA
"1117",21,53,1,1,"att_nocred",1.873,1,1,NA
"1118",21,99,1,1,"att_nocred",3.545,0,0,NA
"1119",21,55,1,1,"att_nocred",2.931,1,0,NA
"1120",21,116,1,1,"att_nocred",7.471,0,1,NA
"1121",22,57,1,1,"noatt_cred",5.206,0,0,NA
"1122",22,2,1,1,"noatt_cred",3.117,1,1,NA
"1123",22,59,1,1,"noatt_cred",35.807,0,0,NA
"1124",22,60,1,1,"noatt_cred",9.247,1,0,NA
"1125",22,5,1,1,"noatt_cred",6.325,1,1,NA
"1126",22,6,1,1,"noatt_cred",19.588,0,0,NA
"1127",22,7,1,1,"noatt_cred",17.67,1,1,NA
"1128",22,8,1,1,"noatt_cred",3.438,0,0,NA
"1129",22,63,1,1,"noatt_cred",2.508,0,0,NA
"1130",22,102,1,1,"noatt_cred",3.873,1,1,NA
"1131",22,85,1,1,"noatt_cred",6.88,1,1,NA
"1132",22,64,1,1,"noatt_cred",13.129,0,1,NA
"1133",22,14,1,1,"noatt_cred",7.855,0,1,NA
"1134",22,15,1,1,"noatt_cred",4.156,0,0,NA
"1135",22,16,1,1,"noatt_cred",6.626,1,0,NA
"1136",22,17,1,1,"noatt_cred",8.138,1,0,NA
"1137",22,67,1,1,"noatt_cred",2.537,0,1,NA
"1138",22,68,1,1,"noatt_cred",1.562,1,1,NA
"1139",22,105,1,1,"noatt_cred",2.918,0,1,NA
"1140",22,21,1,1,"noatt_cred",15.898,1,0,NA
"1141",22,70,1,1,"noatt_cred",3.953,0,1,NA
"1142",22,23,1,1,"noatt_cred",3.366,1,1,NA
"1143",22,24,1,1,"noatt_cred",4.638,0,0,NA
"1144",22,88,1,1,"noatt_cred",2.339,1,0,NA
"1145",22,72,1,1,"noatt_cred",6.57,1,1,NA
"1146",22,117,1,1,"noatt_cred",5.227,0,0,NA
"1147",22,118,1,1,"noatt_cred",12.959,1,1,NA
"1148",22,28,1,1,"noatt_cred",7.266,1,1,NA
"1149",22,29,1,1,"noatt_cred",5,1,1,NA
"1150",22,107,1,1,"noatt_cred",7.743,1,1,NA
"1151",22,31,1,1,"noatt_cred",9.859,0,0,NA
"1152",22,75,1,1,"noatt_cred",12.791,0,1,NA
"1153",22,33,1,1,"noatt_cred",4.595,1,0,NA
"1154",22,34,1,1,"noatt_cred",2.397,0,1,NA
"1155",22,35,1,1,"noatt_cred",7.678,0,0,NA
"1156",22,77,1,1,"noatt_cred",1.712,0,1,NA
"1157",22,91,1,1,"noatt_cred",5.387,1,1,NA
"1158",22,39,1,1,"noatt_cred",6.533,1,0,NA
"1159",22,93,1,1,"noatt_cred",5.765,1,0,NA
"1160",22,94,1,1,"noatt_cred",4.886,1,1,NA
"1161",22,78,1,1,"noatt_cred",5.985,0,0,NA
"1162",22,43,1,1,"noatt_cred",7.761,1,0,NA
"1163",22,95,1,1,"noatt_cred",46.57,0,1,NA
"1164",22,44,1,1,"noatt_cred",4.764,0,1,NA
"1165",22,45,1,1,"noatt_cred",5.464,1,0,NA
"1166",22,46,1,1,"noatt_cred",6.712,0,0,NA
"1167",22,47,1,1,"noatt_cred",8.077,1,0,NA
"1168",22,81,1,1,"noatt_cred",5.886,1,1,NA
"1169",22,50,1,1,"noatt_cred",12.64,0,0,NA
"1170",22,97,1,1,"noatt_cred",25.387,0,0,NA
"1171",22,98,1,1,"noatt_cred",4.168,1,0,NA
"1172",22,82,1,1,"noatt_cred",2.071,1,0,NA
"1173",22,54,1,1,"noatt_cred",2.872,0,1,NA
"1174",22,101,1,1,"noatt_cred",2.366,1,0,NA
"1175",22,110,1,1,"noatt_cred",4.756,1,1,NA
"1176",22,116,1,1,"noatt_cred",3.036,1,1,NA
"1177",23,57,1,1,"att_cred",5.68,1,0,NA
"1178",23,58,1,1,"att_cred",2.033,1,1,NA
"1179",23,59,1,1,"att_cred",4.207,0,0,NA
"1180",23,60,1,1,"att_cred",6.082,0,0,NA
"1181",23,5,1,1,"att_cred",10.087,1,0,NA
"1182",23,84,1,1,"att_cred",7.344,1,0,NA
"1183",23,62,1,1,"att_cred",2.213,1,1,NA
"1184",23,63,1,1,"att_cred",1.682,0,1,NA
"1185",23,102,1,1,"att_cred",6.744,1,0,NA
"1186",23,11,1,1,"att_cred",9.493,0,0,NA
"1187",23,13,1,1,"att_cred",2.495,1,0,NA
"1188",23,65,1,1,"att_cred",7.114,0,0,NA
"1189",23,15,1,1,"att_cred",5.382,0,1,NA
"1190",23,66,1,1,"att_cred",2.298,1,1,NA
"1191",23,87,1,1,"att_cred",6.21,1,0,NA
"1192",23,18,1,1,"att_cred",1.706,1,1,NA
"1193",23,68,1,1,"att_cred",2.355,0,0,NA
"1194",23,105,1,1,"att_cred",2.406,0,1,NA
"1195",23,69,1,1,"att_cred",2.328,1,1,NA
"1196",23,70,1,1,"att_cred",2.069,0,1,NA
"1197",23,23,1,1,"att_cred",1.824,0,1,NA
"1198",23,71,1,1,"att_cred",5.963,0,0,NA
"1199",23,88,1,1,"att_cred",2.697,1,1,NA
"1200",23,89,1,1,"att_cred",2.47,0,1,NA
"1201",23,73,1,1,"att_cred",3.6,1,1,NA
"1202",23,26,1,1,"att_cred",4.105,0,0,NA
"1203",23,27,1,1,"att_cred",6.845,0,0,NA
"1204",23,28,1,1,"att_cred",10.937,0,0,NA
"1205",23,106,1,1,"att_cred",2.355,1,0,NA
"1206",23,107,1,1,"att_cred",3.953,0,1,NA
"1207",23,31,1,1,"att_cred",2.576,1,0,NA
"1208",23,32,1,1,"att_cred",8.105,1,1,NA
"1209",23,90,1,1,"att_cred",3.563,0,0,NA
"1210",23,34,1,1,"att_cred",4.161,0,1,NA
"1211",23,114,1,1,"att_cred",4.643,0,0,NA
"1212",23,36,1,1,"att_cred",8.286,0,1,NA
"1213",23,77,1,1,"att_cred",5.35,1,1,NA
"1214",23,92,1,1,"att_cred",4.727,0,0,NA
"1215",23,93,1,1,"att_cred",2.182,1,0,NA
"1216",23,94,1,1,"att_cred",6.712,1,1,NA
"1217",23,78,1,1,"att_cred",11.216,1,0,NA
"1218",23,43,1,1,"att_cred",2.334,0,1,NA
"1219",23,95,1,1,"att_cred",14.174,1,0,NA
"1220",23,79,1,1,"att_cred",2.626,1,0,NA
"1221",23,80,1,1,"att_cred",8.552,0,0,NA
"1222",23,109,1,1,"att_cred",1.669,0,1,NA
"1223",23,81,1,1,"att_cred",3.849,1,1,NA
"1224",23,50,1,1,"att_cred",3.273,0,1,NA
"1225",23,97,1,1,"att_cred",3.024,0,1,NA
"1226",23,98,1,1,"att_cred",7.067,0,0,NA
"1227",23,53,1,1,"att_cred",2.773,1,1,NA
"1228",23,99,1,1,"att_cred",2.856,1,1,NA
"1229",23,54,1,1,"att_cred",4.852,0,1,NA
"1230",23,55,1,1,"att_cred",2.974,0,0,NA
"1231",23,110,1,1,"att_cred",2.683,0,0,NA
"1232",23,116,1,1,"att_cred",7.597,1,1,NA
"1233",25,1,1,1,"att_nocred",2.588,1,0,NA
"1234",25,59,1,1,"att_nocred",5.86,1,0,NA
"1235",25,60,1,1,"att_nocred",9.743,1,1,NA
"1236",25,5,1,1,"att_nocred",5.23,1,0,NA
"1237",25,6,1,1,"att_nocred",5.386,0,0,NA
"1238",25,62,1,1,"att_nocred",4.124,0,1,NA
"1239",25,63,1,1,"att_nocred",4.404,0,0,NA
"1240",25,10,1,1,"att_nocred",3.699,1,0,NA
"1241",25,85,1,1,"att_nocred",3.686,0,0,NA
"1242",25,103,1,1,"att_nocred",5.269,0,0,NA
"1243",25,64,1,1,"att_nocred",6.69,0,1,NA
"1244",25,14,1,1,"att_nocred",3.828,1,0,NA
"1245",25,104,1,1,"att_nocred",4.821,0,1,NA
"1246",25,16,1,1,"att_nocred",5.438,1,1,NA
"1247",25,17,1,1,"att_nocred",8.495,0,1,NA
"1248",25,67,1,1,"att_nocred",5.069,0,1,NA
"1249",25,19,1,1,"att_nocred",5.782,1,1,NA
"1250",25,105,1,1,"att_nocred",3.548,1,0,NA
"1251",25,21,1,1,"att_nocred",9.045,1,1,NA
"1252",25,22,1,1,"att_nocred",3.393,1,1,NA
"1253",25,23,1,1,"att_nocred",7.831,0,0,NA
"1254",25,71,1,1,"att_nocred",7.594,1,1,NA
"1255",25,88,1,1,"att_nocred",6.566,1,0,NA
"1256",25,89,1,1,"att_nocred",4.968,0,1,NA
"1257",25,117,1,1,"att_nocred",10.064,1,1,NA
"1258",25,26,1,1,"att_nocred",5.826,1,1,NA
"1259",25,74,1,1,"att_nocred",6.176,1,0,NA
"1260",25,28,1,1,"att_nocred",5.08,1,0,NA
"1261",25,106,1,1,"att_nocred",3.493,1,1,NA
"1262",25,31,1,1,"att_nocred",5.727,0,1,NA
"1263",25,32,1,1,"att_nocred",5.067,1,1,NA
"1264",25,33,1,1,"att_nocred",2.832,0,0,NA
"1265",25,34,1,1,"att_nocred",4.044,1,0,NA
"1266",25,35,1,1,"att_nocred",6.737,0,0,NA
"1267",25,36,1,1,"att_nocred",4.509,1,1,NA
"1268",25,37,1,1,"att_nocred",5.768,0,1,NA
"1269",25,91,1,1,"att_nocred",6.282,0,0,NA
"1270",25,92,1,1,"att_nocred",4.989,1,0,NA
"1271",25,93,1,1,"att_nocred",3.624,0,1,NA
"1272",25,94,1,1,"att_nocred",2.867,1,1,NA
"1273",25,42,1,1,"att_nocred",7.249,0,0,NA
"1274",25,108,1,1,"att_nocred",4.973,1,1,NA
"1275",25,44,1,1,"att_nocred",2.908,0,0,NA
"1276",25,45,1,1,"att_nocred",4.083,0,0,NA
"1277",25,80,1,1,"att_nocred",8.259,0,1,NA
"1278",25,109,1,1,"att_nocred",8.646,0,0,NA
"1279",25,48,1,1,"att_nocred",6.443,1,0,NA
"1280",25,81,1,1,"att_nocred",8.156,1,0,NA
"1281",25,50,1,1,"att_nocred",9.384,0,0,NA
"1282",25,51,1,1,"att_nocred",6.175,1,0,NA
"1283",25,98,1,1,"att_nocred",5.141,1,1,NA
"1284",25,53,1,1,"att_nocred",4.19,0,0,NA
"1285",25,99,1,1,"att_nocred",4.511,1,1,NA
"1286",25,55,1,1,"att_nocred",10.846,1,1,NA
"1287",25,110,1,1,"att_nocred",3.571,0,1,NA
"1288",25,83,1,1,"att_nocred",10.99,1,1,NA
"1289",103,57,1,1,"noatt_cred",5.003,1,1,NA
"1290",103,2,1,1,"noatt_cred",2.983,1,1,NA
"1291",103,59,1,1,"noatt_cred",7.661,0,1,NA
"1292",103,4,1,1,"noatt_cred",3.893,0,1,NA
"1293",103,61,1,1,"noatt_cred",5.483,0,1,NA
"1294",103,84,1,1,"noatt_cred",6.347,1,0,NA
"1295",103,8,1,1,"noatt_cred",3.709,0,1,NA
"1296",103,63,1,1,"noatt_cred",5.863,1,0,NA
"1297",103,10,1,1,"noatt_cred",6.389,0,0,NA
"1298",103,85,1,1,"noatt_cred",4.5,1,1,NA
"1299",103,12,1,1,"noatt_cred",5.265,1,0,NA
"1300",103,64,1,1,"noatt_cred",9.049,1,0,NA
"1301",103,65,1,1,"noatt_cred",4.203,0,0,NA
"1302",103,104,1,1,"noatt_cred",4.999,1,1,NA
"1303",103,16,1,1,"noatt_cred",5.805,0,0,NA
"1304",103,87,1,1,"noatt_cred",9.019,0,0,NA
"1305",103,67,1,1,"noatt_cred",6.559,0,0,NA
"1306",103,19,1,1,"noatt_cred",3.061,0,1,NA
"1307",103,105,1,1,"noatt_cred",4.006,1,0,NA
"1308",103,69,1,1,"noatt_cred",3.601,1,0,NA
"1309",103,22,1,1,"noatt_cred",3.385,0,1,NA
"1310",103,115,1,1,"noatt_cred",6.987,0,0,NA
"1311",103,71,1,1,"noatt_cred",4.667,1,0,NA
"1312",103,88,1,1,"noatt_cred",3.454,0,0,NA
"1313",103,72,1,1,"noatt_cred",4.158,1,1,NA
"1314",103,73,1,1,"noatt_cred",9.825,0,1,NA
"1315",103,26,1,1,"noatt_cred",3.578,0,0,NA
"1316",103,74,1,1,"noatt_cred",3.611,0,1,NA
"1317",103,111,1,1,"noatt_cred",3.902,0,0,NA
"1318",103,106,1,1,"noatt_cred",3.205,1,1,NA
"1319",103,107,1,1,"noatt_cred",9.878,0,1,NA
"1320",103,112,1,1,"noatt_cred",4.255,1,0,NA
"1321",103,75,1,1,"noatt_cred",3.462,1,0,NA
"1322",103,33,1,1,"noatt_cred",2.289,1,0,NA
"1323",103,34,1,1,"noatt_cred",2.726,0,0,NA
"1324",103,114,1,1,"noatt_cred",4.142,0,0,NA
"1325",103,76,1,1,"noatt_cred",1.934,0,1,NA
"1326",103,37,1,1,"noatt_cred",9.202,1,1,NA
"1327",103,91,1,1,"noatt_cred",6.02,0,0,NA
"1328",103,92,1,1,"noatt_cred",3.498,1,1,NA
"1329",103,93,1,1,"noatt_cred",3.167,1,0,NA
"1330",103,94,1,1,"noatt_cred",4.984,1,1,NA
"1331",103,42,1,1,"noatt_cred",8.856,0,1,NA
"1332",103,108,1,1,"noatt_cred",3.64,1,1,NA
"1333",103,44,1,1,"noatt_cred",4.27,0,1,NA
"1334",103,45,1,1,"noatt_cred",8.167,1,0,NA
"1335",103,46,1,1,"noatt_cred",2.73,1,0,NA
"1336",103,109,1,1,"noatt_cred",8.326,1,1,NA
"1337",103,48,1,1,"noatt_cred",4.966,0,1,NA
"1338",103,49,1,1,"noatt_cred",12.157,1,0,NA
"1339",103,96,1,1,"noatt_cred",11.779,1,0,NA
"1340",103,97,1,1,"noatt_cred",6.293,0,1,NA
"1341",103,98,1,1,"noatt_cred",5.477,1,1,NA
"1342",103,53,1,1,"noatt_cred",3.379,0,1,NA
"1343",103,54,1,1,"noatt_cred",8.5,1,0,NA
"1344",103,116,1,1,"noatt_cred",4.737,0,1,NA
"1345",26,57,1,1,"noatt_cred",3.317,1,1,NA
"1346",26,2,1,1,"noatt_cred",3.491,1,1,NA
"1347",26,60,1,1,"noatt_cred",2.91,1,1,NA
"1348",26,5,1,1,"noatt_cred",9.12,0,0,NA
"1349",26,84,1,1,"noatt_cred",5.058,0,1,NA
"1350",26,62,1,1,"noatt_cred",4.473,0,0,NA
"1351",26,8,1,1,"noatt_cred",3.99,0,0,NA
"1352",26,9,1,1,"noatt_cred",2.154,1,1,NA
"1353",26,10,1,1,"noatt_cred",2.359,0,1,NA
"1354",26,11,1,1,"noatt_cred",2.708,0,0,NA
"1355",26,103,1,1,"noatt_cred",4.667,0,0,NA
"1356",26,64,1,1,"noatt_cred",3.307,0,0,NA
"1357",26,14,1,1,"noatt_cred",5.867,1,0,NA
"1358",26,86,1,1,"noatt_cred",3.79,0,1,NA
"1359",26,104,1,1,"noatt_cred",3.007,1,0,NA
"1360",26,16,1,1,"noatt_cred",7.637,1,1,NA
"1361",26,17,1,1,"noatt_cred",5.899,0,1,NA
"1362",26,18,1,1,"noatt_cred",1.656,1,1,NA
"1363",26,68,1,1,"noatt_cred",2.279,1,1,NA
"1364",26,20,1,1,"noatt_cred",6.717,1,1,NA
"1365",26,21,1,1,"noatt_cred",4.127,0,0,NA
"1366",26,70,1,1,"noatt_cred",3.259,1,0,NA
"1367",26,23,1,1,"noatt_cred",8.089,1,1,NA
"1368",26,71,1,1,"noatt_cred",7.45,0,0,NA
"1369",26,25,1,1,"noatt_cred",3.604,1,0,NA
"1370",26,89,1,1,"noatt_cred",7.813,0,1,NA
"1371",26,73,1,1,"noatt_cred",6.361,1,0,NA
"1372",26,26,1,1,"noatt_cred",2.841,1,1,NA
"1373",26,74,1,1,"noatt_cred",2.856,0,1,NA
"1374",26,28,1,1,"noatt_cred",8.414,0,1,NA
"1375",26,106,1,1,"noatt_cred",5.592,1,1,NA
"1376",26,112,1,1,"noatt_cred",11.461,1,1,NA
"1377",26,75,1,1,"noatt_cred",6.283,1,1,NA
"1378",26,33,1,1,"noatt_cred",6.867,0,0,NA
"1379",26,113,1,1,"noatt_cred",3.161,0,1,NA
"1380",26,114,1,1,"noatt_cred",3.418,0,0,NA
"1381",26,77,1,1,"noatt_cred",2.783,1,1,NA
"1382",26,91,1,1,"noatt_cred",3.888,0,0,NA
"1383",26,92,1,1,"noatt_cred",5.866,1,0,NA
"1384",26,40,1,1,"noatt_cred",5.711,0,0,NA
"1385",26,41,1,1,"noatt_cred",6.168,1,0,NA
"1386",26,78,1,1,"noatt_cred",4.928,1,0,NA
"1387",26,43,1,1,"noatt_cred",4.829,1,0,NA
"1388",26,44,1,1,"noatt_cred",2.839,0,1,NA
"1389",26,46,1,1,"noatt_cred",3.606,0,0,NA
"1390",26,47,1,1,"noatt_cred",8.587,1,0,NA
"1391",26,48,1,1,"noatt_cred",8.031,1,1,NA
"1392",26,81,1,1,"noatt_cred",4.827,0,0,NA
"1393",26,50,1,1,"noatt_cred",4.498,1,1,NA
"1394",26,97,1,1,"noatt_cred",4.455,1,1,NA
"1395",26,98,1,1,"noatt_cred",4,1,0,NA
"1396",26,53,1,1,"noatt_cred",3.479,0,1,NA
"1397",26,100,1,1,"noatt_cred",2.872,0,0,NA
"1398",26,55,1,1,"noatt_cred",2.235,0,1,NA
"1399",26,110,1,1,"noatt_cred",2.654,1,0,NA
"1400",26,83,1,1,"noatt_cred",13.663,0,0,NA
"1401",27,2,1,1,"att_nocred",3.645,0,0,NA
"1402",27,3,1,1,"att_nocred",9.283,0,0,NA
"1403",27,60,1,1,"att_nocred",4.406,0,0,NA
"1404",27,61,1,1,"att_nocred",8.602,0,1,NA
"1405",27,84,1,1,"att_nocred",3.212,1,0,NA
"1406",27,7,1,1,"att_nocred",3.393,0,1,NA
"1407",27,63,1,1,"att_nocred",10.722,1,0,NA
"1408",27,10,1,1,"att_nocred",7.194,1,1,NA
"1409",27,11,1,1,"att_nocred",3.877,0,0,NA
"1410",27,12,1,1,"att_nocred",5.433,0,0,NA
"1411",27,64,1,1,"att_nocred",4.165,1,1,NA
"1412",27,14,1,1,"att_nocred",5.33,1,0,NA
"1413",27,86,1,1,"att_nocred",6.737,0,0,NA
"1414",27,104,1,1,"att_nocred",5.842,0,0,NA
"1415",27,66,1,1,"att_nocred",7.414,1,1,NA
"1416",27,87,1,1,"att_nocred",4.141,0,1,NA
"1417",27,18,1,1,"att_nocred",1.206,1,1,NA
"1418",27,19,1,1,"att_nocred",3.28,1,1,NA
"1419",27,105,1,1,"att_nocred",2.996,0,1,NA
"1420",27,69,1,1,"att_nocred",3.999,1,0,NA
"1421",27,22,1,1,"att_nocred",5.226,1,1,NA
"1422",27,115,1,1,"att_nocred",13.19,0,0,NA
"1423",27,71,1,1,"att_nocred",5.29,1,1,NA
"1424",27,25,1,1,"att_nocred",5.938,1,1,NA
"1425",27,89,1,1,"att_nocred",2.495,1,1,NA
"1426",27,73,1,1,"att_nocred",11.496,0,0,NA
"1427",27,118,1,1,"att_nocred",5.376,1,1,NA
"1428",27,27,1,1,"att_nocred",3.428,1,1,NA
"1429",27,111,1,1,"att_nocred",8.596,1,1,NA
"1430",27,106,1,1,"att_nocred",3.332,1,0,NA
"1431",27,30,1,1,"att_nocred",10.138,0,1,NA
"1432",27,31,1,1,"att_nocred",3.144,1,0,NA
"1433",27,32,1,1,"att_nocred",5.879,1,1,NA
"1434",27,33,1,1,"att_nocred",3.341,0,0,NA
"1435",27,34,1,1,"att_nocred",7.056,0,0,NA
"1436",27,114,1,1,"att_nocred",3.258,0,0,NA
"1437",27,36,1,1,"att_nocred",11.936,0,0,NA
"1438",27,77,1,1,"att_nocred",5.882,1,0,NA
"1439",27,38,1,1,"att_nocred",3.311,1,0,NA
"1440",27,39,1,1,"att_nocred",8.915,1,1,NA
"1441",27,40,1,1,"att_nocred",2.029,1,1,NA
"1442",27,41,1,1,"att_nocred",6.789,0,1,NA
"1443",27,43,1,1,"att_nocred",4.823,1,0,NA
"1444",27,95,1,1,"att_nocred",8.091,1,1,NA
"1445",27,79,1,1,"att_nocred",3.724,1,0,NA
"1446",27,46,1,1,"att_nocred",4.441,0,1,NA
"1447",27,47,1,1,"att_nocred",7.163,0,0,NA
"1448",27,49,1,1,"att_nocred",4.183,1,1,NA
"1449",27,96,1,1,"att_nocred",6.034,1,1,NA
"1450",27,97,1,1,"att_nocred",10.221,1,0,NA
"1451",27,98,1,1,"att_nocred",2.166,1,1,NA
"1452",27,99,1,1,"att_nocred",2.47,1,0,NA
"1453",27,54,1,1,"att_nocred",3.943,1,0,NA
"1454",27,101,1,1,"att_nocred",1.747,1,1,NA
"1455",27,110,1,1,"att_nocred",4.13,1,0,NA
"1456",27,116,1,1,"att_nocred",2.33,1,1,NA
"1457",28,57,1,1,"att_nocred",3.367,0,1,NA
"1458",28,2,1,1,"att_nocred",3.933,0,1,NA
"1459",28,3,1,1,"att_nocred",5.093,1,0,NA
"1460",28,5,1,1,"att_nocred",3.327,0,1,NA
"1461",28,84,1,1,"att_nocred",2.997,0,0,NA
"1462",28,7,1,1,"att_nocred",4.165,1,0,NA
"1463",28,8,1,1,"att_nocred",3.184,1,1,NA
"1464",28,63,1,1,"att_nocred",2.222,1,1,NA
"1465",28,102,1,1,"att_nocred",2.696,1,1,NA
"1466",28,85,1,1,"att_nocred",2.336,1,1,NA
"1467",28,103,1,1,"att_nocred",2.027,1,1,NA
"1468",28,64,1,1,"att_nocred",4.392,1,0,NA
"1469",28,65,1,1,"att_nocred",2.993,0,0,NA
"1470",28,15,1,1,"att_nocred",4.318,1,0,NA
"1471",28,66,1,1,"att_nocred",4.114,1,0,NA
"1472",28,17,1,1,"att_nocred",5.455,1,0,NA
"1473",28,18,1,1,"att_nocred",2.073,1,0,NA
"1474",28,19,1,1,"att_nocred",5.521,0,0,NA
"1475",28,20,1,1,"att_nocred",4.087,0,0,NA
"1476",28,21,1,1,"att_nocred",3.223,1,1,NA
"1477",28,70,1,1,"att_nocred",3.104,0,0,NA
"1478",28,23,1,1,"att_nocred",4.184,1,1,NA
"1479",28,24,1,1,"att_nocred",4.59,0,0,NA
"1480",28,25,1,1,"att_nocred",3.206,1,1,NA
"1481",28,72,1,1,"att_nocred",4.277,1,0,NA
"1482",28,73,1,1,"att_nocred",3.804,1,1,NA
"1483",28,26,1,1,"att_nocred",2.584,0,0,NA
"1484",28,27,1,1,"att_nocred",6.053,1,1,NA
"1485",28,28,1,1,"att_nocred",5.075,1,1,NA
"1486",28,29,1,1,"att_nocred",4.303,1,1,NA
"1487",28,107,1,1,"att_nocred",5.94,0,0,NA
"1488",28,31,1,1,"att_nocred",4.007,1,1,NA
"1489",28,32,1,1,"att_nocred",3.035,0,0,NA
"1490",28,33,1,1,"att_nocred",4.238,1,1,NA
"1491",28,34,1,1,"att_nocred",4.685,0,0,NA
"1492",28,114,1,1,"att_nocred",3.682,1,0,NA
"1493",28,36,1,1,"att_nocred",2.616,1,1,NA
"1494",28,37,1,1,"att_nocred",7.596,1,0,NA
"1495",28,38,1,1,"att_nocred",2.845,0,0,NA
"1496",28,92,1,1,"att_nocred",5.983,0,0,NA
"1497",28,41,1,1,"att_nocred",3.168,0,1,NA
"1498",28,42,1,1,"att_nocred",4.1,0,1,NA
"1499",28,108,1,1,"att_nocred",3.525,0,1,NA
"1500",28,79,1,1,"att_nocred",5.422,1,1,NA
"1501",28,46,1,1,"att_nocred",2.944,0,0,NA
"1502",28,47,1,1,"att_nocred",6.108,0,1,NA
"1503",28,48,1,1,"att_nocred",4.793,0,0,NA
"1504",28,49,1,1,"att_nocred",5.154,0,0,NA
"1505",28,50,1,1,"att_nocred",4.443,1,1,NA
"1506",28,51,1,1,"att_nocred",3.95,1,1,NA
"1507",28,52,1,1,"att_nocred",2.828,1,1,NA
"1508",28,53,1,1,"att_nocred",2.841,1,0,NA
"1509",28,100,1,1,"att_nocred",2.024,0,1,NA
"1510",28,55,1,1,"att_nocred",3.254,1,1,NA
"1511",28,56,1,1,"att_nocred",3.246,1,0,NA
"1512",28,116,1,1,"att_nocred",4.205,1,0,NA
"1513",30,2,1,1,"noatt_cred",6.866,1,0,NA
"1514",30,59,1,1,"noatt_cred",4.27,1,1,NA
"1515",30,4,1,1,"noatt_cred",25.67,0,0,NA
"1516",30,61,1,1,"noatt_cred",5.451,1,0,NA
"1517",30,6,1,1,"noatt_cred",3.643,0,0,NA
"1518",30,7,1,1,"noatt_cred",5.206,0,1,NA
"1519",30,8,1,1,"noatt_cred",4.626,0,1,NA
"1520",30,63,1,1,"noatt_cred",2.632,1,0,NA
"1521",30,102,1,1,"noatt_cred",1.959,0,1,NA
"1522",30,85,1,1,"noatt_cred",4.49,0,0,NA
"1523",30,103,1,1,"noatt_cred",3.093,1,1,NA
"1524",30,13,1,1,"noatt_cred",7.797,0,1,NA
"1525",30,65,1,1,"noatt_cred",10.747,1,0,NA
"1526",30,15,1,1,"noatt_cred",4.229,0,0,NA
"1527",30,16,1,1,"noatt_cred",8.644,0,1,NA
"1528",30,17,1,1,"noatt_cred",2.45,1,0,NA
"1529",30,67,1,1,"noatt_cred",8.229,0,0,NA
"1530",30,19,1,1,"noatt_cred",7.638,0,0,NA
"1531",30,20,1,1,"noatt_cred",2.616,0,1,NA
"1532",30,21,1,1,"noatt_cred",5.882,0,1,NA
"1533",30,70,1,1,"noatt_cred",5.696,1,0,NA
"1534",30,115,1,1,"noatt_cred",3.595,1,0,NA
"1535",30,71,1,1,"noatt_cred",6.548,0,1,NA
"1536",30,88,1,1,"noatt_cred",2.87,1,1,NA
"1537",30,72,1,1,"noatt_cred",8.049,1,0,NA
"1538",30,117,1,1,"noatt_cred",3.116,0,1,NA
"1539",30,118,1,1,"noatt_cred",2.553,0,1,NA
"1540",30,74,1,1,"noatt_cred",4.109,1,1,NA
"1541",30,28,1,1,"noatt_cred",3.527,0,1,NA
"1542",30,29,1,1,"noatt_cred",4.587,0,1,NA
"1543",30,107,1,1,"noatt_cred",19.621,1,0,NA
"1544",30,112,1,1,"noatt_cred",3.176,0,1,NA
"1545",30,75,1,1,"noatt_cred",2.965,1,0,NA
"1546",30,33,1,1,"noatt_cred",8.988,1,1,NA
"1547",30,113,1,1,"noatt_cred",2.698,0,0,NA
"1548",30,114,1,1,"noatt_cred",3.967,1,1,NA
"1549",30,76,1,1,"noatt_cred",5.917,0,0,NA
"1550",30,91,1,1,"noatt_cred",3.932,0,0,NA
"1551",30,92,1,1,"noatt_cred",3.872,1,1,NA
"1552",30,93,1,1,"noatt_cred",2.715,0,1,NA
"1553",30,94,1,1,"noatt_cred",8.401,0,0,NA
"1554",30,78,1,1,"noatt_cred",6.615,1,0,NA
"1555",30,108,1,1,"noatt_cred",4.447,1,0,NA
"1556",30,95,1,1,"noatt_cred",7.846,1,1,NA
"1557",30,44,1,1,"noatt_cred",12.93,1,1,NA
"1558",30,45,1,1,"noatt_cred",4.458,0,0,NA
"1559",30,80,1,1,"noatt_cred",4.791,0,0,NA
"1560",30,47,1,1,"noatt_cred",2.077,0,1,NA
"1561",30,81,1,1,"noatt_cred",4.415,0,0,NA
"1562",30,50,1,1,"noatt_cred",11.555,1,0,NA
"1563",30,51,1,1,"noatt_cred",6.06,1,0,NA
"1564",30,98,1,1,"noatt_cred",3.517,0,1,NA
"1565",30,53,1,1,"noatt_cred",3.521,0,0,NA
"1566",30,101,1,1,"noatt_cred",2.268,0,1,NA
"1567",30,56,1,1,"noatt_cred",8.881,1,1,NA
"1568",30,83,1,1,"noatt_cred",3.382,1,1,NA
"1569",31,1,1,1,"att_cred",1.376,1,0,NA
"1570",31,2,1,1,"att_cred",1.847,1,0,NA
"1571",31,3,1,1,"att_cred",4.932,1,0,NA
"1572",31,4,1,1,"att_cred",4.343,0,1,NA
"1573",31,5,1,1,"att_cred",4.282,0,1,NA
"1574",31,6,1,1,"att_cred",3.323,0,0,NA
"1575",31,7,1,1,"att_cred",0.904,0,1,NA
"1576",31,8,1,1,"att_cred",1.354,0,1,NA
"1577",31,9,1,1,"att_cred",1.722,0,1,NA
"1578",31,11,1,1,"att_cred",7.493,1,1,NA
"1579",31,103,1,1,"att_cred",3.68,1,0,NA
"1580",31,64,1,1,"att_cred",2.833,0,1,NA
"1581",31,65,1,1,"att_cred",2.008,0,1,NA
"1582",31,104,1,1,"att_cred",2.682,0,1,NA
"1583",31,66,1,1,"att_cred",4.776,1,1,NA
"1584",31,87,1,1,"att_cred",3.065,1,0,NA
"1585",31,18,1,1,"att_cred",1.336,0,1,NA
"1586",31,19,1,1,"att_cred",2.083,0,1,NA
"1587",31,20,1,1,"att_cred",3.299,1,0,NA
"1588",31,69,1,1,"att_cred",3.767,1,0,NA
"1589",31,22,1,1,"att_cred",1.884,0,1,NA
"1590",31,115,1,1,"att_cred",2.071,0,1,NA
"1591",31,24,1,1,"att_cred",2.842,0,0,NA
"1592",31,25,1,1,"att_cred",4.207,0,1,NA
"1593",31,89,1,1,"att_cred",5.993,0,0,NA
"1594",31,73,1,1,"att_cred",7.563,0,1,NA
"1595",31,26,1,1,"att_cred",3.112,0,1,NA
"1596",31,74,1,1,"att_cred",2.411,0,0,NA
"1597",31,28,1,1,"att_cred",6.16,0,1,NA
"1598",31,29,1,1,"att_cred",1.95,1,0,NA
"1599",31,107,1,1,"att_cred",12.658,0,0,NA
"1600",31,31,1,1,"att_cred",1.748,1,1,NA
"1601",31,32,1,1,"att_cred",1.527,1,0,NA
"1602",31,33,1,1,"att_cred",1.803,1,0,NA
"1603",31,34,1,1,"att_cred",4.073,0,1,NA
"1604",31,35,1,1,"att_cred",1.102,0,1,NA
"1605",31,36,1,1,"att_cred",2.684,1,0,NA
"1606",31,77,1,1,"att_cred",3.163,1,0,NA
"1607",31,91,1,1,"att_cred",2.841,1,0,NA
"1608",31,92,1,1,"att_cred",3.458,1,0,NA
"1609",31,93,1,1,"att_cred",1.474,0,1,NA
"1610",31,41,1,1,"att_cred",2.873,0,1,NA
"1611",31,42,1,1,"att_cred",3.548,1,0,NA
"1612",31,43,1,1,"att_cred",7.428,1,0,NA
"1613",31,45,1,1,"att_cred",5.981,0,0,NA
"1614",31,46,1,1,"att_cred",2.875,0,1,NA
"1615",31,109,1,1,"att_cred",2.921,1,1,NA
"1616",31,49,1,1,"att_cred",2.128,0,1,NA
"1617",31,96,1,1,"att_cred",4.916,0,0,NA
"1618",31,97,1,1,"att_cred",1.355,0,1,NA
"1619",31,52,1,1,"att_cred",1.248,1,0,NA
"1620",31,53,1,1,"att_cred",2.972,0,0,NA
"1621",31,100,1,1,"att_cred",3.053,1,0,NA
"1622",31,55,1,1,"att_cred",7.093,1,0,NA
"1623",31,110,1,1,"att_cred",4.037,1,0,NA
"1624",31,83,1,1,"att_cred",2.582,0,1,NA
"1625",32,58,1,1,"att_nocred",2.5,1,1,NA
"1626",32,3,1,1,"att_nocred",4.227,1,0,NA
"1627",32,4,1,1,"att_nocred",4.461,1,1,NA
"1628",32,5,1,1,"att_nocred",3.248,1,1,NA
"1629",32,84,1,1,"att_nocred",4.355,0,1,NA
"1630",32,7,1,1,"att_nocred",0.425,0,1,NA
"1631",32,8,1,1,"att_nocred",5.642,1,0,NA
"1632",32,63,1,1,"att_nocred",2.756,1,1,NA
"1633",32,10,1,1,"att_nocred",3.284,1,0,NA
"1634",32,85,1,1,"att_nocred",4.463,0,1,NA
"1635",32,13,1,1,"att_nocred",8.742,0,0,NA
"1636",32,65,1,1,"att_nocred",2.919,0,0,NA
"1637",32,104,1,1,"att_nocred",11.581,1,1,NA
"1638",32,16,1,1,"att_nocred",4.247,1,1,NA
"1639",32,87,1,1,"att_nocred",4.377,1,0,NA
"1640",32,18,1,1,"att_nocred",1.587,1,1,NA
"1641",32,68,1,1,"att_nocred",3.997,0,0,NA
"1642",32,105,1,1,"att_nocred",2.033,1,1,NA
"1643",32,69,1,1,"att_nocred",6.208,1,1,NA
"1644",32,70,1,1,"att_nocred",2.026,0,1,NA
"1645",32,115,1,1,"att_nocred",7.256,1,1,NA
"1646",32,24,1,1,"att_nocred",3.78,1,0,NA
"1647",32,88,1,1,"att_nocred",5.173,1,0,NA
"1648",32,72,1,1,"att_nocred",9.433,0,0,NA
"1649",32,73,1,1,"att_nocred",3.319,1,1,NA
"1650",32,26,1,1,"att_nocred",2.448,1,0,NA
"1651",32,27,1,1,"att_nocred",2.705,1,1,NA
"1652",32,111,1,1,"att_nocred",6.99,0,0,NA
"1653",32,29,1,1,"att_nocred",2.033,1,0,NA
"1654",32,30,1,1,"att_nocred",3.918,1,1,NA
"1655",32,31,1,1,"att_nocred",4.088,0,0,NA
"1656",32,32,1,1,"att_nocred",4.182,1,0,NA
"1657",32,33,1,1,"att_nocred",3.695,0,0,NA
"1658",32,113,1,1,"att_nocred",2.138,1,0,NA
"1659",32,35,1,1,"att_nocred",3.817,1,0,NA
"1660",32,36,1,1,"att_nocred",4.94,1,1,NA
"1661",32,77,1,1,"att_nocred",2.226,1,1,NA
"1662",32,91,1,1,"att_nocred",5.475,0,0,NA
"1663",32,39,1,1,"att_nocred",4.068,0,0,NA
"1664",32,40,1,1,"att_nocred",7.78,1,0,NA
"1665",32,94,1,1,"att_nocred",4.289,1,1,NA
"1666",32,78,1,1,"att_nocred",3.031,0,0,NA
"1667",32,43,1,1,"att_nocred",3.519,1,1,NA
"1668",32,44,1,1,"att_nocred",2.972,0,1,NA
"1669",32,45,1,1,"att_nocred",7.836,1,1,NA
"1670",32,46,1,1,"att_nocred",2.639,0,0,NA
"1671",32,47,1,1,"att_nocred",4.551,1,0,NA
"1672",32,48,1,1,"att_nocred",7.171,0,1,NA
"1673",32,81,1,1,"att_nocred",5.296,0,0,NA
"1674",32,50,1,1,"att_nocred",3.244,0,1,NA
"1675",32,98,1,1,"att_nocred",6.092,0,0,NA
"1676",32,53,1,1,"att_nocred",3.289,1,0,NA
"1677",32,54,1,1,"att_nocred",2.799,0,1,NA
"1678",32,55,1,1,"att_nocred",2.976,0,0,NA
"1679",32,56,1,1,"att_nocred",3.452,0,1,NA
"1680",32,116,1,1,"att_nocred",4.199,0,1,NA
"1681",33,1,1,1,"noatt_cred",3.671,0,0,NA
"1682",33,2,1,1,"noatt_cred",1.569,1,1,NA
"1683",33,59,1,1,"noatt_cred",3.105,0,1,NA
"1684",33,60,1,1,"noatt_cred",4.361,1,0,NA
"1685",33,5,1,1,"noatt_cred",1.833,1,1,NA
"1686",33,6,1,1,"noatt_cred",5.226,0,1,NA
"1687",33,7,1,1,"noatt_cred",3.528,1,1,NA
"1688",33,63,1,1,"noatt_cred",1.991,0,0,NA
"1689",33,102,1,1,"noatt_cred",1.796,0,1,NA
"1690",33,85,1,1,"noatt_cred",1.778,0,1,NA
"1691",33,12,1,1,"noatt_cred",2.958,1,0,NA
"1692",33,13,1,1,"noatt_cred",3.218,1,0,NA
"1693",33,14,1,1,"noatt_cred",5.292,1,0,NA
"1694",33,104,1,1,"noatt_cred",4.513,1,0,NA
"1695",33,16,1,1,"noatt_cred",5.32,1,1,NA
"1696",33,17,1,1,"noatt_cred",4.837,0,0,NA
"1697",33,67,1,1,"noatt_cred",4.745,0,1,NA
"1698",33,19,1,1,"noatt_cred",2.753,0,1,NA
"1699",33,20,1,1,"noatt_cred",4.472,0,1,NA
"1700",33,21,1,1,"noatt_cred",7.581,1,0,NA
"1701",33,70,1,1,"noatt_cred",3.507,1,0,NA
"1702",33,115,1,1,"noatt_cred",6.796,1,1,NA
"1703",33,71,1,1,"noatt_cred",4.299,1,0,NA
"1704",33,88,1,1,"noatt_cred",5.106,0,0,NA
"1705",33,89,1,1,"noatt_cred",7.585,0,1,NA
"1706",33,73,1,1,"noatt_cred",5.08,0,0,NA
"1707",33,74,1,1,"noatt_cred",2.153,1,1,NA
"1708",33,28,1,1,"noatt_cred",7.117,1,1,NA
"1709",33,106,1,1,"noatt_cred",2.67,1,0,NA
"1710",33,107,1,1,"noatt_cred",2.909,0,1,NA
"1711",33,112,1,1,"noatt_cred",1.589,1,0,NA
"1712",33,32,1,1,"noatt_cred",6.377,1,0,NA
"1713",33,90,1,1,"noatt_cred",4.784,0,0,NA
"1714",33,35,1,1,"noatt_cred",2.524,1,1,NA
"1715",33,36,1,1,"noatt_cred",2.968,0,1,NA
"1716",33,77,1,1,"noatt_cred",2.022,1,1,NA
"1717",33,38,1,1,"noatt_cred",4.185,1,0,NA
"1718",33,92,1,1,"noatt_cred",2.324,0,0,NA
"1719",33,40,1,1,"noatt_cred",4.101,1,1,NA
"1720",33,41,1,1,"noatt_cred",4.138,1,0,NA
"1721",33,42,1,1,"noatt_cred",4.718,1,0,NA
"1722",33,108,1,1,"noatt_cred",4.869,1,1,NA
"1723",33,44,1,1,"noatt_cred",4.175,0,1,NA
"1724",33,45,1,1,"noatt_cred",1.861,1,1,NA
"1725",33,80,1,1,"noatt_cred",3.132,0,0,NA
"1726",33,109,1,1,"noatt_cred",4.862,1,1,NA
"1727",33,48,1,1,"noatt_cred",9.139,1,0,NA
"1728",33,81,1,1,"noatt_cred",6.092,0,0,NA
"1729",33,96,1,1,"noatt_cred",3.384,0,1,NA
"1730",33,51,1,1,"noatt_cred",1.587,0,0,NA
"1731",33,98,1,1,"noatt_cred",3.102,0,1,NA
"1732",33,53,1,1,"noatt_cred",4.393,0,0,NA
"1733",33,99,1,1,"noatt_cred",2.545,0,0,NA
"1734",33,100,1,1,"noatt_cred",3.196,0,1,NA
"1735",33,110,1,1,"noatt_cred",2.912,1,0,NA
"1736",33,116,1,1,"noatt_cred",3.297,1,1,NA
"1737",34,1,1,1,"att_cred",4.546,1,1,NA
"1738",34,2,1,1,"att_cred",4.168,0,1,NA
"1739",34,3,1,1,"att_cred",12.229,1,1,NA
"1740",34,4,1,1,"att_cred",4.505,1,1,NA
"1741",34,61,1,1,"att_cred",3.705,0,0,NA
"1742",34,6,1,1,"att_cred",9.115,0,0,NA
"1743",34,62,1,1,"att_cred",9.79,0,0,NA
"1744",34,9,1,1,"att_cred",2.507,0,0,NA
"1745",34,11,1,1,"att_cred",8.963,0,1,NA
"1746",34,12,1,1,"att_cred",4.65,1,0,NA
"1747",34,64,1,1,"att_cred",8.871,1,1,NA
"1748",34,14,1,1,"att_cred",21.591,1,1,NA
"1749",34,86,1,1,"att_cred",23.606,1,0,NA
"1750",34,104,1,1,"att_cred",7.833,0,1,NA
"1751",34,16,1,1,"att_cred",11.511,1,1,NA
"1752",34,87,1,1,"att_cred",12.173,1,1,NA
"1753",34,67,1,1,"att_cred",6.799,1,1,NA
"1754",34,19,1,1,"att_cred",6.045,1,0,NA
"1755",34,20,1,1,"att_cred",5.754,1,0,NA
"1756",34,21,1,1,"att_cred",8.564,1,0,NA
"1757",34,22,1,1,"att_cred",8.199,1,0,NA
"1758",34,23,1,1,"att_cred",9.719,1,0,NA
"1759",34,24,1,1,"att_cred",7.768,0,1,NA
"1760",34,88,1,1,"att_cred",6.799,1,1,NA
"1761",34,72,1,1,"att_cred",5.935,1,0,NA
"1762",34,73,1,1,"att_cred",26.166,0,1,NA
"1763",34,118,1,1,"att_cred",7.026,0,1,NA
"1764",34,74,1,1,"att_cred",5.661,0,0,NA
"1765",34,28,1,1,"att_cred",6.562,0,0,NA
"1766",34,29,1,1,"att_cred",7.211,1,1,NA
"1767",34,30,1,1,"att_cred",15.509,1,0,NA
"1768",34,112,1,1,"att_cred",10.551,1,0,NA
"1769",34,32,1,1,"att_cred",8.963,1,1,NA
"1770",34,33,1,1,"att_cred",3.963,0,0,NA
"1771",34,113,1,1,"att_cred",5.04,0,0,NA
"1772",34,35,1,1,"att_cred",3.97,0,1,NA
"1773",34,36,1,1,"att_cred",4.919,0,1,NA
"1774",34,77,1,1,"att_cred",10.403,1,0,NA
"1775",34,91,1,1,"att_cred",7.237,0,0,NA
"1776",34,92,1,1,"att_cred",3.681,1,0,NA
"1777",34,94,1,1,"att_cred",14.062,1,0,NA
"1778",34,78,1,1,"att_cred",10.568,0,0,NA
"1779",34,108,1,1,"att_cred",10.481,1,1,NA
"1780",34,95,1,1,"att_cred",8.503,1,1,NA
"1781",34,44,1,1,"att_cred",9.044,1,1,NA
"1782",34,80,1,1,"att_cred",7.428,0,0,NA
"1783",34,109,1,1,"att_cred",7.308,1,1,NA
"1784",34,96,1,1,"att_cred",12.618,1,0,NA
"1785",34,51,1,1,"att_cred",11.33,1,1,NA
"1786",34,98,1,1,"att_cred",16.208,1,1,NA
"1787",34,53,1,1,"att_cred",6.052,0,1,NA
"1788",34,99,1,1,"att_cred",4.528,1,1,NA
"1789",34,100,1,1,"att_cred",32.911,0,0,NA
"1790",34,101,1,1,"att_cred",18.582,0,0,NA
"1791",34,110,1,1,"att_cred",9.08,1,0,NA
"1792",34,116,1,1,"att_cred",9.276,0,1,NA
"1793",35,57,1,1,"noatt_nocred",5.025,1,0,NA
"1794",35,2,1,1,"noatt_nocred",4.339,1,0,NA
"1795",35,3,1,1,"noatt_nocred",15.949,0,1,NA
"1796",35,60,1,1,"noatt_nocred",14.302,1,1,NA
"1797",35,5,1,1,"noatt_nocred",33.038,0,0,NA
"1798",35,6,1,1,"noatt_nocred",4.025,0,0,NA
"1799",35,62,1,1,"noatt_nocred",15.986,1,1,NA
"1800",35,8,1,1,"noatt_nocred",5.934,0,0,NA
"1801",35,10,1,1,"noatt_nocred",3.564,0,0,NA
"1802",35,85,1,1,"noatt_nocred",10.548,1,0,NA
"1803",35,103,1,1,"noatt_nocred",3.236,0,0,NA
"1804",35,64,1,1,"noatt_nocred",4.425,0,1,NA
"1805",35,65,1,1,"noatt_nocred",9.689,0,1,NA
"1806",35,86,1,1,"noatt_nocred",7.89,1,1,NA
"1807",35,15,1,1,"noatt_nocred",4.342,0,1,NA
"1808",35,66,1,1,"noatt_nocred",6.501,1,1,NA
"1809",35,17,1,1,"noatt_nocred",11.591,0,0,NA
"1810",35,67,1,1,"noatt_nocred",8.805,1,0,NA
"1811",35,68,1,1,"noatt_nocred",23.76,1,1,NA
"1812",35,105,1,1,"noatt_nocred",7.036,1,1,NA
"1813",35,69,1,1,"noatt_nocred",3.236,1,1,NA
"1814",35,70,1,1,"noatt_nocred",6.013,0,1,NA
"1815",35,23,1,1,"noatt_nocred",6.618,1,0,NA
"1816",35,24,1,1,"noatt_nocred",4.696,1,1,NA
"1817",35,25,1,1,"noatt_nocred",6.792,0,0,NA
"1818",35,72,1,1,"noatt_nocred",12.273,1,1,NA
"1819",35,117,1,1,"noatt_nocred",3.956,0,0,NA
"1820",35,26,1,1,"noatt_nocred",3.306,0,1,NA
"1821",35,27,1,1,"noatt_nocred",8.747,0,1,NA
"1822",35,28,1,1,"noatt_nocred",8.886,0,0,NA
"1823",35,106,1,1,"noatt_nocred",4.866,0,0,NA
"1824",35,112,1,1,"noatt_nocred",29.067,1,1,NA
"1825",35,32,1,1,"noatt_nocred",12.36,0,1,NA
"1826",35,90,1,1,"noatt_nocred",11.421,1,0,NA
"1827",35,34,1,1,"noatt_nocred",4.728,0,1,NA
"1828",35,114,1,1,"noatt_nocred",8.822,0,1,NA
"1829",35,76,1,1,"noatt_nocred",8.553,1,0,NA
"1830",35,77,1,1,"noatt_nocred",8.333,1,1,NA
"1831",35,38,1,1,"noatt_nocred",4.639,1,0,NA
"1832",35,39,1,1,"noatt_nocred",8.725,1,1,NA
"1833",35,40,1,1,"noatt_nocred",21.625,0,0,NA
"1834",35,94,1,1,"noatt_nocred",3.461,1,1,NA
"1835",35,42,1,1,"noatt_nocred",6.887,1,0,NA
"1836",35,43,1,1,"noatt_nocred",10.96,1,0,NA
"1837",35,95,1,1,"noatt_nocred",11.271,1,1,NA
"1838",35,79,1,1,"noatt_nocred",19.101,1,0,NA
"1839",35,109,1,1,"noatt_nocred",7.859,1,1,NA
"1840",35,49,1,1,"noatt_nocred",5.134,0,1,NA
"1841",35,96,1,1,"noatt_nocred",8.955,1,0,NA
"1842",35,97,1,1,"noatt_nocred",12.337,1,0,NA
"1843",35,52,1,1,"noatt_nocred",5.726,0,0,NA
"1844",35,82,1,1,"noatt_nocred",8.173,0,0,NA
"1845",35,100,1,1,"noatt_nocred",10.526,0,1,NA
"1846",35,55,1,1,"noatt_nocred",5.186,0,0,NA
"1847",35,56,1,1,"noatt_nocred",4.783,0,1,NA
"1848",35,116,1,1,"noatt_nocred",6.409,0,0,NA
"1849",37,57,1,1,"noatt_nocred",2.998,1,0,NA
"1850",37,2,1,1,"noatt_nocred",3.019,0,0,NA
"1851",37,3,1,1,"noatt_nocred",8.357,0,0,NA
"1852",37,4,1,1,"noatt_nocred",2.902,1,0,NA
"1853",37,5,1,1,"noatt_nocred",12.812,0,1,NA
"1854",37,6,1,1,"noatt_nocred",6.683,0,0,NA
"1855",37,7,1,1,"noatt_nocred",4.197,1,1,NA
"1856",37,8,1,1,"noatt_nocred",4.356,1,1,NA
"1857",37,63,1,1,"noatt_nocred",8.823,0,0,NA
"1858",37,102,1,1,"noatt_nocred",2.217,1,0,NA
"1859",37,11,1,1,"noatt_nocred",5.703,1,0,NA
"1860",37,12,1,1,"noatt_nocred",4.647,0,1,NA
"1861",37,13,1,1,"noatt_nocred",21.855,1,1,NA
"1862",37,65,1,1,"noatt_nocred",3.695,1,0,NA
"1863",37,104,1,1,"noatt_nocred",2.298,0,1,NA
"1864",37,16,1,1,"noatt_nocred",6.332,1,0,NA
"1865",37,87,1,1,"noatt_nocred",7.684,1,1,NA
"1866",37,67,1,1,"noatt_nocred",4.703,1,1,NA
"1867",37,19,1,1,"noatt_nocred",6.083,1,1,NA
"1868",37,20,1,1,"noatt_nocred",21.167,0,0,NA
"1869",37,21,1,1,"noatt_nocred",2.774,1,0,NA
"1870",37,22,1,1,"noatt_nocred",2.526,1,1,NA
"1871",37,23,1,1,"noatt_nocred",2.901,1,0,NA
"1872",37,71,1,1,"noatt_nocred",6.111,0,0,NA
"1873",37,25,1,1,"noatt_nocred",2.71,0,1,NA
"1874",37,72,1,1,"noatt_nocred",3.569,0,1,NA
"1875",37,117,1,1,"noatt_nocred",5.187,0,0,NA
"1876",37,26,1,1,"noatt_nocred",3.23,1,0,NA
"1877",37,27,1,1,"noatt_nocred",5.968,0,0,NA
"1878",37,111,1,1,"noatt_nocred",11.046,0,0,NA
"1879",37,106,1,1,"noatt_nocred",3.117,0,1,NA
"1880",37,30,1,1,"noatt_nocred",6.412,1,1,NA
"1881",37,112,1,1,"noatt_nocred",3.867,0,1,NA
"1882",37,32,1,1,"noatt_nocred",2.718,0,1,NA
"1883",37,33,1,1,"noatt_nocred",5.102,1,1,NA
"1884",37,113,1,1,"noatt_nocred",11.994,0,1,NA
"1885",37,35,1,1,"noatt_nocred",10.748,1,0,NA
"1886",37,36,1,1,"noatt_nocred",5.479,0,0,NA
"1887",37,77,1,1,"noatt_nocred",9.11,0,1,NA
"1888",37,91,1,1,"noatt_nocred",13.647,1,0,NA
"1889",37,92,1,1,"noatt_nocred",6.792,1,0,NA
"1890",37,40,1,1,"noatt_nocred",5.834,0,1,NA
"1891",37,94,1,1,"noatt_nocred",6.835,0,1,NA
"1892",37,42,1,1,"noatt_nocred",9.997,1,0,NA
"1893",37,45,1,1,"noatt_nocred",10.839,1,0,NA
"1894",37,79,1,1,"noatt_nocred",2.692,1,1,NA
"1895",37,46,1,1,"noatt_nocred",8.529,0,1,NA
"1896",37,47,1,1,"noatt_nocred",2.028,1,1,NA
"1897",37,96,1,1,"noatt_nocred",6.127,1,1,NA
"1898",37,97,1,1,"noatt_nocred",4.003,1,1,NA
"1899",37,52,1,1,"noatt_nocred",4.887,0,0,NA
"1900",37,82,1,1,"noatt_nocred",2.212,0,1,NA
"1901",37,100,1,1,"noatt_nocred",3.592,1,0,NA
"1902",37,101,1,1,"noatt_nocred",1.976,0,0,NA
"1903",37,110,1,1,"noatt_nocred",5.275,1,1,NA
"1904",37,116,1,1,"noatt_nocred",7.347,0,0,NA
"1905",104,57,1,1,"att_nocred",4.231,0,1,NA
"1906",104,58,1,1,"att_nocred",7.412,1,0,NA
"1907",104,59,1,1,"att_nocred",1.625,1,0,NA
"1908",104,4,1,1,"att_nocred",6.059,0,1,NA
"1909",104,61,1,1,"att_nocred",6.473,1,0,NA
"1910",104,84,1,1,"att_nocred",5.078,0,0,NA
"1911",104,7,1,1,"att_nocred",4.548,0,1,NA
"1912",104,9,1,1,"att_nocred",3.188,1,1,NA
"1913",104,10,1,1,"att_nocred",4.456,1,1,NA
"1914",104,85,1,1,"att_nocred",4.279,0,1,NA
"1915",104,12,1,1,"att_nocred",11.217,1,0,NA
"1916",104,64,1,1,"att_nocred",6.025,0,0,NA
"1917",104,14,1,1,"att_nocred",10.459,1,1,NA
"1918",104,86,1,1,"att_nocred",3.815,1,1,NA
"1919",104,104,1,1,"att_nocred",6.012,1,1,NA
"1920",104,66,1,1,"att_nocred",6.29,1,1,NA
"1921",104,87,1,1,"att_nocred",5.174,1,1,NA
"1922",104,18,1,1,"att_nocred",4.103,1,1,NA
"1923",104,68,1,1,"att_nocred",3.637,0,1,NA
"1924",104,20,1,1,"att_nocred",2.434,0,1,NA
"1925",104,69,1,1,"att_nocred",6.899,1,0,NA
"1926",104,70,1,1,"att_nocred",3.855,0,1,NA
"1927",104,115,1,1,"att_nocred",7.645,1,0,NA
"1928",104,71,1,1,"att_nocred",3.529,1,0,NA
"1929",104,88,1,1,"att_nocred",1.986,1,0,NA
"1930",104,89,1,1,"att_nocred",8.186,1,0,NA
"1931",104,117,1,1,"att_nocred",5.147,1,0,NA
"1932",104,118,1,1,"att_nocred",6.759,0,1,NA
"1933",104,27,1,1,"att_nocred",4.448,1,0,NA
"1934",104,111,1,1,"att_nocred",8.616,0,0,NA
"1935",104,106,1,1,"att_nocred",3.558,0,0,NA
"1936",104,30,1,1,"att_nocred",6.225,0,1,NA
"1937",104,90,1,1,"att_nocred",3.864,1,1,NA
"1938",104,34,1,1,"att_nocred",2.126,1,0,NA
"1939",104,114,1,1,"att_nocred",5.079,1,1,NA
"1940",104,36,1,1,"att_nocred",3.747,0,1,NA
"1941",104,77,1,1,"att_nocred",4.312,1,0,NA
"1942",104,38,1,1,"att_nocred",10.203,0,1,NA
"1943",104,92,1,1,"att_nocred",3.613,1,1,NA
"1944",104,93,1,1,"att_nocred",2.545,1,1,NA
"1945",104,41,1,1,"att_nocred",2.255,1,0,NA
"1946",104,42,1,1,"att_nocred",3.25,1,1,NA
"1947",104,108,1,1,"att_nocred",2.505,1,0,NA
"1948",104,44,1,1,"att_nocred",7.389,1,0,NA
"1949",104,46,1,1,"att_nocred",5.155,0,0,NA
"1950",104,47,1,1,"att_nocred",3.212,0,0,NA
"1951",104,48,1,1,"att_nocred",2.972,1,0,NA
"1952",104,49,1,1,"att_nocred",4.327,0,1,NA
"1953",104,50,1,1,"att_nocred",4.464,1,0,NA
"1954",104,51,1,1,"att_nocred",8.156,0,1,NA
"1955",104,52,1,1,"att_nocred",4.997,0,1,NA
"1956",104,53,1,1,"att_nocred",2.262,1,0,NA
"1957",104,99,1,1,"att_nocred",3.379,1,0,NA
"1958",104,101,1,1,"att_nocred",3.233,0,0,NA
"1959",104,56,1,1,"att_nocred",3.752,1,0,NA
"1960",104,83,1,1,"att_nocred",6.532,0,1,NA
"1961",38,57,1,1,"noatt_nocred",6.482,0,1,NA
"1962",38,2,1,1,"noatt_nocred",8.619,1,0,NA
"1963",38,3,1,1,"noatt_nocred",9.633,1,0,NA
"1964",38,60,1,1,"noatt_nocred",14.087,0,0,NA
"1965",38,5,1,1,"noatt_nocred",13.337,0,1,NA
"1966",38,6,1,1,"noatt_nocred",8.842,0,1,NA
"1967",38,9,1,1,"noatt_nocred",6.128,0,0,NA
"1968",38,102,1,1,"noatt_nocred",9.396,0,1,NA
"1969",38,85,1,1,"noatt_nocred",9.218,0,1,NA
"1970",38,12,1,1,"noatt_nocred",5.941,1,1,NA
"1971",38,64,1,1,"noatt_nocred",6.917,1,0,NA
"1972",38,14,1,1,"noatt_nocred",6.033,1,1,NA
"1973",38,104,1,1,"noatt_nocred",9.932,0,1,NA
"1974",38,16,1,1,"noatt_nocred",9.57,1,1,NA
"1975",38,87,1,1,"noatt_nocred",9.226,1,1,NA
"1976",38,18,1,1,"noatt_nocred",3.223,0,0,NA
"1977",38,19,1,1,"noatt_nocred",12.252,0,0,NA
"1978",38,20,1,1,"noatt_nocred",7.843,0,0,NA
"1979",38,69,1,1,"noatt_nocred",15.129,0,0,NA
"1980",38,22,1,1,"noatt_nocred",6.981,0,1,NA
"1981",38,115,1,1,"noatt_nocred",6.784,1,1,NA
"1982",38,24,1,1,"noatt_nocred",5.454,1,1,NA
"1983",38,88,1,1,"noatt_nocred",4.638,1,1,NA
"1984",38,89,1,1,"noatt_nocred",6.064,1,0,NA
"1985",38,73,1,1,"noatt_nocred",9.766,0,1,NA
"1986",38,118,1,1,"noatt_nocred",5.168,0,0,NA
"1987",38,74,1,1,"noatt_nocred",5.984,1,1,NA
"1988",38,111,1,1,"noatt_nocred",8.66,0,0,NA
"1989",38,106,1,1,"noatt_nocred",5.292,1,1,NA
"1990",38,107,1,1,"noatt_nocred",9.465,1,0,NA
"1991",38,112,1,1,"noatt_nocred",9.6,1,0,NA
"1992",38,32,1,1,"noatt_nocred",9.702,0,1,NA
"1993",38,33,1,1,"noatt_nocred",9.906,0,0,NA
"1994",38,114,1,1,"noatt_nocred",10.406,0,1,NA
"1995",38,76,1,1,"noatt_nocred",11.759,0,0,NA
"1996",38,37,1,1,"noatt_nocred",9.48,1,1,NA
"1997",38,91,1,1,"noatt_nocred",4.777,0,1,NA
"1998",38,92,1,1,"noatt_nocred",7.687,1,0,NA
"1999",38,40,1,1,"noatt_nocred",4.64,1,0,NA
"2000",38,94,1,1,"noatt_nocred",8.272,1,0,NA
"2001",38,78,1,1,"noatt_nocred",12.365,1,0,NA
"2002",38,43,1,1,"noatt_nocred",7.015,1,0,NA
"2003",38,45,1,1,"noatt_nocred",7.058,0,1,NA
"2004",38,79,1,1,"noatt_nocred",5.981,1,1,NA
"2005",38,80,1,1,"noatt_nocred",7.481,1,1,NA
"2006",38,47,1,1,"noatt_nocred",6.713,1,0,NA
"2007",38,48,1,1,"noatt_nocred",19.256,1,0,NA
"2008",38,81,1,1,"noatt_nocred",6.635,1,1,NA
"2009",38,97,1,1,"noatt_nocred",9.288,0,0,NA
"2010",38,52,1,1,"noatt_nocred",7.122,0,1,NA
"2011",38,53,1,1,"noatt_nocred",7.456,1,0,NA
"2012",38,99,1,1,"noatt_nocred",8.465,1,1,NA
"2013",38,54,1,1,"noatt_nocred",4.916,0,0,NA
"2014",38,101,1,1,"noatt_nocred",6.339,0,0,NA
"2015",38,110,1,1,"noatt_nocred",5.428,1,0,NA
"2016",38,116,1,1,"noatt_nocred",13.974,1,1,NA
"2017",39,57,1,1,"noatt_cred",6.907,1,0,NA
"2018",39,58,1,1,"noatt_cred",2.954,0,0,NA
"2019",39,59,1,1,"noatt_cred",3.863,1,1,NA
"2020",39,60,1,1,"noatt_cred",4.573,0,0,NA
"2021",39,5,1,1,"noatt_cred",3.117,0,1,NA
"2022",39,6,1,1,"noatt_cred",5.872,0,0,NA
"2023",39,62,1,1,"noatt_cred",5.175,1,0,NA
"2024",39,8,1,1,"noatt_cred",4.101,1,0,NA
"2025",39,9,1,1,"noatt_cred",2.713,0,1,NA
"2026",39,102,1,1,"noatt_cred",6.826,1,0,NA
"2027",39,11,1,1,"noatt_cred",5.542,0,0,NA
"2028",39,103,1,1,"noatt_cred",3.083,1,1,NA
"2029",39,64,1,1,"noatt_cred",5.961,1,1,NA
"2030",39,65,1,1,"noatt_cred",3.818,0,1,NA
"2031",39,15,1,1,"noatt_cred",3.683,0,0,NA
"2032",39,66,1,1,"noatt_cred",4.567,1,0,NA
"2033",39,17,1,1,"noatt_cred",4.425,0,1,NA
"2034",39,67,1,1,"noatt_cred",5.23,0,1,NA
"2035",39,68,1,1,"noatt_cred",3.03,0,1,NA
"2036",39,20,1,1,"noatt_cred",4.895,1,1,NA
"2037",39,69,1,1,"noatt_cred",5.318,0,1,NA
"2038",39,70,1,1,"noatt_cred",6.873,0,1,NA
"2039",39,24,1,1,"noatt_cred",3.723,0,0,NA
"2040",39,25,1,1,"noatt_cred",12.777,0,1,NA
"2041",39,72,1,1,"noatt_cred",4.699,0,1,NA
"2042",39,117,1,1,"noatt_cred",3.271,1,0,NA
"2043",39,118,1,1,"noatt_cred",3.242,1,1,NA
"2044",39,74,1,1,"noatt_cred",4.439,0,1,NA
"2045",39,111,1,1,"noatt_cred",6.202,1,1,NA
"2046",39,29,1,1,"noatt_cred",4.544,1,0,NA
"2047",39,107,1,1,"noatt_cred",6.807,0,1,NA
"2048",39,112,1,1,"noatt_cred",5.417,1,0,NA
"2049",39,32,1,1,"noatt_cred",5.98,0,0,NA
"2050",39,33,1,1,"noatt_cred",3.388,0,1,NA
"2051",39,113,1,1,"noatt_cred",2.667,0,1,NA
"2052",39,35,1,1,"noatt_cred",5.493,1,0,NA
"2053",39,76,1,1,"noatt_cred",2.93,0,1,NA
"2054",39,77,1,1,"noatt_cred",7.638,1,0,NA
"2055",39,38,1,1,"noatt_cred",2.337,1,1,NA
"2056",39,92,1,1,"noatt_cred",3.273,0,1,NA
"2057",39,40,1,1,"noatt_cred",3.417,1,0,NA
"2058",39,41,1,1,"noatt_cred",2.848,1,1,NA
"2059",39,42,1,1,"noatt_cred",5.088,0,0,NA
"2060",39,43,1,1,"noatt_cred",7.274,1,0,NA
"2061",39,95,1,1,"noatt_cred",14.949,1,1,NA
"2062",39,45,1,1,"noatt_cred",5.387,0,0,NA
"2063",39,79,1,1,"noatt_cred",4.319,0,1,NA
"2064",39,46,1,1,"noatt_cred",3.81,0,0,NA
"2065",39,47,1,1,"noatt_cred",3.153,1,0,NA
"2066",39,81,1,1,"noatt_cred",5.676,0,1,NA
"2067",39,50,1,1,"noatt_cred",5.34,1,0,NA
"2068",39,53,1,1,"noatt_cred",2.85,0,0,NA
"2069",39,100,1,1,"noatt_cred",3.385,0,0,NA
"2070",39,55,1,1,"noatt_cred",7.132,1,0,NA
"2071",39,110,1,1,"noatt_cred",3.99,1,0,NA
"2072",39,83,1,1,"noatt_cred",2.567,0,1,NA
"2073",40,57,1,1,"noatt_nocred",2.908,1,0,NA
"2074",40,2,1,1,"noatt_nocred",5.975,0,0,NA
"2075",40,60,1,1,"noatt_nocred",5.691,0,1,NA
"2076",40,5,1,1,"noatt_nocred",23.51,1,1,NA
"2077",40,84,1,1,"noatt_nocred",12.335,0,1,NA
"2078",40,62,1,1,"noatt_nocred",10.869,1,1,NA
"2079",40,63,1,1,"noatt_nocred",12.555,0,0,NA
"2080",40,102,1,1,"noatt_nocred",6.99,1,0,NA
"2081",40,11,1,1,"noatt_nocred",16.232,0,0,NA
"2082",40,12,1,1,"noatt_nocred",14.296,0,0,NA
"2083",40,13,1,1,"noatt_nocred",7.344,1,1,NA
"2084",40,65,1,1,"noatt_nocred",7.664,1,0,NA
"2085",40,15,1,1,"noatt_nocred",4.251,0,0,NA
"2086",40,16,1,1,"noatt_nocred",7.054,1,1,NA
"2087",40,17,1,1,"noatt_nocred",11.935,1,1,NA
"2088",40,18,1,1,"noatt_nocred",3.76,1,1,NA
"2089",40,19,1,1,"noatt_nocred",19.019,1,0,NA
"2090",40,105,1,1,"noatt_nocred",5.141,0,0,NA
"2091",40,69,1,1,"noatt_nocred",12.731,1,0,NA
"2092",40,70,1,1,"noatt_nocred",5.051,0,1,NA
"2093",40,115,1,1,"noatt_nocred",8.423,0,0,NA
"2094",40,24,1,1,"noatt_nocred",10.252,0,1,NA
"2095",40,88,1,1,"noatt_nocred",9.016,1,0,NA
"2096",40,72,1,1,"noatt_nocred",21.112,1,1,NA
"2097",40,117,1,1,"noatt_nocred",7.218,1,1,NA
"2098",40,118,1,1,"noatt_nocred",7.139,1,1,NA
"2099",40,74,1,1,"noatt_nocred",12.886,1,0,NA
"2100",40,111,1,1,"noatt_nocred",13.335,0,0,NA
"2101",40,106,1,1,"noatt_nocred",3.042,1,1,NA
"2102",40,30,1,1,"noatt_nocred",9.861,0,1,NA
"2103",40,31,1,1,"noatt_nocred",8.981,1,1,NA
"2104",40,75,1,1,"noatt_nocred",3.327,1,1,NA
"2105",40,90,1,1,"noatt_nocred",11.001,1,0,NA
"2106",40,113,1,1,"noatt_nocred",6.565,0,1,NA
"2107",40,35,1,1,"noatt_nocred",7.945,1,0,NA
"2108",40,36,1,1,"noatt_nocred",6.939,0,0,NA
"2109",40,77,1,1,"noatt_nocred",12.013,0,1,NA
"2110",40,38,1,1,"noatt_nocred",6.534,0,0,NA
"2111",40,92,1,1,"noatt_nocred",4.513,0,0,NA
"2112",40,93,1,1,"noatt_nocred",3.552,1,1,NA
"2113",40,41,1,1,"noatt_nocred",9.093,1,0,NA
"2114",40,42,1,1,"noatt_nocred",6.3,0,1,NA
"2115",40,43,1,1,"noatt_nocred",12.774,0,0,NA
"2116",40,45,1,1,"noatt_nocred",4.439,1,0,NA
"2117",40,79,1,1,"noatt_nocred",10.579,0,1,NA
"2118",40,46,1,1,"noatt_nocred",5.031,0,0,NA
"2119",40,49,1,1,"noatt_nocred",7.335,1,1,NA
"2120",40,96,1,1,"noatt_nocred",13.781,0,0,NA
"2121",40,51,1,1,"noatt_nocred",9.871,0,1,NA
"2122",40,98,1,1,"noatt_nocred",6.16,0,1,NA
"2123",40,82,1,1,"noatt_nocred",6.212,1,0,NA
"2124",40,99,1,1,"noatt_nocred",3.831,1,1,NA
"2125",40,100,1,1,"noatt_nocred",12.046,0,1,NA
"2126",40,55,1,1,"noatt_nocred",6.806,0,0,NA
"2127",40,110,1,1,"noatt_nocred",5.505,1,1,NA
"2128",40,116,1,1,"noatt_nocred",7.329,1,0,NA
"2129",41,57,1,1,"att_cred",4.068,0,0,NA
"2130",41,59,1,1,"att_cred",5.783,1,0,NA
"2131",41,60,1,1,"att_cred",1.48,0,1,NA
"2132",41,61,1,1,"att_cred",4.767,0,0,NA
"2133",41,84,1,1,"att_cred",1.517,0,1,NA
"2134",41,62,1,1,"att_cred",8.284,1,0,NA
"2135",41,9,1,1,"att_cred",4.478,1,0,NA
"2136",41,10,1,1,"att_cred",1.529,1,1,NA
"2137",41,11,1,1,"att_cred",1.897,1,1,NA
"2138",41,12,1,1,"att_cred",2.925,0,1,NA
"2139",41,64,1,1,"att_cred",3.329,0,0,NA
"2140",41,65,1,1,"att_cred",1.065,0,1,NA
"2141",41,104,1,1,"att_cred",2.155,0,0,NA
"2142",41,66,1,1,"att_cred",9.254,0,1,NA
"2143",41,87,1,1,"att_cred",2.06,1,1,NA
"2144",41,67,1,1,"att_cred",2.747,1,0,NA
"2145",41,19,1,1,"att_cred",4.59,0,0,NA
"2146",41,20,1,1,"att_cred",4.648,0,0,NA
"2147",41,23,1,1,"att_cred",1.542,0,1,NA
"2148",41,24,1,1,"att_cred",7.809,1,0,NA
"2149",41,25,1,1,"att_cred",1.43,1,1,NA
"2150",41,72,1,1,"att_cred",6.358,0,0,NA
"2151",41,73,1,1,"att_cred",4.941,1,1,NA
"2152",41,118,1,1,"att_cred",2.316,1,0,NA
"2153",41,74,1,1,"att_cred",3.185,0,1,NA
"2154",41,111,1,1,"att_cred",1.083,0,1,NA
"2155",41,106,1,1,"att_cred",1.164,0,1,NA
"2156",41,30,1,1,"att_cred",2.155,0,1,NA
"2157",41,31,1,1,"att_cred",3.209,1,1,NA
"2158",41,75,1,1,"att_cred",3.225,1,0,NA
"2159",41,90,1,1,"att_cred",3.921,0,0,NA
"2160",41,113,1,1,"att_cred",8.014,1,1,NA
"2161",41,35,1,1,"att_cred",7.012,0,0,NA
"2162",41,36,1,1,"att_cred",2.958,1,0,NA
"2163",41,77,1,1,"att_cred",3.239,1,0,NA
"2164",41,91,1,1,"att_cred",1.844,1,1,NA
"2165",41,39,1,1,"att_cred",3.307,1,0,NA
"2166",41,40,1,1,"att_cred",2.575,1,1,NA
"2167",41,94,1,1,"att_cred",8.968,1,0,NA
"2168",41,78,1,1,"att_cred",5.538,0,0,NA
"2169",41,108,1,1,"att_cred",3.762,0,0,NA
"2170",41,44,1,1,"att_cred",5.859,0,1,NA
"2171",41,45,1,1,"att_cred",2.465,1,1,NA
"2172",41,46,1,1,"att_cred",4.055,0,0,NA
"2173",41,47,1,1,"att_cred",4.869,0,0,NA
"2174",41,48,1,1,"att_cred",10.533,1,1,NA
"2175",41,49,1,1,"att_cred",2.155,1,1,NA
"2176",41,96,1,1,"att_cred",3.322,0,1,NA
"2177",41,51,1,1,"att_cred",8.035,1,0,NA
"2178",41,98,1,1,"att_cred",1.32,0,1,NA
"2179",41,82,1,1,"att_cred",1.384,0,1,NA
"2180",41,99,1,1,"att_cred",3.968,1,0,NA
"2181",41,54,1,1,"att_cred",5.194,0,0,NA
"2182",41,55,1,1,"att_cred",1.737,0,1,NA
"2183",41,110,1,1,"att_cred",2.297,1,1,NA
"2184",41,116,1,1,"att_cred",12.952,0,0,NA
"2185",42,57,1,1,"att_cred",4.206,1,0,NA
"2186",42,2,1,1,"att_cred",2.603,1,1,NA
"2187",42,59,1,1,"att_cred",4.26,1,0,NA
"2188",42,4,1,1,"att_cred",3.715,1,1,NA
"2189",42,5,1,1,"att_cred",3.893,1,0,NA
"2190",42,84,1,1,"att_cred",5.046,0,0,NA
"2191",42,62,1,1,"att_cred",2.546,1,1,NA
"2192",42,9,1,1,"att_cred",3.21,1,1,NA
"2193",42,102,1,1,"att_cred",3.33,0,0,NA
"2194",42,11,1,1,"att_cred",6.274,0,1,NA
"2195",42,103,1,1,"att_cred",3.656,1,1,NA
"2196",42,13,1,1,"att_cred",7.508,0,0,NA
"2197",42,14,1,1,"att_cred",3.573,0,0,NA
"2198",42,104,1,1,"att_cred",10.745,0,0,NA
"2199",42,16,1,1,"att_cred",4.961,0,1,NA
"2200",42,17,1,1,"att_cred",6.265,1,1,NA
"2201",42,67,1,1,"att_cred",4.087,1,1,NA
"2202",42,68,1,1,"att_cred",6.75,0,0,NA
"2203",42,105,1,1,"att_cred",2.362,1,1,NA
"2204",42,69,1,1,"att_cred",3.958,1,0,NA
"2205",42,22,1,1,"att_cred",2.433,0,1,NA
"2206",42,23,1,1,"att_cred",3.45,1,1,NA
"2207",42,24,1,1,"att_cred",5.408,0,0,NA
"2208",42,88,1,1,"att_cred",2.851,0,1,NA
"2209",42,89,1,1,"att_cred",4.07,1,1,NA
"2210",42,118,1,1,"att_cred",2.28,1,1,NA
"2211",42,27,1,1,"att_cred",6.114,0,1,NA
"2212",42,111,1,1,"att_cred",4.462,1,0,NA
"2213",42,29,1,1,"att_cred",2.959,1,0,NA
"2214",42,107,1,1,"att_cred",8.117,0,1,NA
"2215",42,31,1,1,"att_cred",3.351,1,0,NA
"2216",42,75,1,1,"att_cred",5.448,1,0,NA
"2217",42,33,1,1,"att_cred",3.128,0,1,NA
"2218",42,113,1,1,"att_cred",3.029,0,1,NA
"2219",42,114,1,1,"att_cred",3.61,1,1,NA
"2220",42,77,1,1,"att_cred",5.275,0,0,NA
"2221",42,91,1,1,"att_cred",2.519,0,1,NA
"2222",42,39,1,1,"att_cred",2.743,0,0,NA
"2223",42,40,1,1,"att_cred",3.049,0,0,NA
"2224",42,41,1,1,"att_cred",4.519,0,0,NA
"2225",42,78,1,1,"att_cred",2.61,1,0,NA
"2226",42,108,1,1,"att_cred",2.987,0,0,NA
"2227",42,95,1,1,"att_cred",6.524,0,1,NA
"2228",42,45,1,1,"att_cred",3.542,1,1,NA
"2229",42,79,1,1,"att_cred",2.245,1,0,NA
"2230",42,46,1,1,"att_cred",2.878,1,1,NA
"2231",42,109,1,1,"att_cred",2.905,1,1,NA
"2232",42,49,1,1,"att_cred",3.292,0,0,NA
"2233",42,50,1,1,"att_cred",3.383,0,0,NA
"2234",42,51,1,1,"att_cred",10.509,0,0,NA
"2235",42,98,1,1,"att_cred",3.987,1,0,NA
"2236",42,82,1,1,"att_cred",2.331,0,1,NA
"2237",42,100,1,1,"att_cred",1.731,0,0,NA
"2238",42,101,1,1,"att_cred",1.623,1,1,NA
"2239",42,56,1,1,"att_cred",1.93,1,1,NA
"2240",42,116,1,1,"att_cred",7.444,0,0,NA
"2241",43,1,1,1,"noatt_nocred",2.305,0,0,NA
"2242",43,58,1,1,"noatt_nocred",1.75,0,0,NA
"2243",43,3,1,1,"noatt_nocred",5.472,0,1,NA
"2244",43,60,1,1,"noatt_nocred",5.588,0,0,NA
"2245",43,61,1,1,"noatt_nocred",9.738,0,1,NA
"2246",43,6,1,1,"noatt_nocred",5.08,0,0,NA
"2247",43,7,1,1,"noatt_nocred",10.621,1,1,NA
"2248",43,63,1,1,"noatt_nocred",7.86,0,0,NA
"2249",43,10,1,1,"noatt_nocred",38.945,0,0,NA
"2250",43,11,1,1,"noatt_nocred",4.941,0,0,NA
"2251",43,103,1,1,"noatt_nocred",2.884,0,0,NA
"2252",43,13,1,1,"noatt_nocred",3.588,0,1,NA
"2253",43,65,1,1,"noatt_nocred",4.901,0,1,NA
"2254",43,66,1,1,"noatt_nocred",18.434,0,0,NA
"2255",43,87,1,1,"noatt_nocred",2.366,0,0,NA
"2256",43,19,1,1,"noatt_nocred",4.593,0,0,NA
"2257",43,105,1,1,"noatt_nocred",33.579,1,1,NA
"2258",43,21,1,1,"noatt_nocred",7.861,1,1,NA
"2259",43,70,1,1,"noatt_nocred",2.054,0,1,NA
"2260",43,24,1,1,"noatt_nocred",4.469,0,1,NA
"2261",43,88,1,1,"noatt_nocred",3.015,0,0,NA
"2262",43,72,1,1,"noatt_nocred",8.629,0,1,NA
"2263",43,73,1,1,"noatt_nocred",9.579,0,0,NA
"2264",43,118,1,1,"noatt_nocred",3.058,0,1,NA
"2265",43,27,1,1,"noatt_nocred",4.346,0,1,NA
"2266",43,111,1,1,"noatt_nocred",5.991,0,1,NA
"2267",43,29,1,1,"noatt_nocred",12.733,1,1,NA
"2268",43,30,1,1,"noatt_nocred",6.948,0,1,NA
"2269",43,112,1,1,"noatt_nocred",7.077,0,0,NA
"2270",43,75,1,1,"noatt_nocred",9.563,0,1,NA
"2271",43,90,1,1,"noatt_nocred",4.057,0,1,NA
"2272",43,113,1,1,"noatt_nocred",9.366,0,1,NA
"2273",43,35,1,1,"noatt_nocred",4.148,0,0,NA
"2274",43,36,1,1,"noatt_nocred",2.559,0,1,NA
"2275",43,37,1,1,"noatt_nocred",2.702,0,0,NA
"2276",43,38,1,1,"noatt_nocred",2.825,0,0,NA
"2277",43,92,1,1,"noatt_nocred",5.324,0,0,NA
"2278",43,40,1,1,"noatt_nocred",1.614,0,1,NA
"2279",43,94,1,1,"noatt_nocred",1.938,0,1,NA
"2280",43,78,1,1,"noatt_nocred",3.295,0,0,NA
"2281",43,108,1,1,"noatt_nocred",8.648,1,1,NA
"2282",43,95,1,1,"noatt_nocred",11.925,0,1,NA
"2283",43,45,1,1,"noatt_nocred",5.988,0,0,NA
"2284",43,79,1,1,"noatt_nocred",5.743,1,0,NA
"2285",43,80,1,1,"noatt_nocred",6.892,0,1,NA
"2286",43,109,1,1,"noatt_nocred",3.06,0,0,NA
"2287",43,49,1,1,"noatt_nocred",15.052,0,1,NA
"2288",43,96,1,1,"noatt_nocred",5.656,0,0,NA
"2289",43,97,1,1,"noatt_nocred",3.866,0,0,NA
"2290",43,52,1,1,"noatt_nocred",8.402,0,1,NA
"2291",43,53,1,1,"noatt_nocred",7.755,0,0,NA
"2292",43,99,1,1,"noatt_nocred",17.433,0,1,NA
"2293",43,100,1,1,"noatt_nocred",1.759,0,0,NA
"2294",43,55,1,1,"noatt_nocred",2.795,0,0,NA
"2295",43,110,1,1,"noatt_nocred",1.908,0,1,NA
"2296",43,83,1,1,"noatt_nocred",7.83,0,0,NA
"2297",44,57,1,1,"att_nocred",12.04,1,0,NA
"2298",44,2,1,1,"att_nocred",12.032,0,0,NA
"2299",44,60,1,1,"att_nocred",8.204,0,0,NA
"2300",44,61,1,1,"att_nocred",5.127,1,1,NA
"2301",44,6,1,1,"att_nocred",5.338,0,1,NA
"2302",44,62,1,1,"att_nocred",4.705,1,0,NA
"2303",44,8,1,1,"att_nocred",4.295,1,0,NA
"2304",44,9,1,1,"att_nocred",6.483,1,0,NA
"2305",44,10,1,1,"att_nocred",8.643,1,0,NA
"2306",44,85,1,1,"att_nocred",9.978,0,0,NA
"2307",44,103,1,1,"att_nocred",6.116,1,1,NA
"2308",44,64,1,1,"att_nocred",20.779,1,0,NA
"2309",44,66,1,1,"att_nocred",10.665,0,0,NA
"2310",44,17,1,1,"att_nocred",8.242,0,1,NA
"2311",44,67,1,1,"att_nocred",7.018,1,1,NA
"2312",44,19,1,1,"att_nocred",8.941,0,1,NA
"2313",44,105,1,1,"att_nocred",9.978,1,0,NA
"2314",44,21,1,1,"att_nocred",3.634,1,0,NA
"2315",44,22,1,1,"att_nocred",10.848,1,1,NA
"2316",44,115,1,1,"att_nocred",6.403,1,0,NA
"2317",44,24,1,1,"att_nocred",9.361,0,1,NA
