{"publication_info":{"0":{"publication_name":"Publication 1","study_info":{"0":{"study_name":"Study 1","study_data":{"truth_rating_scale":"dichotomous","truth_rating_scale_details":"","truth_rating_steps":"2","subjective_certainty":"0","rt_measured":"1","rt_onset":"stimulus_onset","n_participants":"186","participant_age":"21.6","percentage_female":"84","physiological_measures":"0","cognitive_models":"0","open_data_link":"https://osf.io/vwth7/","study_comment":"I cannot find the full-text paper\n","statementset_name":"Statementset 1","secondary_tasks":"1","secondary_task_type":"0","secondary_task_name":"","validated":true},"measurement_data":{"measures":[],"additional_measures":"0","validated":true},"raw_data":{"raw_data_file":{},"data":[{"":1,"subject":2,"statement_identifier":1,"presentation_identifier":1,"within_identifier":1,"between_identifier":"noatt_nocred","rt":7.026,"response":1,"repeated":0,"trial":"NA"},{"":2,"subject":2,"statement_identifier":2,"presentation_identifier":1,"within_identifier":1,"between_identifier":"noatt_nocred","rt":5.021,"response":1,"repeated":1,"trial":"NA"},{"":3,"subject":2,"statement_identifier":3,"presentation_identifier":1,"within_identifier":1,"between_identifier":"noatt_nocred","rt":10.527,"response":0,"repeated":1,"trial":"NA"},{"":4,"subject":2,"statement_identifier":4,"presentation_identifier":1,"within_identifier":1,"between_identifier":"noatt_nocred","rt":6.423,"response":0,"repeated":1,"trial":"NA"},{"":5,"subject":2,"statement_identifier":5,"presentation_identifier":1,"within_identifier":1,"between_identifier":"noatt_nocred","rt":6.298,"response":0,"repeated":0,"trial":"NA"},{"":6,"subject":2,"statement_identifier":6,"presentation_identifier":1,"within_identifier":1,"between_identifier":"noatt_nocred","rt":5.294,"response":1,"repeated":0,"trial":"NA"},{"":7,"subject":2,"statement_identifier":7,"presentation_identifier":1,"within_identifier":1,"between_identifier":"noatt_nocred","rt":5.4,"response":1,"repeated":1,"trial":"NA"},{"":8,"subject":2,"statement_identifier":8,"presentation_identifier":1,"within_identifier":1,"between_identifier":"noatt_nocred","rt":7.125,"response":0,"repeated":1,"trial":"NA"},{"":9,"subject":2,"statement_identifier":9,"presentation_identifier":1,"within_identifier":1,"between_identifier":"noatt_nocred","rt":6.209,"response":1,"repeated":1,"trial":"NA"},{"":10,"subject":2,"statement_identifier":10,"presentation_identifier":1,"within_identifier":1,"between_identifier":"noatt_nocred","rt":5.54,"response":0,"repeated":0,"trial":"NA"},{"":11,"subject":2,"statement_identifier":11,"presentation_identifier":1,"within_identifier":1,"between_identifier":"noatt_nocred","rt":4.462,"response":0,"repeated":0,"trial":"NA"},{"":12,"subject":2,"statement_identifier":12,"presentation_identifier":1,"within_identifier":1,"between_identifier":"noatt_nocred","rt":6.672,"response":1,"repeated":0,"trial":"NA"},{"":13,"subject":2,"statement_identifier":13,"presentation_identifier":1,"within_identifier":1,"between_identifier":"noatt_nocred","rt":4.357,"response":1,"repeated":0,"trial":"NA"},{"":14,"subject":2,"statement_identifier":14,"presentation_identifier":1,"within_identifier":1,"between_identifier":"noatt_nocred","rt":6.392,"response":1,"repeated":0,"trial":"NA"},{"":15,"subject":2,"statement_identifier":15,"presentation_identifier":1,"within_identifier":1,"between_identifier":"noatt_nocred","rt":5.651,"response":1,"repeated":1,"trial":"NA"},{"":16,"subject":2,"statement_identifier":16,"presentation_identifier":1,"within_identifier":1,"between_identifier":"noatt_nocred","rt":11.643,"response":1,"repeated":1,"trial":"NA"},{"":17,"subject":2,"statement_identifier":17,"presentation_identifier":1,"within_identifier":1,"between_identifier":"noatt_nocred","rt":6.63,"response":0,"repeated":0,"trial":"NA"},{"":18,"subject":2,"statement_identifier":18,"presentation_identifier":1,"within_identifier":1,"between_identifier":"noatt_nocred","rt":8.91,"response":1,"repeated":1,"trial":"NA"},{"":19,"subject":2,"statement_identifier":19,"presentation_identifier":1,"within_identifier":1,"between_identifier":"noatt_nocred","rt":4.648,"response":1,"repeated":1,"trial":"NA"},{"":20,"subject":2,"statement_identifier":20,"presentation_identifier":1,"within_identifier":1,"between_identifier":"noatt_nocred","rt":4.508,"response":1,"repeated":1,"trial":"NA"},{"":21,"subject":2,"statement_identifier":21,"presentation_identifier":1,"within_identifier":1,"between_identifier":"noatt_nocred","rt":5.671,"response":1,"repeated":1,"trial":"NA"},{"":22,"subject":2,"statement_identifier":22,"presentation_identifier":1,"within_identifier":1,"between_identifier":"noatt_nocred","rt":8.188,"response":0,"repeated":1,"trial":"NA"},{"":23,"subject":2,"statement_identifier":23,"presentation_identifier":1,"within_identifier":1,"between_identifier":"noatt_nocred","rt":7.138,"response":0,"repeated":0,"trial":"NA"},{"":24,"subject":2,"statement_identifier":24,"presentation_identifier":1,"within_identifier":1,"between_identifier":"noatt_nocred","rt":5.556,"response":0,"repeated":1,"trial":"NA"},{"":25,"subject":2,"statement_identifier":25,"presentation_identifier":1,"within_identifier":1,"between_identifier":"noatt_nocred","rt":5.369,"response":1,"repeated":1,"trial":"NA"},{"":26,"subject":2,"statement_identifier":26,"presentation_identifier":1,"within_identifier":1,"between_identifier":"noatt_nocred","rt":4.058,"response":0,"repeated":0,"trial":"NA"},{"":27,"subject":2,"statement_identifier":27,"presentation_identifier":1,"within_identifier":1,"between_identifier":"noatt_nocred","rt":5.251,"response":0,"repeated":0,"trial":"NA"},{"":28,"subject":2,"statement_identifier":28,"presentation_identifier":1,"within_identifier":1,"between_identifier":"noatt_nocred","rt":16.104,"response":1,"repeated":0,"trial":"NA"},{"":29,"subject":2,"statement_identifier":29,"presentation_identifier":1,"within_identifier":1,"between_identifier":"noatt_nocred","rt":3.929,"response":1,"repeated":0,"trial":"NA"},{"":30,"subject":2,"statement_identifier":30,"presentation_identifier":1,"within_identifier":1,"between_identifier":"noatt_nocred","rt":11.464,"response":1,"repeated":0,"trial":"NA"},{"":31,"subject":2,"statement_identifier":31,"presentation_identifier":1,"within_identifier":1,"between_identifier":"noatt_nocred","rt":6.21,"response":1,"repeated":1,"trial":"NA"},{"":32,"subject":2,"statement_identifier":32,"presentation_identifier":1,"within_identifier":1,"between_identifier":"noatt_nocred","rt":4.186,"response":0,"repeated":0,"trial":"NA"},{"":33,"subject":2,"statement_identifier":33,"presentation_identifier":1,"within_identifier":1,"between_identifier":"noatt_nocred","rt":3.625,"response":0,"repeated":1,"trial":"NA"},{"":34,"subject":2,"statement_identifier":34,"presentation_identifier":1,"within_identifier":1,"between_identifier":"noatt_nocred","rt":6.877,"response":0,"repeated":0,"trial":"NA"},{"":35,"subject":2,"statement_identifier":35,"presentation_identifier":1,"within_identifier":1,"between_identifier":"noatt_nocred","rt":4.403,"response":0,"repeated":0,"trial":"NA"},{"":36,"subject":2,"statement_identifier":36,"presentation_identifier":1,"within_identifier":1,"between_identifier":"noatt_nocred","rt":4.808,"response":0,"repeated":0,"trial":"NA"},{"":37,"subject":2,"statement_identifier":37,"presentation_identifier":1,"within_identifier":1,"between_identifier":"noatt_nocred","rt":11.147,"response":0,"repeated":0,"trial":"NA"},{"":38,"subject":2,"statement_identifier":38,"presentation_identifier":1,"within_identifier":1,"between_identifier":"noatt_nocred","rt":3.314,"response":1,"repeated":1,"trial":"NA"},{"":39,"subject":2,"statement_identifier":39,"presentation_identifier":1,"within_identifier":1,"between_identifier":"noatt_nocred","rt":5.129,"response":1,"repeated":0,"trial":"NA"},{"":40,"subject":2,"statement_identifier":40,"presentation_identifier":1,"within_identifier":1,"between_identifier":"noatt_nocred","rt":3.369,"response":1,"repeated":0,"trial":"NA"},{"":41,"subject":2,"statement_identifier":41,"presentation_identifier":1,"within_identifier":1,"between_identifier":"noatt_nocred","rt":0.349,"response":0,"repeated":1,"trial":"NA"},{"":42,"subject":2,"statement_identifier":42,"presentation_identifier":1,"within_identifier":1,"between_identifier":"noatt_nocred","rt":8.1,"response":1,"repeated":1,"trial":"NA"},{"":43,"subject":2,"statement_identifier":43,"presentation_identifier":1,"within_identifier":1,"between_identifier":"noatt_nocred","rt":5.22,"response":1,"repeated":1,"trial":"NA"},{"":44,"subject":2,"statement_identifier":44,"presentation_identifier":1,"within_identifier":1,"between_identifier":"noatt_nocred","rt":5.935,"response":1,"repeated":1,"trial":"NA"},{"":45,"subject":2,"statement_identifier":45,"presentation_identifier":1,"within_identifier":1,"between_identifier":"noatt_nocred","rt":7.712,"response":1,"repeated":0,"trial":"NA"},{"":46,"subject":2,"statement_identifier":46,"presentation_identifier":1,"within_identifier":1,"between_identifier":"noatt_nocred","rt":8.365,"response":0,"repeated":1,"trial":"NA"},{"":47,"subject":2,"statement_identifier":47,"presentation_identifier":1,"within_identifier":1,"between_identifier":"noatt_nocred","rt":4.83,"response":1,"repeated":1,"trial":"NA"},{"":48,"subject":2,"statement_identifier":48,"presentation_identifier":1,"within_identifier":1,"between_identifier":"noatt_nocred","rt":7.441,"response":0,"repeated":0,"trial":"NA"},{"":49,"subject":2,"statement_identifier":49,"presentation_identifier":1,"within_identifier":1,"between_identifier":"noatt_nocred","rt":9.344,"response":1,"repeated":0,"trial":"NA"},{"":50,"subject":2,"statement_identifier":50,"presentation_identifier":1,"within_identifier":1,"between_identifier":"noatt_nocred","rt":4.018,"response":1,"repeated":1,"trial":"NA"},{"":51,"subject":2,"statement_identifier":51,"presentation_identifier":1,"within_identifier":1,"between_identifier":"noatt_nocred","rt":5.209,"response":1,"repeated":1,"trial":"NA"},{"":52,"subject":2,"statement_identifier":52,"presentation_identifier":1,"within_identifier":1,"between_identifier":"noatt_nocred","rt":3.575,"response":1,"repeated":1,"trial":"NA"},{"":53,"subject":2,"statement_identifier":53,"presentation_identifier":1,"within_identifier":1,"between_identifier":"noatt_nocred","rt":4.994,"response":1,"repeated":1,"trial":"NA"},{"":54,"subject":2,"statement_identifier":54,"presentation_identifier":1,"within_identifier":1,"between_identifier":"noatt_nocred","rt":5.469,"response":0,"repeated":0,"trial":"NA"},{"":55,"subject":2,"statement_identifier":55,"presentation_identifier":1,"within_identifier":1,"between_identifier":"noatt_nocred","rt":4.259,"response":1,"repeated":0,"trial":"NA"},{"":56,"subject":2,"statement_identifier":56,"presentation_identifier":1,"within_identifier":1,"between_identifier":"noatt_nocred","rt":4.357,"response":0,"repeated":0,"trial":"NA"},{"":57,"subject":101,"statement_identifier":57,"presentation_identifier":1,"within_identifier":1,"between_identifier":"noatt_nocred","rt":2.76,"response":1,"repeated":1,"trial":"NA"},{"":58,"subject":101,"statement_identifier":58,"presentation_identifier":1,"within_identifier":1,"between_identifier":"noatt_nocred","rt":2.09,"response":1,"repeated":0,"trial":"NA"},{"":59,"subject":101,"statement_identifier":59,"presentation_identifier":1,"within_identifier":1,"between_identifier":"noatt_nocred","rt":3.262,"response":1,"repeated":0,"trial":"NA"},{"":60,"subject":101,"statement_identifier":60,"presentation_identifier":1,"within_identifier":1,"between_identifier":"noatt_nocred","rt":3.504,"response":0,"repeated":1,"trial":"NA"},{"":61,"subject":101,"statement_identifier":61,"presentation_identifier":1,"within_identifier":1,"between_identifier":"noatt_nocred","rt":3.257,"response":1,"repeated":1,"trial":"NA"},{"":62,"subject":101,"statement_identifier":6,"presentation_identifier":1,"within_identifier":1,"between_identifier":"noatt_nocred","rt":3.04,"response":1,"repeated":1,"trial":"NA"},{"":63,"subject":101,"statement_identifier":62,"presentation_identifier":1,"within_identifier":1,"between_identifier":"noatt_nocred","rt":2.008,"response":1,"repeated":1,"trial":"NA"},{"":64,"subject":101,"statement_identifier":8,"presentation_identifier":1,"within_identifier":1,"between_identifier":"noatt_nocred","rt":1.874,"response":0,"repeated":0,"trial":"NA"},{"":65,"subject":101,"statement_identifier":63,"presentation_identifier":1,"within_identifier":1,"between_identifier":"noatt_nocred","rt":2.371,"response":1,"repeated":1,"trial":"NA"},{"":66,"subject":101,"statement_identifier":10,"presentation_identifier":1,"within_identifier":1,"between_identifier":"noatt_nocred","rt":1.56,"response":1,"repeated":0,"trial":"NA"},{"":67,"subject":101,"statement_identifier":11,"presentation_identifier":1,"within_identifier":1,"between_identifier":"noatt_nocred","rt":2.531,"response":0,"repeated":0,"trial":"NA"},{"":68,"subject":101,"statement_identifier":12,"presentation_identifier":1,"within_identifier":1,"between_identifier":"noatt_nocred","rt":2.115,"response":0,"repeated":1,"trial":"NA"},{"":69,"subject":101,"statement_identifier":64,"presentation_identifier":1,"within_identifier":1,"between_identifier":"noatt_nocred","rt":4.154,"response":1,"repeated":0,"trial":"NA"},{"":70,"subject":101,"statement_identifier":65,"presentation_identifier":1,"within_identifier":1,"between_identifier":"noatt_nocred","rt":2.129,"response":1,"repeated":1,"trial":"NA"},{"":71,"subject":101,"statement_identifier":15,"presentation_identifier":1,"within_identifier":1,"between_identifier":"noatt_nocred","rt":3.619,"response":0,"repeated":0,"trial":"NA"},{"":72,"subject":101,"statement_identifier":66,"presentation_identifier":1,"within_identifier":1,"between_identifier":"noatt_nocred","rt":6.066,"response":1,"repeated":1,"trial":"NA"},{"":73,"subject":101,"statement_identifier":17,"presentation_identifier":1,"within_identifier":1,"between_identifier":"noatt_nocred","rt":3.182,"response":1,"repeated":1,"trial":"NA"},{"":74,"subject":101,"statement_identifier":67,"presentation_identifier":1,"within_identifier":1,"between_identifier":"noatt_nocred","rt":6.77,"response":0,"repeated":1,"trial":"NA"},{"":75,"subject":101,"statement_identifier":68,"presentation_identifier":1,"within_identifier":1,"between_identifier":"noatt_nocred","rt":1.905,"response":1,"repeated":0,"trial":"NA"},{"":76,"subject":101,"statement_identifier":20,"presentation_identifier":1,"within_identifier":1,"between_identifier":"noatt_nocred","rt":2.346,"response":1,"repeated":0,"trial":"NA"},{"":77,"subject":101,"statement_identifier":69,"presentation_identifier":1,"within_identifier":1,"between_identifier":"noatt_nocred","rt":5.776,"response":0,"repeated":0,"trial":"NA"},{"":78,"subject":101,"statement_identifier":70,"presentation_identifier":1,"within_identifier":1,"between_identifier":"noatt_nocred","rt":2.154,"response":1,"repeated":0,"trial":"NA"},{"":79,"subject":101,"statement_identifier":23,"presentation_identifier":1,"within_identifier":1,"between_identifier":"noatt_nocred","rt":3.176,"response":0,"repeated":0,"trial":"NA"},{"":80,"subject":101,"statement_identifier":71,"presentation_identifier":1,"within_identifier":1,"between_identifier":"noatt_nocred","rt":1.95,"response":0,"repeated":0,"trial":"NA"},{"":81,"subject":101,"statement_identifier":25,"presentation_identifier":1,"within_identifier":1,"between_identifier":"noatt_nocred","rt":3.309,"response":1,"repeated":1,"trial":"NA"},{"":82,"subject":101,"statement_identifier":72,"presentation_identifier":1,"within_identifier":1,"between_identifier":"noatt_nocred","rt":3.23,"response":1,"repeated":1,"trial":"NA"},{"":83,"subject":101,"statement_identifier":73,"presentation_identifier":1,"within_identifier":1,"between_identifier":"noatt_nocred","rt":3.271,"response":1,"repeated":1,"trial":"NA"},{"":84,"subject":101,"statement_identifier":26,"presentation_identifier":1,"within_identifier":1,"between_identifier":"noatt_nocred","rt":1.945,"response":0,"repeated":1,"trial":"NA"},{"":85,"subject":101,"statement_identifier":74,"presentation_identifier":1,"within_identifier":1,"between_identifier":"noatt_nocred","rt":2.674,"response":1,"repeated":0,"trial":"NA"},{"":86,"subject":101,"statement_identifier":28,"presentation_identifier":1,"within_identifier":1,"between_identifier":"noatt_nocred","rt":4.632,"response":1,"repeated":0,"trial":"NA"},{"":87,"subject":101,"statement_identifier":29,"presentation_identifier":1,"within_identifier":1,"between_identifier":"noatt_nocred","rt":1.395,"response":1,"repeated":0,"trial":"NA"},{"":88,"subject":101,"statement_identifier":30,"presentation_identifier":1,"within_identifier":1,"between_identifier":"noatt_nocred","rt":9.296,"response":1,"repeated":1,"trial":"NA"},{"":89,"subject":101,"statement_identifier":31,"presentation_identifier":1,"within_identifier":1,"between_identifier":"noatt_nocred","rt":2.625,"response":1,"repeated":0,"trial":"NA"},{"":90,"subject":101,"statement_identifier":75,"presentation_identifier":1,"within_identifier":1,"between_identifier":"noatt_nocred","rt":3.174,"response":0,"repeated":0,"trial":"NA"},{"":91,"subject":101,"statement_identifier":33,"presentation_identifier":1,"within_identifier":1,"between_identifier":"noatt_nocred","rt":1.866,"response":1,"repeated":0,"trial":"NA"},{"":92,"subject":101,"statement_identifier":35,"presentation_identifier":1,"within_identifier":1,"between_identifier":"noatt_nocred","rt":2.514,"response":1,"repeated":1,"trial":"NA"},{"":93,"subject":101,"statement_identifier":76,"presentation_identifier":1,"within_identifier":1,"between_identifier":"noatt_nocred","rt":3.091,"response":1,"repeated":0,"trial":"NA"},{"":94,"subject":101,"statement_identifier":77,"presentation_identifier":1,"within_identifier":1,"between_identifier":"noatt_nocred","rt":2.034,"response":1,"repeated":0,"trial":"NA"},{"":95,"subject":101,"statement_identifier":38,"presentation_identifier":1,"within_identifier":1,"between_identifier":"noatt_nocred","rt":1.568,"response":1,"repeated":1,"trial":"NA"},{"":96,"subject":101,"statement_identifier":39,"presentation_identifier":1,"within_identifier":1,"between_identifier":"noatt_nocred","rt":2.572,"response":1,"repeated":1,"trial":"NA"},{"":97,"subject":101,"statement_identifier":40,"presentation_identifier":1,"within_identifier":1,"between_identifier":"noatt_nocred","rt":1.678,"response":1,"repeated":1,"trial":"NA"},{"":98,"subject":101,"statement_identifier":41,"presentation_identifier":1,"within_identifier":1,"between_identifier":"noatt_nocred","rt":3.065,"response":0,"repeated":0,"trial":"NA"},{"":99,"subject":101,"statement_identifier":78,"presentation_identifier":1,"within_identifier":1,"between_identifier":"noatt_nocred","rt":2.24,"response":1,"repeated":1,"trial":"NA"},{"":100,"subject":101,"statement_identifier":43,"presentation_identifier":1,"within_identifier":1,"between_identifier":"noatt_nocred","rt":2.249,"response":1,"repeated":0,"trial":"NA"},{"":101,"subject":101,"statement_identifier":45,"presentation_identifier":1,"within_identifier":1,"between_identifier":"noatt_nocred","rt":2.57,"response":1,"repeated":1,"trial":"NA"},{"":102,"subject":101,"statement_identifier":79,"presentation_identifier":1,"within_identifier":1,"between_identifier":"noatt_nocred","rt":2.202,"response":1,"repeated":1,"trial":"NA"},{"":103,"subject":101,"statement_identifier":80,"presentation_identifier":1,"within_identifier":1,"between_identifier":"noatt_nocred","rt":2.378,"response":1,"repeated":0,"trial":"NA"},{"":104,"subject":101,"statement_identifier":47,"presentation_identifier":1,"within_identifier":1,"between_identifier":"noatt_nocred","rt":2.694,"response":1,"repeated":1,"trial":"NA"},{"":105,"subject":101,"statement_identifier":81,"presentation_identifier":1,"within_identifier":1,"between_identifier":"noatt_nocred","rt":2.601,"response":1,"repeated":1,"trial":"NA"},{"":106,"subject":101,"statement_identifier":50,"presentation_identifier":1,"within_identifier":1,"between_identifier":"noatt_nocred","rt":3.628,"response":0,"repeated":0,"trial":"NA"},{"":107,"subject":101,"statement_identifier":52,"presentation_identifier":1,"within_identifier":1,"between_identifier":"noatt_nocred","rt":0.975,"response":1,"repeated":0,"trial":"NA"},{"":108,"subject":101,"statement_identifier":82,"presentation_identifier":1,"within_identifier":1,"between_identifier":"noatt_nocred","rt":3.033,"response":1,"repeated":1,"trial":"NA"},{"":109,"subject":101,"statement_identifier":54,"presentation_identifier":1,"within_identifier":1,"between_identifier":"noatt_nocred","rt":4.902,"response":0,"repeated":1,"trial":"NA"},{"":110,"subject":101,"statement_identifier":55,"presentation_identifier":1,"within_identifier":1,"between_identifier":"noatt_nocred","rt":3.906,"response":1,"repeated":1,"trial":"NA"},{"":111,"subject":101,"statement_identifier":56,"presentation_identifier":1,"within_identifier":1,"between_identifier":"noatt_nocred","rt":2.42,"response":0,"repeated":0,"trial":"NA"},{"":112,"subject":101,"statement_identifier":83,"presentation_identifier":1,"within_identifier":1,"between_identifier":"noatt_nocred","rt":4.018,"response":0,"repeated":0,"trial":"NA"},{"":113,"subject":185,"statement_identifier":57,"presentation_identifier":1,"within_identifier":1,"between_identifier":"noatt_nocred","rt":2.71,"response":0,"repeated":1,"trial":"NA"},{"":114,"subject":185,"statement_identifier":58,"presentation_identifier":1,"within_identifier":1,"between_identifier":"noatt_nocred","rt":3.089,"response":1,"repeated":0,"trial":"NA"},{"":115,"subject":185,"statement_identifier":59,"presentation_identifier":1,"within_identifier":1,"between_identifier":"noatt_nocred","rt":2.973,"response":1,"repeated":1,"trial":"NA"},{"":116,"subject":185,"statement_identifier":4,"presentation_identifier":1,"within_identifier":1,"between_identifier":"noatt_nocred","rt":4.435,"response":0,"repeated":0,"trial":"NA"},{"":117,"subject":185,"statement_identifier":61,"presentation_identifier":1,"within_identifier":1,"between_identifier":"noatt_nocred","rt":2.931,"response":1,"repeated":1,"trial":"NA"},{"":118,"subject":185,"statement_identifier":84,"presentation_identifier":1,"within_identifier":1,"between_identifier":"noatt_nocred","rt":3.038,"response":1,"repeated":1,"trial":"NA"},{"":119,"subject":185,"statement_identifier":7,"presentation_identifier":1,"within_identifier":1,"between_identifier":"noatt_nocred","rt":7.241,"response":0,"repeated":1,"trial":"NA"},{"":120,"subject":185,"statement_identifier":63,"presentation_identifier":1,"within_identifier":1,"between_identifier":"noatt_nocred","rt":2.922,"response":1,"repeated":1,"trial":"NA"},{"":121,"subject":185,"statement_identifier":10,"presentation_identifier":1,"within_identifier":1,"between_identifier":"noatt_nocred","rt":3.865,"response":0,"repeated":1,"trial":"NA"},{"":122,"subject":185,"statement_identifier":85,"presentation_identifier":1,"within_identifier":1,"between_identifier":"noatt_nocred","rt":3.977,"response":1,"repeated":1,"trial":"NA"},{"":123,"subject":185,"statement_identifier":12,"presentation_identifier":1,"within_identifier":1,"between_identifier":"noatt_nocred","rt":1.548,"response":1,"repeated":1,"trial":"NA"},{"":124,"subject":185,"statement_identifier":64,"presentation_identifier":1,"within_identifier":1,"between_identifier":"noatt_nocred","rt":4.011,"response":0,"repeated":1,"trial":"NA"},{"":125,"subject":185,"statement_identifier":65,"presentation_identifier":1,"within_identifier":1,"between_identifier":"noatt_nocred","rt":4.69,"response":0,"repeated":0,"trial":"NA"},{"":126,"subject":185,"statement_identifier":86,"presentation_identifier":1,"within_identifier":1,"between_identifier":"noatt_nocred","rt":2.022,"response":1,"repeated":1,"trial":"NA"},{"":127,"subject":185,"statement_identifier":15,"presentation_identifier":1,"within_identifier":1,"between_identifier":"noatt_nocred","rt":3.51,"response":1,"repeated":0,"trial":"NA"},{"":128,"subject":185,"statement_identifier":16,"presentation_identifier":1,"within_identifier":1,"between_identifier":"noatt_nocred","rt":2.106,"response":0,"repeated":0,"trial":"NA"},{"":129,"subject":185,"statement_identifier":87,"presentation_identifier":1,"within_identifier":1,"between_identifier":"noatt_nocred","rt":3.875,"response":1,"repeated":0,"trial":"NA"},{"":130,"subject":185,"statement_identifier":18,"presentation_identifier":1,"within_identifier":1,"between_identifier":"noatt_nocred","rt":2.581,"response":1,"repeated":0,"trial":"NA"},{"":131,"subject":185,"statement_identifier":68,"presentation_identifier":1,"within_identifier":1,"between_identifier":"noatt_nocred","rt":3.902,"response":1,"repeated":1,"trial":"NA"},{"":132,"subject":185,"statement_identifier":20,"presentation_identifier":1,"within_identifier":1,"between_identifier":"noatt_nocred","rt":3.291,"response":0,"repeated":0,"trial":"NA"},{"":133,"subject":185,"statement_identifier":21,"presentation_identifier":1,"within_identifier":1,"between_identifier":"noatt_nocred","rt":2.608,"response":0,"repeated":0,"trial":"NA"},{"":134,"subject":185,"statement_identifier":22,"presentation_identifier":1,"within_identifier":1,"between_identifier":"noatt_nocred","rt":3.496,"response":1,"repeated":0,"trial":"NA"},{"":135,"subject":185,"statement_identifier":71,"presentation_identifier":1,"within_identifier":1,"between_identifier":"noatt_nocred","rt":4.022,"response":1,"repeated":0,"trial":"NA"},{"":136,"subject":185,"statement_identifier":88,"presentation_identifier":1,"within_identifier":1,"between_identifier":"noatt_nocred","rt":3.248,"response":0,"repeated":1,"trial":"NA"},{"":137,"subject":185,"statement_identifier":89,"presentation_identifier":1,"within_identifier":1,"between_identifier":"noatt_nocred","rt":3.977,"response":1,"repeated":1,"trial":"NA"},{"":138,"subject":185,"statement_identifier":73,"presentation_identifier":1,"within_identifier":1,"between_identifier":"noatt_nocred","rt":2.763,"response":0,"repeated":1,"trial":"NA"},{"":139,"subject":185,"statement_identifier":26,"presentation_identifier":1,"within_identifier":1,"between_identifier":"noatt_nocred","rt":1.942,"response":0,"repeated":0,"trial":"NA"},{"":140,"subject":185,"statement_identifier":27,"presentation_identifier":1,"within_identifier":1,"between_identifier":"noatt_nocred","rt":3.781,"response":0,"repeated":0,"trial":"NA"},{"":141,"subject":185,"statement_identifier":28,"presentation_identifier":1,"within_identifier":1,"between_identifier":"noatt_nocred","rt":4.633,"response":0,"repeated":0,"trial":"NA"},{"":142,"subject":185,"statement_identifier":29,"presentation_identifier":1,"within_identifier":1,"between_identifier":"noatt_nocred","rt":2.461,"response":1,"repeated":1,"trial":"NA"},{"":143,"subject":185,"statement_identifier":30,"presentation_identifier":1,"within_identifier":1,"between_identifier":"noatt_nocred","rt":2.441,"response":0,"repeated":1,"trial":"NA"},{"":144,"subject":185,"statement_identifier":75,"presentation_identifier":1,"within_identifier":1,"between_identifier":"noatt_nocred","rt":2.12,"response":1,"repeated":1,"trial":"NA"},{"":145,"subject":185,"statement_identifier":90,"presentation_identifier":1,"within_identifier":1,"between_identifier":"noatt_nocred","rt":1.885,"response":1,"repeated":0,"trial":"NA"},{"":146,"subject":185,"statement_identifier":34,"presentation_identifier":1,"within_identifier":1,"between_identifier":"noatt_nocred","rt":1.813,"response":0,"repeated":0,"trial":"NA"},{"":147,"subject":185,"statement_identifier":35,"presentation_identifier":1,"within_identifier":1,"between_identifier":"noatt_nocred","rt":2.64,"response":1,"repeated":0,"trial":"NA"},{"":148,"subject":185,"statement_identifier":76,"presentation_identifier":1,"within_identifier":1,"between_identifier":"noatt_nocred","rt":3.126,"response":0,"repeated":0,"trial":"NA"},{"":149,"subject":185,"statement_identifier":77,"presentation_identifier":1,"within_identifier":1,"between_identifier":"noatt_nocred","rt":3.87,"response":1,"repeated":1,"trial":"NA"},{"":150,"subject":185,"statement_identifier":91,"presentation_identifier":1,"within_identifier":1,"between_identifier":"noatt_nocred","rt":2.863,"response":0,"repeated":1,"trial":"NA"},{"":151,"subject":185,"statement_identifier":92,"presentation_identifier":1,"within_identifier":1,"between_identifier":"noatt_nocred","rt":3.4,"response":0,"repeated":0,"trial":"NA"},{"":152,"subject":185,"statement_identifier":93,"presentation_identifier":1,"within_identifier":1,"between_identifier":"noatt_nocred","rt":3.404,"response":0,"repeated":0,"trial":"NA"},{"":153,"subject":185,"statement_identifier":94,"presentation_identifier":1,"within_identifier":1,"between_identifier":"noatt_nocred","rt":3.3,"response":0,"repeated":0,"trial":"NA"},{"":154,"subject":185,"statement_identifier":78,"presentation_identifier":1,"within_identifier":1,"between_identifier":"noatt_nocred","rt":3.365,"response":1,"repeated":1,"trial":"NA"},{"":155,"subject":185,"statement_identifier":95,"presentation_identifier":1,"within_identifier":1,"between_identifier":"noatt_nocred","rt":4.697,"response":1,"repeated":0,"trial":"NA"},{"":156,"subject":185,"statement_identifier":79,"presentation_identifier":1,"within_identifier":1,"between_identifier":"noatt_nocred","rt":2.576,"response":0,"repeated":0,"trial":"NA"},{"":157,"subject":185,"statement_identifier":46,"presentation_identifier":1,"within_identifier":1,"between_identifier":"noatt_nocred","rt":2.048,"response":0,"repeated":1,"trial":"NA"},{"":158,"subject":185,"statement_identifier":47,"presentation_identifier":1,"within_identifier":1,"between_identifier":"noatt_nocred","rt":4.874,"response":0,"repeated":1,"trial":"NA"},{"":159,"subject":185,"statement_identifier":49,"presentation_identifier":1,"within_identifier":1,"between_identifier":"noatt_nocred","rt":2.872,"response":1,"repeated":1,"trial":"NA"},{"":160,"subject":185,"statement_identifier":96,"presentation_identifier":1,"within_identifier":1,"between_identifier":"noatt_nocred","rt":3.643,"response":0,"repeated":0,"trial":"NA"},{"":161,"subject":185,"statement_identifier":97,"presentation_identifier":1,"within_identifier":1,"between_identifier":"noatt_nocred","rt":7.756,"response":0,"repeated":0,"trial":"NA"},{"":162,"subject":185,"statement_identifier":98,"presentation_identifier":1,"within_identifier":1,"between_identifier":"noatt_nocred","rt":4.244,"response":1,"repeated":1,"trial":"NA"},{"":163,"subject":185,"statement_identifier":53,"presentation_identifier":1,"within_identifier":1,"between_identifier":"noatt_nocred","rt":4.051,"response":0,"repeated":0,"trial":"NA"},{"":164,"subject":185,"statement_identifier":99,"presentation_identifier":1,"within_identifier":1,"between_identifier":"noatt_nocred","rt":2.907,"response":0,"repeated":0,"trial":"NA"},{"":165,"subject":185,"statement_identifier":100,"presentation_identifier":1,"within_identifier":1,"between_identifier":"noatt_nocred","rt":6.044,"response":0,"repeated":1,"trial":"NA"},{"":166,"subject":185,"statement_identifier":101,"presentation_identifier":1,"within_identifier":1,"between_identifier":"noatt_nocred","rt":1.771,"response":1,"repeated":1,"trial":"NA"},{"":167,"subject":185,"statement_identifier":56,"presentation_identifier":1,"within_identifier":1,"between_identifier":"noatt_nocred","rt":3.862,"response":0,"repeated":1,"trial":"NA"},{"":168,"subject":185,"statement_identifier":83,"presentation_identifier":1,"within_identifier":1,"between_identifier":"noatt_nocred","rt":5.365,"response":0,"repeated":0,"trial":"NA"},{"":169,"subject":186,"statement_identifier":1,"presentation_identifier":1,"within_identifier":1,"between_identifier":"att_nocred","rt":9.655,"response":0,"repeated":1,"trial":"NA"},{"":170,"subject":186,"statement_identifier":2,"presentation_identifier":1,"within_identifier":1,"between_identifier":"att_nocred","rt":3.424,"response":1,"repeated":1,"trial":"NA"},{"":171,"subject":186,"statement_identifier":59,"presentation_identifier":1,"within_identifier":1,"between_identifier":"att_nocred","rt":15.892,"response":1,"repeated":0,"trial":"NA"},{"":172,"subject":186,"statement_identifier":61,"presentation_identifier":1,"within_identifier":1,"between_identifier":"att_nocred","rt":7.813,"response":1,"repeated":1,"trial":"NA"},{"":173,"subject":186,"statement_identifier":6,"presentation_identifier":1,"within_identifier":1,"between_identifier":"att_nocred","rt":9.507,"response":1,"repeated":0,"trial":"NA"},{"":174,"subject":186,"statement_identifier":7,"presentation_identifier":1,"within_identifier":1,"between_identifier":"att_nocred","rt":2.553,"response":0,"repeated":1,"trial":"NA"},{"":175,"subject":186,"statement_identifier":8,"presentation_identifier":1,"within_identifier":1,"between_identifier":"att_nocred","rt":13.86,"response":0,"repeated":0,"trial":"NA"},{"":176,"subject":186,"statement_identifier":9,"presentation_identifier":1,"within_identifier":1,"between_identifier":"att_nocred","rt":3.908,"response":0,"repeated":0,"trial":"NA"},{"":177,"subject":186,"statement_identifier":102,"presentation_identifier":1,"within_identifier":1,"between_identifier":"att_nocred","rt":3.702,"response":0,"repeated":0,"trial":"NA"},{"":178,"subject":186,"statement_identifier":85,"presentation_identifier":1,"within_identifier":1,"between_identifier":"att_nocred","rt":7.373,"response":0,"repeated":1,"trial":"NA"},{"":179,"subject":186,"statement_identifier":103,"presentation_identifier":1,"within_identifier":1,"between_identifier":"att_nocred","rt":8.334,"response":1,"repeated":1,"trial":"NA"},{"":180,"subject":186,"statement_identifier":64,"presentation_identifier":1,"within_identifier":1,"between_identifier":"att_nocred","rt":5.541,"response":1,"repeated":1,"trial":"NA"},{"":181,"subject":186,"statement_identifier":65,"presentation_identifier":1,"within_identifier":1,"between_identifier":"att_nocred","rt":10.494,"response":1,"repeated":0,"trial":"NA"},{"":182,"subject":186,"statement_identifier":86,"presentation_identifier":1,"within_identifier":1,"between_identifier":"att_nocred","rt":4.293,"response":1,"repeated":0,"trial":"NA"},{"":183,"subject":186,"statement_identifier":104,"presentation_identifier":1,"within_identifier":1,"between_identifier":"att_nocred","rt":6.225,"response":0,"repeated":1,"trial":"NA"},{"":184,"subject":186,"statement_identifier":16,"presentation_identifier":1,"within_identifier":1,"between_identifier":"att_nocred","rt":8.998,"response":1,"repeated":0,"trial":"NA"},{"":185,"subject":186,"statement_identifier":87,"presentation_identifier":1,"within_identifier":1,"between_identifier":"att_nocred","rt":9.483,"response":1,"repeated":1,"trial":"NA"},{"":186,"subject":186,"statement_identifier":67,"presentation_identifier":1,"within_identifier":1,"between_identifier":"att_nocred","rt":5.059,"response":1,"repeated":0,"trial":"NA"},{"":187,"subject":186,"statement_identifier":19,"presentation_identifier":1,"within_identifier":1,"between_identifier":"att_nocred","rt":7.166,"response":0,"repeated":0,"trial":"NA"},{"":188,"subject":186,"statement_identifier":105,"presentation_identifier":1,"within_identifier":1,"between_identifier":"att_nocred","rt":6.877,"response":1,"repeated":1,"trial":"NA"},{"":189,"subject":186,"statement_identifier":69,"presentation_identifier":1,"within_identifier":1,"between_identifier":"att_nocred","rt":7.445,"response":1,"repeated":0,"trial":"NA"},{"":190,"subject":186,"statement_identifier":70,"presentation_identifier":1,"within_identifier":1,"between_identifier":"att_nocred","rt":13.062,"response":0,"repeated":1,"trial":"NA"},{"":191,"subject":186,"statement_identifier":23,"presentation_identifier":1,"within_identifier":1,"between_identifier":"att_nocred","rt":13.457,"response":0,"repeated":1,"trial":"NA"},{"":192,"subject":186,"statement_identifier":71,"presentation_identifier":1,"within_identifier":1,"between_identifier":"att_nocred","rt":12.929,"response":1,"repeated":0,"trial":"NA"},{"":193,"subject":186,"statement_identifier":25,"presentation_identifier":1,"within_identifier":1,"between_identifier":"att_nocred","rt":10.283,"response":1,"repeated":1,"trial":"NA"},{"":194,"subject":186,"statement_identifier":72,"presentation_identifier":1,"within_identifier":1,"between_identifier":"att_nocred","rt":4.475,"response":1,"repeated":1,"trial":"NA"},{"":195,"subject":186,"statement_identifier":26,"presentation_identifier":1,"within_identifier":1,"between_identifier":"att_nocred","rt":3.67,"response":1,"repeated":0,"trial":"NA"},{"":196,"subject":186,"statement_identifier":27,"presentation_identifier":1,"within_identifier":1,"between_identifier":"att_nocred","rt":4.364,"response":0,"repeated":1,"trial":"NA"},{"":197,"subject":186,"statement_identifier":106,"presentation_identifier":1,"within_identifier":1,"between_identifier":"att_nocred","rt":7.918,"response":1,"repeated":1,"trial":"NA"},{"":198,"subject":186,"statement_identifier":107,"presentation_identifier":1,"within_identifier":1,"between_identifier":"att_nocred","rt":7.344,"response":1,"repeated":0,"trial":"NA"},{"":199,"subject":186,"statement_identifier":31,"presentation_identifier":1,"within_identifier":1,"between_identifier":"att_nocred","rt":6.253,"response":1,"repeated":0,"trial":"NA"},{"":200,"subject":186,"statement_identifier":75,"presentation_identifier":1,"within_identifier":1,"between_identifier":"att_nocred","rt":2.602,"response":1,"repeated":0,"trial":"NA"},{"":201,"subject":186,"statement_identifier":33,"presentation_identifier":1,"within_identifier":1,"between_identifier":"att_nocred","rt":9.404,"response":0,"repeated":1,"trial":"NA"},{"":202,"subject":186,"statement_identifier":34,"presentation_identifier":1,"within_identifier":1,"between_identifier":"att_nocred","rt":4.035,"response":1,"repeated":0,"trial":"NA"},{"":203,"subject":186,"statement_identifier":35,"presentation_identifier":1,"within_identifier":1,"between_identifier":"att_nocred","rt":9.995,"response":1,"repeated":1,"trial":"NA"},{"":204,"subject":186,"statement_identifier":36,"presentation_identifier":1,"within_identifier":1,"between_identifier":"att_nocred","rt":5.627,"response":1,"repeated":0,"trial":"NA"},{"":205,"subject":186,"statement_identifier":77,"presentation_identifier":1,"within_identifier":1,"between_identifier":"att_nocred","rt":8.635,"response":1,"repeated":0,"trial":"NA"},{"":206,"subject":186,"statement_identifier":38,"presentation_identifier":1,"within_identifier":1,"between_identifier":"att_nocred","rt":13.872,"response":1,"repeated":0,"trial":"NA"},{"":207,"subject":186,"statement_identifier":39,"presentation_identifier":1,"within_identifier":1,"between_identifier":"att_nocred","rt":1.704,"response":0,"repeated":1,"trial":"NA"},{"":208,"subject":186,"statement_identifier":40,"presentation_identifier":1,"within_identifier":1,"between_identifier":"att_nocred","rt":3.13,"response":1,"repeated":1,"trial":"NA"},{"":209,"subject":186,"statement_identifier":41,"presentation_identifier":1,"within_identifier":1,"between_identifier":"att_nocred","rt":9.192,"response":0,"repeated":1,"trial":"NA"},{"":210,"subject":186,"statement_identifier":78,"presentation_identifier":1,"within_identifier":1,"between_identifier":"att_nocred","rt":8.329,"response":1,"repeated":0,"trial":"NA"},{"":211,"subject":186,"statement_identifier":108,"presentation_identifier":1,"within_identifier":1,"between_identifier":"att_nocred","rt":2.752,"response":1,"repeated":1,"trial":"NA"},{"":212,"subject":186,"statement_identifier":79,"presentation_identifier":1,"within_identifier":1,"between_identifier":"att_nocred","rt":3.902,"response":0,"repeated":0,"trial":"NA"},{"":213,"subject":186,"statement_identifier":46,"presentation_identifier":1,"within_identifier":1,"between_identifier":"att_nocred","rt":4.44,"response":0,"repeated":1,"trial":"NA"},{"":214,"subject":186,"statement_identifier":109,"presentation_identifier":1,"within_identifier":1,"between_identifier":"att_nocred","rt":1.972,"response":1,"repeated":1,"trial":"NA"},{"":215,"subject":186,"statement_identifier":48,"presentation_identifier":1,"within_identifier":1,"between_identifier":"att_nocred","rt":16.194,"response":0,"repeated":1,"trial":"NA"},{"":216,"subject":186,"statement_identifier":81,"presentation_identifier":1,"within_identifier":1,"between_identifier":"att_nocred","rt":10.788,"response":1,"repeated":0,"trial":"NA"},{"":217,"subject":186,"statement_identifier":50,"presentation_identifier":1,"within_identifier":1,"between_identifier":"att_nocred","rt":6.654,"response":1,"repeated":1,"trial":"NA"},{"":218,"subject":186,"statement_identifier":51,"presentation_identifier":1,"within_identifier":1,"between_identifier":"att_nocred","rt":9.746,"response":0,"repeated":0,"trial":"NA"},{"":219,"subject":186,"statement_identifier":52,"presentation_identifier":1,"within_identifier":1,"between_identifier":"att_nocred","rt":8.743,"response":0,"repeated":1,"trial":"NA"},{"":220,"subject":186,"statement_identifier":82,"presentation_identifier":1,"within_identifier":1,"between_identifier":"att_nocred","rt":8.592,"response":0,"repeated":0,"trial":"NA"},{"":221,"subject":186,"statement_identifier":100,"presentation_identifier":1,"within_identifier":1,"between_identifier":"att_nocred","rt":4.464,"response":1,"repeated":0,"trial":"NA"},{"":222,"subject":186,"statement_identifier":101,"presentation_identifier":1,"within_identifier":1,"between_identifier":"att_nocred","rt":5.936,"response":1,"repeated":0,"trial":"NA"},{"":223,"subject":186,"statement_identifier":110,"presentation_identifier":1,"within_identifier":1,"between_identifier":"att_nocred","rt":6.018,"response":1,"repeated":1,"trial":"NA"},{"":224,"subject":186,"statement_identifier":83,"presentation_identifier":1,"within_identifier":1,"between_identifier":"att_nocred","rt":8.958,"response":0,"repeated":0,"trial":"NA"},{"":225,"subject":188,"statement_identifier":1,"presentation_identifier":1,"within_identifier":1,"between_identifier":"att_nocred","rt":1.726,"response":1,"repeated":1,"trial":"NA"},{"":226,"subject":188,"statement_identifier":58,"presentation_identifier":1,"within_identifier":1,"between_identifier":"att_nocred","rt":2.354,"response":1,"repeated":1,"trial":"NA"},{"":227,"subject":188,"statement_identifier":3,"presentation_identifier":1,"within_identifier":1,"between_identifier":"att_nocred","rt":1.832,"response":1,"repeated":1,"trial":"NA"},{"":228,"subject":188,"statement_identifier":60,"presentation_identifier":1,"within_identifier":1,"between_identifier":"att_nocred","rt":5.243,"response":0,"repeated":0,"trial":"NA"},{"":229,"subject":188,"statement_identifier":5,"presentation_identifier":1,"within_identifier":1,"between_identifier":"att_nocred","rt":8.764,"response":0,"repeated":1,"trial":"NA"},{"":230,"subject":188,"statement_identifier":6,"presentation_identifier":1,"within_identifier":1,"between_identifier":"att_nocred","rt":1.699,"response":1,"repeated":1,"trial":"NA"},{"":231,"subject":188,"statement_identifier":7,"presentation_identifier":1,"within_identifier":1,"between_identifier":"att_nocred","rt":11.316,"response":0,"repeated":0,"trial":"NA"},{"":232,"subject":188,"statement_identifier":8,"presentation_identifier":1,"within_identifier":1,"between_identifier":"att_nocred","rt":4.911,"response":1,"repeated":0,"trial":"NA"},{"":233,"subject":188,"statement_identifier":9,"presentation_identifier":1,"within_identifier":1,"between_identifier":"att_nocred","rt":2.909,"response":0,"repeated":0,"trial":"NA"},{"":234,"subject":188,"statement_identifier":10,"presentation_identifier":1,"within_identifier":1,"between_identifier":"att_nocred","rt":2.423,"response":1,"repeated":0,"trial":"NA"},{"":235,"subject":188,"statement_identifier":85,"presentation_identifier":1,"within_identifier":1,"between_identifier":"att_nocred","rt":5.645,"response":1,"repeated":0,"trial":"NA"},{"":236,"subject":188,"statement_identifier":103,"presentation_identifier":1,"within_identifier":1,"between_identifier":"att_nocred","rt":3.501,"response":1,"repeated":0,"trial":"NA"},{"":237,"subject":188,"statement_identifier":64,"presentation_identifier":1,"within_identifier":1,"between_identifier":"att_nocred","rt":3.669,"response":0,"repeated":0,"trial":"NA"},{"":238,"subject":188,"statement_identifier":65,"presentation_identifier":1,"within_identifier":1,"between_identifier":"att_nocred","rt":1.085,"response":1,"repeated":1,"trial":"NA"},{"":239,"subject":188,"statement_identifier":104,"presentation_identifier":1,"within_identifier":1,"between_identifier":"att_nocred","rt":4.811,"response":0,"repeated":1,"trial":"NA"},{"":240,"subject":188,"statement_identifier":16,"presentation_identifier":1,"within_identifier":1,"between_identifier":"att_nocred","rt":3.52,"response":0,"repeated":0,"trial":"NA"},{"":241,"subject":188,"statement_identifier":87,"presentation_identifier":1,"within_identifier":1,"between_identifier":"att_nocred","rt":6.215,"response":0,"repeated":0,"trial":"NA"},{"":242,"subject":188,"statement_identifier":68,"presentation_identifier":1,"within_identifier":1,"between_identifier":"att_nocred","rt":1.248,"response":1,"repeated":1,"trial":"NA"},{"":243,"subject":188,"statement_identifier":20,"presentation_identifier":1,"within_identifier":1,"between_identifier":"att_nocred","rt":3.652,"response":1,"repeated":0,"trial":"NA"},{"":244,"subject":188,"statement_identifier":69,"presentation_identifier":1,"within_identifier":1,"between_identifier":"att_nocred","rt":3.485,"response":1,"repeated":0,"trial":"NA"},{"":245,"subject":188,"statement_identifier":22,"presentation_identifier":1,"within_identifier":1,"between_identifier":"att_nocred","rt":3.389,"response":1,"repeated":0,"trial":"NA"},{"":246,"subject":188,"statement_identifier":23,"presentation_identifier":1,"within_identifier":1,"between_identifier":"att_nocred","rt":6.629,"response":1,"repeated":1,"trial":"NA"},{"":247,"subject":188,"statement_identifier":71,"presentation_identifier":1,"within_identifier":1,"between_identifier":"att_nocred","rt":10.633,"response":0,"repeated":0,"trial":"NA"},{"":248,"subject":188,"statement_identifier":25,"presentation_identifier":1,"within_identifier":1,"between_identifier":"att_nocred","rt":9.709,"response":0,"repeated":1,"trial":"NA"},{"":249,"subject":188,"statement_identifier":89,"presentation_identifier":1,"within_identifier":1,"between_identifier":"att_nocred","rt":5.479,"response":1,"repeated":1,"trial":"NA"},{"":250,"subject":188,"statement_identifier":73,"presentation_identifier":1,"within_identifier":1,"between_identifier":"att_nocred","rt":5.755,"response":0,"repeated":1,"trial":"NA"},{"":251,"subject":188,"statement_identifier":26,"presentation_identifier":1,"within_identifier":1,"between_identifier":"att_nocred","rt":9.542,"response":0,"repeated":0,"trial":"NA"},{"":252,"subject":188,"statement_identifier":27,"presentation_identifier":1,"within_identifier":1,"between_identifier":"att_nocred","rt":10.856,"response":1,"repeated":1,"trial":"NA"},{"":253,"subject":188,"statement_identifier":111,"presentation_identifier":1,"within_identifier":1,"between_identifier":"att_nocred","rt":7.179,"response":0,"repeated":0,"trial":"NA"},{"":254,"subject":188,"statement_identifier":106,"presentation_identifier":1,"within_identifier":1,"between_identifier":"att_nocred","rt":2.434,"response":1,"repeated":1,"trial":"NA"},{"":255,"subject":188,"statement_identifier":107,"presentation_identifier":1,"within_identifier":1,"between_identifier":"att_nocred","rt":6.012,"response":1,"repeated":0,"trial":"NA"},{"":256,"subject":188,"statement_identifier":112,"presentation_identifier":1,"within_identifier":1,"between_identifier":"att_nocred","rt":11.877,"response":0,"repeated":1,"trial":"NA"},{"":257,"subject":188,"statement_identifier":32,"presentation_identifier":1,"within_identifier":1,"between_identifier":"att_nocred","rt":2.655,"response":1,"repeated":1,"trial":"NA"},{"":258,"subject":188,"statement_identifier":33,"presentation_identifier":1,"within_identifier":1,"between_identifier":"att_nocred","rt":5.039,"response":1,"repeated":1,"trial":"NA"},{"":259,"subject":188,"statement_identifier":113,"presentation_identifier":1,"within_identifier":1,"between_identifier":"att_nocred","rt":4.287,"response":1,"repeated":0,"trial":"NA"},{"":260,"subject":188,"statement_identifier":114,"presentation_identifier":1,"within_identifier":1,"between_identifier":"att_nocred","rt":3.886,"response":1,"repeated":0,"trial":"NA"},{"":261,"subject":188,"statement_identifier":36,"presentation_identifier":1,"within_identifier":1,"between_identifier":"att_nocred","rt":1.912,"response":1,"repeated":1,"trial":"NA"},{"":262,"subject":188,"statement_identifier":77,"presentation_identifier":1,"within_identifier":1,"between_identifier":"att_nocred","rt":8.087,"response":1,"repeated":0,"trial":"NA"},{"":263,"subject":188,"statement_identifier":92,"presentation_identifier":1,"within_identifier":1,"between_identifier":"att_nocred","rt":9.27,"response":0,"repeated":0,"trial":"NA"},{"":264,"subject":188,"statement_identifier":93,"presentation_identifier":1,"within_identifier":1,"between_identifier":"att_nocred","rt":2.4,"response":1,"repeated":1,"trial":"NA"},{"":265,"subject":188,"statement_identifier":94,"presentation_identifier":1,"within_identifier":1,"between_identifier":"att_nocred","rt":4.344,"response":1,"repeated":0,"trial":"NA"},{"":266,"subject":188,"statement_identifier":42,"presentation_identifier":1,"within_identifier":1,"between_identifier":"att_nocred","rt":2.93,"response":1,"repeated":0,"trial":"NA"},{"":267,"subject":188,"statement_identifier":43,"presentation_identifier":1,"within_identifier":1,"between_identifier":"att_nocred","rt":1.565,"response":1,"repeated":1,"trial":"NA"},{"":268,"subject":188,"statement_identifier":95,"presentation_identifier":1,"within_identifier":1,"between_identifier":"att_nocred","rt":4.514,"response":1,"repeated":1,"trial":"NA"},{"":269,"subject":188,"statement_identifier":44,"presentation_identifier":1,"within_identifier":1,"between_identifier":"att_nocred","rt":3.228,"response":1,"repeated":1,"trial":"NA"},{"":270,"subject":188,"statement_identifier":45,"presentation_identifier":1,"within_identifier":1,"between_identifier":"att_nocred","rt":9.383,"response":1,"repeated":0,"trial":"NA"},{"":271,"subject":188,"statement_identifier":80,"presentation_identifier":1,"within_identifier":1,"between_identifier":"att_nocred","rt":4.601,"response":1,"repeated":1,"trial":"NA"},{"":272,"subject":188,"statement_identifier":109,"presentation_identifier":1,"within_identifier":1,"between_identifier":"att_nocred","rt":4.063,"response":1,"repeated":0,"trial":"NA"},{"":273,"subject":188,"statement_identifier":81,"presentation_identifier":1,"within_identifier":1,"between_identifier":"att_nocred","rt":7.518,"response":0,"repeated":0,"trial":"NA"},{"":274,"subject":188,"statement_identifier":96,"presentation_identifier":1,"within_identifier":1,"between_identifier":"att_nocred","rt":1.647,"response":1,"repeated":1,"trial":"NA"},{"":275,"subject":188,"statement_identifier":51,"presentation_identifier":1,"within_identifier":1,"between_identifier":"att_nocred","rt":4.573,"response":0,"repeated":0,"trial":"NA"},{"":276,"subject":188,"statement_identifier":53,"presentation_identifier":1,"within_identifier":1,"between_identifier":"att_nocred","rt":2.077,"response":1,"repeated":1,"trial":"NA"},{"":277,"subject":188,"statement_identifier":100,"presentation_identifier":1,"within_identifier":1,"between_identifier":"att_nocred","rt":1.33,"response":1,"repeated":1,"trial":"NA"},{"":278,"subject":188,"statement_identifier":55,"presentation_identifier":1,"within_identifier":1,"between_identifier":"att_nocred","rt":5.534,"response":0,"repeated":0,"trial":"NA"},{"":279,"subject":188,"statement_identifier":56,"presentation_identifier":1,"within_identifier":1,"between_identifier":"att_nocred","rt":1.821,"response":1,"repeated":1,"trial":"NA"},{"":280,"subject":188,"statement_identifier":83,"presentation_identifier":1,"within_identifier":1,"between_identifier":"att_nocred","rt":5.956,"response":0,"repeated":1,"trial":"NA"},{"":281,"subject":189,"statement_identifier":57,"presentation_identifier":1,"within_identifier":1,"between_identifier":"noatt_cred","rt":12.158,"response":0,"repeated":1,"trial":"NA"},{"":282,"subject":189,"statement_identifier":2,"presentation_identifier":1,"within_identifier":1,"between_identifier":"noatt_cred","rt":3.697,"response":0,"repeated":1,"trial":"NA"},{"":283,"subject":189,"statement_identifier":3,"presentation_identifier":1,"within_identifier":1,"between_identifier":"noatt_cred","rt":15.944,"response":0,"repeated":0,"trial":"NA"},{"":284,"subject":189,"statement_identifier":4,"presentation_identifier":1,"within_identifier":1,"between_identifier":"noatt_cred","rt":5.13,"response":0,"repeated":1,"trial":"NA"},{"":285,"subject":189,"statement_identifier":61,"presentation_identifier":1,"within_identifier":1,"between_identifier":"noatt_cred","rt":12.051,"response":1,"repeated":1,"trial":"NA"},{"":286,"subject":189,"statement_identifier":6,"presentation_identifier":1,"within_identifier":1,"between_identifier":"noatt_cred","rt":4.407,"response":0,"repeated":0,"trial":"NA"},{"":287,"subject":189,"statement_identifier":62,"presentation_identifier":1,"within_identifier":1,"between_identifier":"noatt_cred","rt":7.51,"response":0,"repeated":1,"trial":"NA"},{"":288,"subject":189,"statement_identifier":8,"presentation_identifier":1,"within_identifier":1,"between_identifier":"noatt_cred","rt":2.87,"response":0,"repeated":0,"trial":"NA"},{"":289,"subject":189,"statement_identifier":9,"presentation_identifier":1,"within_identifier":1,"between_identifier":"noatt_cred","rt":6.593,"response":1,"repeated":0,"trial":"NA"},{"":290,"subject":189,"statement_identifier":102,"presentation_identifier":1,"within_identifier":1,"between_identifier":"noatt_cred","rt":3.825,"response":0,"repeated":1,"trial":"NA"},{"":291,"subject":189,"statement_identifier":11,"presentation_identifier":1,"within_identifier":1,"between_identifier":"noatt_cred","rt":16.363,"response":0,"repeated":0,"trial":"NA"},{"":292,"subject":189,"statement_identifier":64,"presentation_identifier":1,"within_identifier":1,"between_identifier":"noatt_cred","rt":8.551,"response":0,"repeated":0,"trial":"NA"},{"":293,"subject":189,"statement_identifier":65,"presentation_identifier":1,"within_identifier":1,"between_identifier":"noatt_cred","rt":8.346,"response":1,"repeated":0,"trial":"NA"},{"":294,"subject":189,"statement_identifier":15,"presentation_identifier":1,"within_identifier":1,"between_identifier":"noatt_cred","rt":3.813,"response":1,"repeated":0,"trial":"NA"},{"":295,"subject":189,"statement_identifier":66,"presentation_identifier":1,"within_identifier":1,"between_identifier":"noatt_cred","rt":7.91,"response":0,"repeated":1,"trial":"NA"},{"":296,"subject":189,"statement_identifier":67,"presentation_identifier":1,"within_identifier":1,"between_identifier":"noatt_cred","rt":5.443,"response":1,"repeated":0,"trial":"NA"},{"":297,"subject":189,"statement_identifier":19,"presentation_identifier":1,"within_identifier":1,"between_identifier":"noatt_cred","rt":8.371,"response":0,"repeated":0,"trial":"NA"},{"":298,"subject":189,"statement_identifier":20,"presentation_identifier":1,"within_identifier":1,"between_identifier":"noatt_cred","rt":4.319,"response":0,"repeated":1,"trial":"NA"},{"":299,"subject":189,"statement_identifier":21,"presentation_identifier":1,"within_identifier":1,"between_identifier":"noatt_cred","rt":8.724,"response":0,"repeated":1,"trial":"NA"},{"":300,"subject":189,"statement_identifier":70,"presentation_identifier":1,"within_identifier":1,"between_identifier":"noatt_cred","rt":4.347,"response":1,"repeated":1,"trial":"NA"},{"":301,"subject":189,"statement_identifier":115,"presentation_identifier":1,"within_identifier":1,"between_identifier":"noatt_cred","rt":12.009,"response":1,"repeated":0,"trial":"NA"},{"":302,"subject":189,"statement_identifier":24,"presentation_identifier":1,"within_identifier":1,"between_identifier":"noatt_cred","rt":9.906,"response":0,"repeated":0,"trial":"NA"},{"":303,"subject":189,"statement_identifier":25,"presentation_identifier":1,"within_identifier":1,"between_identifier":"noatt_cred","rt":7.573,"response":1,"repeated":1,"trial":"NA"},{"":304,"subject":189,"statement_identifier":89,"presentation_identifier":1,"within_identifier":1,"between_identifier":"noatt_cred","rt":24.128,"response":0,"repeated":0,"trial":"NA"},{"":305,"subject":189,"statement_identifier":73,"presentation_identifier":1,"within_identifier":1,"between_identifier":"noatt_cred","rt":2.674,"response":1,"repeated":1,"trial":"NA"},{"":306,"subject":189,"statement_identifier":26,"presentation_identifier":1,"within_identifier":1,"between_identifier":"noatt_cred","rt":4.857,"response":1,"repeated":0,"trial":"NA"},{"":307,"subject":189,"statement_identifier":74,"presentation_identifier":1,"within_identifier":1,"between_identifier":"noatt_cred","rt":12.337,"response":0,"repeated":1,"trial":"NA"},{"":308,"subject":189,"statement_identifier":111,"presentation_identifier":1,"within_identifier":1,"between_identifier":"noatt_cred","rt":5.828,"response":0,"repeated":0,"trial":"NA"},{"":309,"subject":189,"statement_identifier":106,"presentation_identifier":1,"within_identifier":1,"between_identifier":"noatt_cred","rt":5.401,"response":1,"repeated":1,"trial":"NA"},{"":310,"subject":189,"statement_identifier":107,"presentation_identifier":1,"within_identifier":1,"between_identifier":"noatt_cred","rt":14.258,"response":1,"repeated":0,"trial":"NA"},{"":311,"subject":189,"statement_identifier":31,"presentation_identifier":1,"within_identifier":1,"between_identifier":"noatt_cred","rt":7.192,"response":0,"repeated":1,"trial":"NA"},{"":312,"subject":189,"statement_identifier":75,"presentation_identifier":1,"within_identifier":1,"between_identifier":"noatt_cred","rt":3.403,"response":0,"repeated":0,"trial":"NA"},{"":313,"subject":189,"statement_identifier":90,"presentation_identifier":1,"within_identifier":1,"between_identifier":"noatt_cred","rt":3.094,"response":1,"repeated":1,"trial":"NA"},{"":314,"subject":189,"statement_identifier":113,"presentation_identifier":1,"within_identifier":1,"between_identifier":"noatt_cred","rt":7.295,"response":1,"repeated":0,"trial":"NA"},{"":315,"subject":189,"statement_identifier":114,"presentation_identifier":1,"within_identifier":1,"between_identifier":"noatt_cred","rt":3.61,"response":1,"repeated":1,"trial":"NA"},{"":316,"subject":189,"statement_identifier":36,"presentation_identifier":1,"within_identifier":1,"between_identifier":"noatt_cred","rt":7.991,"response":1,"repeated":1,"trial":"NA"},{"":317,"subject":189,"statement_identifier":77,"presentation_identifier":1,"within_identifier":1,"between_identifier":"noatt_cred","rt":13.097,"response":1,"repeated":0,"trial":"NA"},{"":318,"subject":189,"statement_identifier":39,"presentation_identifier":1,"within_identifier":1,"between_identifier":"noatt_cred","rt":19.436,"response":1,"repeated":0,"trial":"NA"},{"":319,"subject":189,"statement_identifier":40,"presentation_identifier":1,"within_identifier":1,"between_identifier":"noatt_cred","rt":2.466,"response":0,"repeated":1,"trial":"NA"},{"":320,"subject":189,"statement_identifier":41,"presentation_identifier":1,"within_identifier":1,"between_identifier":"noatt_cred","rt":5.371,"response":0,"repeated":0,"trial":"NA"},{"":321,"subject":189,"statement_identifier":42,"presentation_identifier":1,"within_identifier":1,"between_identifier":"noatt_cred","rt":7.275,"response":1,"repeated":0,"trial":"NA"},{"":322,"subject":189,"statement_identifier":108,"presentation_identifier":1,"within_identifier":1,"between_identifier":"noatt_cred","rt":3.954,"response":1,"repeated":0,"trial":"NA"},{"":323,"subject":189,"statement_identifier":45,"presentation_identifier":1,"within_identifier":1,"between_identifier":"noatt_cred","rt":11.765,"response":0,"repeated":0,"trial":"NA"},{"":324,"subject":189,"statement_identifier":79,"presentation_identifier":1,"within_identifier":1,"between_identifier":"noatt_cred","rt":12.312,"response":0,"repeated":1,"trial":"NA"},{"":325,"subject":189,"statement_identifier":46,"presentation_identifier":1,"within_identifier":1,"between_identifier":"noatt_cred","rt":4.255,"response":1,"repeated":1,"trial":"NA"},{"":326,"subject":189,"statement_identifier":47,"presentation_identifier":1,"within_identifier":1,"between_identifier":"noatt_cred","rt":5.268,"response":1,"repeated":1,"trial":"NA"},{"":327,"subject":189,"statement_identifier":48,"presentation_identifier":1,"within_identifier":1,"between_identifier":"noatt_cred","rt":13.213,"response":0,"repeated":0,"trial":"NA"},{"":328,"subject":189,"statement_identifier":81,"presentation_identifier":1,"within_identifier":1,"between_identifier":"noatt_cred","rt":4.487,"response":1,"repeated":1,"trial":"NA"},{"":329,"subject":189,"statement_identifier":50,"presentation_identifier":1,"within_identifier":1,"between_identifier":"noatt_cred","rt":20.873,"response":0,"repeated":1,"trial":"NA"},{"":330,"subject":189,"statement_identifier":51,"presentation_identifier":1,"within_identifier":1,"between_identifier":"noatt_cred","rt":15.848,"response":1,"repeated":1,"trial":"NA"},{"":331,"subject":189,"statement_identifier":98,"presentation_identifier":1,"within_identifier":1,"between_identifier":"noatt_cred","rt":11.004,"response":0,"repeated":1,"trial":"NA"},{"":332,"subject":189,"statement_identifier":82,"presentation_identifier":1,"within_identifier":1,"between_identifier":"noatt_cred","rt":8.107,"response":0,"repeated":0,"trial":"NA"},{"":333,"subject":189,"statement_identifier":54,"presentation_identifier":1,"within_identifier":1,"between_identifier":"noatt_cred","rt":2.296,"response":1,"repeated":1,"trial":"NA"},{"":334,"subject":189,"statement_identifier":101,"presentation_identifier":1,"within_identifier":1,"between_identifier":"noatt_cred","rt":10.235,"response":1,"repeated":0,"trial":"NA"},{"":335,"subject":189,"statement_identifier":110,"presentation_identifier":1,"within_identifier":1,"between_identifier":"noatt_cred","rt":16.684,"response":1,"repeated":1,"trial":"NA"},{"":336,"subject":189,"statement_identifier":116,"presentation_identifier":1,"within_identifier":1,"between_identifier":"noatt_cred","rt":4.722,"response":1,"repeated":0,"trial":"NA"},{"":337,"subject":19,"statement_identifier":1,"presentation_identifier":1,"within_identifier":1,"between_identifier":"att_nocred","rt":12.223,"response":0,"repeated":0,"trial":"NA"},{"":338,"subject":19,"statement_identifier":58,"presentation_identifier":1,"within_identifier":1,"between_identifier":"att_nocred","rt":6.85,"response":0,"repeated":1,"trial":"NA"},{"":339,"subject":19,"statement_identifier":3,"presentation_identifier":1,"within_identifier":1,"between_identifier":"att_nocred","rt":5.685,"response":1,"repeated":1,"trial":"NA"},{"":340,"subject":19,"statement_identifier":60,"presentation_identifier":1,"within_identifier":1,"between_identifier":"att_nocred","rt":8.25,"response":0,"repeated":0,"trial":"NA"},{"":341,"subject":19,"statement_identifier":5,"presentation_identifier":1,"within_identifier":1,"between_identifier":"att_nocred","rt":5.97,"response":1,"repeated":1,"trial":"NA"},{"":342,"subject":19,"statement_identifier":6,"presentation_identifier":1,"within_identifier":1,"between_identifier":"att_nocred","rt":8.095,"response":0,"repeated":1,"trial":"NA"},{"":343,"subject":19,"statement_identifier":62,"presentation_identifier":1,"within_identifier":1,"between_identifier":"att_nocred","rt":3.419,"response":1,"repeated":1,"trial":"NA"},{"":344,"subject":19,"statement_identifier":8,"presentation_identifier":1,"within_identifier":1,"between_identifier":"att_nocred","rt":6.234,"response":0,"repeated":1,"trial":"NA"},{"":345,"subject":19,"statement_identifier":63,"presentation_identifier":1,"within_identifier":1,"between_identifier":"att_nocred","rt":4.628,"response":1,"repeated":0,"trial":"NA"},{"":346,"subject":19,"statement_identifier":10,"presentation_identifier":1,"within_identifier":1,"between_identifier":"att_nocred","rt":4.77,"response":1,"repeated":1,"trial":"NA"},{"":347,"subject":19,"statement_identifier":85,"presentation_identifier":1,"within_identifier":1,"between_identifier":"att_nocred","rt":7.051,"response":1,"repeated":1,"trial":"NA"},{"":348,"subject":19,"statement_identifier":103,"presentation_identifier":1,"within_identifier":1,"between_identifier":"att_nocred","rt":12.637,"response":1,"repeated":1,"trial":"NA"},{"":349,"subject":19,"statement_identifier":64,"presentation_identifier":1,"within_identifier":1,"between_identifier":"att_nocred","rt":17.523,"response":1,"repeated":0,"trial":"NA"},{"":350,"subject":19,"statement_identifier":65,"presentation_identifier":1,"within_identifier":1,"between_identifier":"att_nocred","rt":4.368,"response":0,"repeated":0,"trial":"NA"},{"":351,"subject":19,"statement_identifier":86,"presentation_identifier":1,"within_identifier":1,"between_identifier":"att_nocred","rt":4.507,"response":1,"repeated":0,"trial":"NA"},{"":352,"subject":19,"statement_identifier":15,"presentation_identifier":1,"within_identifier":1,"between_identifier":"att_nocred","rt":1.902,"response":1,"repeated":1,"trial":"NA"},{"":353,"subject":19,"statement_identifier":16,"presentation_identifier":1,"within_identifier":1,"between_identifier":"att_nocred","rt":11.943,"response":0,"repeated":0,"trial":"NA"},{"":354,"subject":19,"statement_identifier":17,"presentation_identifier":1,"within_identifier":1,"between_identifier":"att_nocred","rt":4.515,"response":1,"repeated":1,"trial":"NA"},{"":355,"subject":19,"statement_identifier":67,"presentation_identifier":1,"within_identifier":1,"between_identifier":"att_nocred","rt":6.061,"response":0,"repeated":0,"trial":"NA"},{"":356,"subject":19,"statement_identifier":68,"presentation_identifier":1,"within_identifier":1,"between_identifier":"att_nocred","rt":4.466,"response":0,"repeated":0,"trial":"NA"},{"":357,"subject":19,"statement_identifier":105,"presentation_identifier":1,"within_identifier":1,"between_identifier":"att_nocred","rt":5.326,"response":1,"repeated":1,"trial":"NA"},{"":358,"subject":19,"statement_identifier":21,"presentation_identifier":1,"within_identifier":1,"between_identifier":"att_nocred","rt":8.584,"response":1,"repeated":1,"trial":"NA"},{"":359,"subject":19,"statement_identifier":22,"presentation_identifier":1,"within_identifier":1,"between_identifier":"att_nocred","rt":4.995,"response":0,"repeated":1,"trial":"NA"},{"":360,"subject":19,"statement_identifier":115,"presentation_identifier":1,"within_identifier":1,"between_identifier":"att_nocred","rt":7.415,"response":1,"repeated":0,"trial":"NA"},{"":361,"subject":19,"statement_identifier":24,"presentation_identifier":1,"within_identifier":1,"between_identifier":"att_nocred","rt":4.778,"response":0,"repeated":0,"trial":"NA"},{"":362,"subject":19,"statement_identifier":88,"presentation_identifier":1,"within_identifier":1,"between_identifier":"att_nocred","rt":6.909,"response":1,"repeated":0,"trial":"NA"},{"":363,"subject":19,"statement_identifier":89,"presentation_identifier":1,"within_identifier":1,"between_identifier":"att_nocred","rt":19.108,"response":0,"repeated":0,"trial":"NA"},{"":364,"subject":19,"statement_identifier":117,"presentation_identifier":1,"within_identifier":1,"between_identifier":"att_nocred","rt":6.701,"response":0,"repeated":1,"trial":"NA"},{"":365,"subject":19,"statement_identifier":26,"presentation_identifier":1,"within_identifier":1,"between_identifier":"att_nocred","rt":3.196,"response":1,"repeated":1,"trial":"NA"},{"":366,"subject":19,"statement_identifier":74,"presentation_identifier":1,"within_identifier":1,"between_identifier":"att_nocred","rt":6.548,"response":0,"repeated":0,"trial":"NA"},{"":367,"subject":19,"statement_identifier":28,"presentation_identifier":1,"within_identifier":1,"between_identifier":"att_nocred","rt":6.81,"response":0,"repeated":0,"trial":"NA"},{"":368,"subject":19,"statement_identifier":29,"presentation_identifier":1,"within_identifier":1,"between_identifier":"att_nocred","rt":1.78,"response":1,"repeated":1,"trial":"NA"},{"":369,"subject":19,"statement_identifier":107,"presentation_identifier":1,"within_identifier":1,"between_identifier":"att_nocred","rt":23.249,"response":1,"repeated":0,"trial":"NA"},{"":370,"subject":19,"statement_identifier":31,"presentation_identifier":1,"within_identifier":1,"between_identifier":"att_nocred","rt":3.224,"response":1,"repeated":1,"trial":"NA"},{"":371,"subject":19,"statement_identifier":32,"presentation_identifier":1,"within_identifier":1,"between_identifier":"att_nocred","rt":8.832,"response":0,"repeated":0,"trial":"NA"},{"":372,"subject":19,"statement_identifier":33,"presentation_identifier":1,"within_identifier":1,"between_identifier":"att_nocred","rt":3.675,"response":1,"repeated":1,"trial":"NA"},{"":373,"subject":19,"statement_identifier":113,"presentation_identifier":1,"within_identifier":1,"between_identifier":"att_nocred","rt":6.235,"response":0,"repeated":1,"trial":"NA"},{"":374,"subject":19,"statement_identifier":114,"presentation_identifier":1,"within_identifier":1,"between_identifier":"att_nocred","rt":2.749,"response":1,"repeated":1,"trial":"NA"},{"":375,"subject":19,"statement_identifier":36,"presentation_identifier":1,"within_identifier":1,"between_identifier":"att_nocred","rt":3.245,"response":1,"repeated":1,"trial":"NA"},{"":376,"subject":19,"statement_identifier":37,"presentation_identifier":1,"within_identifier":1,"between_identifier":"att_nocred","rt":4.884,"response":1,"repeated":1,"trial":"NA"},{"":377,"subject":19,"statement_identifier":91,"presentation_identifier":1,"within_identifier":1,"between_identifier":"att_nocred","rt":2.714,"response":1,"repeated":1,"trial":"NA"},{"":378,"subject":19,"statement_identifier":92,"presentation_identifier":1,"within_identifier":1,"between_identifier":"att_nocred","rt":3.599,"response":0,"repeated":0,"trial":"NA"},{"":379,"subject":19,"statement_identifier":93,"presentation_identifier":1,"within_identifier":1,"between_identifier":"att_nocred","rt":3.132,"response":0,"repeated":0,"trial":"NA"},{"":380,"subject":19,"statement_identifier":94,"presentation_identifier":1,"within_identifier":1,"between_identifier":"att_nocred","rt":2.822,"response":0,"repeated":0,"trial":"NA"},{"":381,"subject":19,"statement_identifier":78,"presentation_identifier":1,"within_identifier":1,"between_identifier":"att_nocred","rt":10.508,"response":0,"repeated":1,"trial":"NA"},{"":382,"subject":19,"statement_identifier":43,"presentation_identifier":1,"within_identifier":1,"between_identifier":"att_nocred","rt":7.683,"response":1,"repeated":1,"trial":"NA"},{"":383,"subject":19,"statement_identifier":95,"presentation_identifier":1,"within_identifier":1,"between_identifier":"att_nocred","rt":5.129,"response":0,"repeated":0,"trial":"NA"},{"":384,"subject":19,"statement_identifier":80,"presentation_identifier":1,"within_identifier":1,"between_identifier":"att_nocred","rt":3.356,"response":0,"repeated":0,"trial":"NA"},{"":385,"subject":19,"statement_identifier":81,"presentation_identifier":1,"within_identifier":1,"between_identifier":"att_nocred","rt":7.687,"response":0,"repeated":0,"trial":"NA"},{"":386,"subject":19,"statement_identifier":50,"presentation_identifier":1,"within_identifier":1,"between_identifier":"att_nocred","rt":8.53,"response":0,"repeated":0,"trial":"NA"},{"":387,"subject":19,"statement_identifier":51,"presentation_identifier":1,"within_identifier":1,"between_identifier":"att_nocred","rt":7.274,"response":0,"repeated":0,"trial":"NA"},{"":388,"subject":19,"statement_identifier":53,"presentation_identifier":1,"within_identifier":1,"between_identifier":"att_nocred","rt":3.374,"response":1,"repeated":1,"trial":"NA"},{"":389,"subject":19,"statement_identifier":54,"presentation_identifier":1,"within_identifier":1,"between_identifier":"att_nocred","rt":3.605,"response":0,"repeated":0,"trial":"NA"},{"":390,"subject":19,"statement_identifier":101,"presentation_identifier":1,"within_identifier":1,"between_identifier":"att_nocred","rt":11.146,"response":1,"repeated":0,"trial":"NA"},{"":391,"subject":19,"statement_identifier":110,"presentation_identifier":1,"within_identifier":1,"between_identifier":"att_nocred","rt":7.926,"response":0,"repeated":1,"trial":"NA"},{"":392,"subject":19,"statement_identifier":83,"presentation_identifier":1,"within_identifier":1,"between_identifier":"att_nocred","rt":9.621,"response":0,"repeated":0,"trial":"NA"},{"":393,"subject":190,"statement_identifier":57,"presentation_identifier":1,"within_identifier":1,"between_identifier":"att_nocred","rt":2.265,"response":1,"repeated":0,"trial":"NA"},{"":394,"subject":190,"statement_identifier":58,"presentation_identifier":1,"within_identifier":1,"between_identifier":"att_nocred","rt":3.23,"response":0,"repeated":1,"trial":"NA"},{"":395,"subject":190,"statement_identifier":59,"presentation_identifier":1,"within_identifier":1,"between_identifier":"att_nocred","rt":4.972,"response":1,"repeated":1,"trial":"NA"},{"":396,"subject":190,"statement_identifier":4,"presentation_identifier":1,"within_identifier":1,"between_identifier":"att_nocred","rt":5.478,"response":1,"repeated":1,"trial":"NA"},{"":397,"subject":190,"statement_identifier":61,"presentation_identifier":1,"within_identifier":1,"between_identifier":"att_nocred","rt":9.914,"response":0,"repeated":1,"trial":"NA"},{"":398,"subject":190,"statement_identifier":84,"presentation_identifier":1,"within_identifier":1,"between_identifier":"att_nocred","rt":8.841,"response":1,"repeated":1,"trial":"NA"},{"":399,"subject":190,"statement_identifier":62,"presentation_identifier":1,"within_identifier":1,"between_identifier":"att_nocred","rt":3.248,"response":0,"repeated":0,"trial":"NA"},{"":400,"subject":190,"statement_identifier":8,"presentation_identifier":1,"within_identifier":1,"between_identifier":"att_nocred","rt":6.459,"response":0,"repeated":0,"trial":"NA"},{"":401,"subject":190,"statement_identifier":9,"presentation_identifier":1,"within_identifier":1,"between_identifier":"att_nocred","rt":7.517,"response":1,"repeated":1,"trial":"NA"},{"":402,"subject":190,"statement_identifier":102,"presentation_identifier":1,"within_identifier":1,"between_identifier":"att_nocred","rt":6.95,"response":0,"repeated":1,"trial":"NA"},{"":403,"subject":190,"statement_identifier":11,"presentation_identifier":1,"within_identifier":1,"between_identifier":"att_nocred","rt":8.315,"response":0,"repeated":0,"trial":"NA"},{"":404,"subject":190,"statement_identifier":12,"presentation_identifier":1,"within_identifier":1,"between_identifier":"att_nocred","rt":3,"response":1,"repeated":0,"trial":"NA"},{"":405,"subject":190,"statement_identifier":64,"presentation_identifier":1,"within_identifier":1,"between_identifier":"att_nocred","rt":5.757,"response":0,"repeated":1,"trial":"NA"},{"":406,"subject":190,"statement_identifier":65,"presentation_identifier":1,"within_identifier":1,"between_identifier":"att_nocred","rt":4.547,"response":1,"repeated":1,"trial":"NA"},{"":407,"subject":190,"statement_identifier":15,"presentation_identifier":1,"within_identifier":1,"between_identifier":"att_nocred","rt":3.092,"response":0,"repeated":0,"trial":"NA"},{"":408,"subject":190,"statement_identifier":66,"presentation_identifier":1,"within_identifier":1,"between_identifier":"att_nocred","rt":5.25,"response":1,"repeated":0,"trial":"NA"},{"":409,"subject":190,"statement_identifier":17,"presentation_identifier":1,"within_identifier":1,"between_identifier":"att_nocred","rt":2.881,"response":1,"repeated":1,"trial":"NA"},{"":410,"subject":190,"statement_identifier":18,"presentation_identifier":1,"within_identifier":1,"between_identifier":"att_nocred","rt":6.165,"response":0,"repeated":0,"trial":"NA"},{"":411,"subject":190,"statement_identifier":68,"presentation_identifier":1,"within_identifier":1,"between_identifier":"att_nocred","rt":3.672,"response":1,"repeated":0,"trial":"NA"},{"":412,"subject":190,"statement_identifier":20,"presentation_identifier":1,"within_identifier":1,"between_identifier":"att_nocred","rt":4.647,"response":1,"repeated":0,"trial":"NA"},{"":413,"subject":190,"statement_identifier":21,"presentation_identifier":1,"within_identifier":1,"between_identifier":"att_nocred","rt":5.173,"response":1,"repeated":0,"trial":"NA"},{"":414,"subject":190,"statement_identifier":70,"presentation_identifier":1,"within_identifier":1,"between_identifier":"att_nocred","rt":2.569,"response":1,"repeated":1,"trial":"NA"},{"":415,"subject":190,"statement_identifier":115,"presentation_identifier":1,"within_identifier":1,"between_identifier":"att_nocred","rt":14.691,"response":0,"repeated":0,"trial":"NA"},{"":416,"subject":190,"statement_identifier":24,"presentation_identifier":1,"within_identifier":1,"between_identifier":"att_nocred","rt":6.884,"response":0,"repeated":1,"trial":"NA"},{"":417,"subject":190,"statement_identifier":25,"presentation_identifier":1,"within_identifier":1,"between_identifier":"att_nocred","rt":6.022,"response":0,"repeated":1,"trial":"NA"},{"":418,"subject":190,"statement_identifier":89,"presentation_identifier":1,"within_identifier":1,"between_identifier":"att_nocred","rt":4.517,"response":1,"repeated":1,"trial":"NA"},{"":419,"subject":190,"statement_identifier":73,"presentation_identifier":1,"within_identifier":1,"between_identifier":"att_nocred","rt":5.645,"response":1,"repeated":1,"trial":"NA"},{"":420,"subject":190,"statement_identifier":118,"presentation_identifier":1,"within_identifier":1,"between_identifier":"att_nocred","rt":3.538,"response":0,"repeated":0,"trial":"NA"},{"":421,"subject":190,"statement_identifier":74,"presentation_identifier":1,"within_identifier":1,"between_identifier":"att_nocred","rt":4.928,"response":1,"repeated":0,"trial":"NA"},{"":422,"subject":190,"statement_identifier":111,"presentation_identifier":1,"within_identifier":1,"between_identifier":"att_nocred","rt":3.58,"response":0,"repeated":0,"trial":"NA"},{"":423,"subject":190,"statement_identifier":29,"presentation_identifier":1,"within_identifier":1,"between_identifier":"att_nocred","rt":2.722,"response":0,"repeated":1,"trial":"NA"},{"":424,"subject":190,"statement_identifier":107,"presentation_identifier":1,"within_identifier":1,"between_identifier":"att_nocred","rt":6.455,"response":1,"repeated":0,"trial":"NA"},{"":425,"subject":190,"statement_identifier":112,"presentation_identifier":1,"within_identifier":1,"between_identifier":"att_nocred","rt":4.373,"response":1,"repeated":1,"trial":"NA"},{"":426,"subject":190,"statement_identifier":75,"presentation_identifier":1,"within_identifier":1,"between_identifier":"att_nocred","rt":5.067,"response":1,"repeated":0,"trial":"NA"},{"":427,"subject":190,"statement_identifier":33,"presentation_identifier":1,"within_identifier":1,"between_identifier":"att_nocred","rt":3.506,"response":0,"repeated":0,"trial":"NA"},{"":428,"subject":190,"statement_identifier":34,"presentation_identifier":1,"within_identifier":1,"between_identifier":"att_nocred","rt":3.166,"response":0,"repeated":0,"trial":"NA"},{"":429,"subject":190,"statement_identifier":36,"presentation_identifier":1,"within_identifier":1,"between_identifier":"att_nocred","rt":4.815,"response":0,"repeated":1,"trial":"NA"},{"":430,"subject":190,"statement_identifier":37,"presentation_identifier":1,"within_identifier":1,"between_identifier":"att_nocred","rt":5.037,"response":0,"repeated":0,"trial":"NA"},{"":431,"subject":190,"statement_identifier":38,"presentation_identifier":1,"within_identifier":1,"between_identifier":"att_nocred","rt":2.024,"response":1,"repeated":1,"trial":"NA"},{"":432,"subject":190,"statement_identifier":39,"presentation_identifier":1,"within_identifier":1,"between_identifier":"att_nocred","rt":2.848,"response":1,"repeated":1,"trial":"NA"},{"":433,"subject":190,"statement_identifier":93,"presentation_identifier":1,"within_identifier":1,"between_identifier":"att_nocred","rt":2.969,"response":1,"repeated":0,"trial":"NA"},{"":434,"subject":190,"statement_identifier":41,"presentation_identifier":1,"within_identifier":1,"between_identifier":"att_nocred","rt":4.611,"response":1,"repeated":0,"trial":"NA"},{"":435,"subject":190,"statement_identifier":42,"presentation_identifier":1,"within_identifier":1,"between_identifier":"att_nocred","rt":6.469,"response":1,"repeated":1,"trial":"NA"},{"":436,"subject":190,"statement_identifier":43,"presentation_identifier":1,"within_identifier":1,"between_identifier":"att_nocred","rt":3.996,"response":1,"repeated":0,"trial":"NA"},{"":437,"subject":190,"statement_identifier":44,"presentation_identifier":1,"within_identifier":1,"between_identifier":"att_nocred","rt":3.118,"response":1,"repeated":1,"trial":"NA"},{"":438,"subject":190,"statement_identifier":80,"presentation_identifier":1,"within_identifier":1,"between_identifier":"att_nocred","rt":4.584,"response":0,"repeated":1,"trial":"NA"},{"":439,"subject":190,"statement_identifier":47,"presentation_identifier":1,"within_identifier":1,"between_identifier":"att_nocred","rt":4.317,"response":1,"repeated":0,"trial":"NA"},{"":440,"subject":190,"statement_identifier":48,"presentation_identifier":1,"within_identifier":1,"between_identifier":"att_nocred","rt":8.777,"response":1,"repeated":1,"trial":"NA"},{"":441,"subject":190,"statement_identifier":96,"presentation_identifier":1,"within_identifier":1,"between_identifier":"att_nocred","rt":6.203,"response":1,"repeated":1,"trial":"NA"},{"":442,"subject":190,"statement_identifier":97,"presentation_identifier":1,"within_identifier":1,"between_identifier":"att_nocred","rt":7.685,"response":0,"repeated":0,"trial":"NA"},{"":443,"subject":190,"statement_identifier":52,"presentation_identifier":1,"within_identifier":1,"between_identifier":"att_nocred","rt":5.482,"response":1,"repeated":1,"trial":"NA"},{"":444,"subject":190,"statement_identifier":82,"presentation_identifier":1,"within_identifier":1,"between_identifier":"att_nocred","rt":6.941,"response":0,"repeated":0,"trial":"NA"},{"":445,"subject":190,"statement_identifier":54,"presentation_identifier":1,"within_identifier":1,"between_identifier":"att_nocred","rt":3.388,"response":0,"repeated":1,"trial":"NA"},{"":446,"subject":190,"statement_identifier":55,"presentation_identifier":1,"within_identifier":1,"between_identifier":"att_nocred","rt":4.509,"response":0,"repeated":0,"trial":"NA"},{"":447,"subject":190,"statement_identifier":110,"presentation_identifier":1,"within_identifier":1,"between_identifier":"att_nocred","rt":5.561,"response":0,"repeated":0,"trial":"NA"},{"":448,"subject":190,"statement_identifier":116,"presentation_identifier":1,"within_identifier":1,"between_identifier":"att_nocred","rt":7.287,"response":1,"repeated":1,"trial":"NA"},{"":449,"subject":191,"statement_identifier":1,"presentation_identifier":1,"within_identifier":1,"between_identifier":"att_cred","rt":4.044,"response":1,"repeated":0,"trial":"NA"},{"":450,"subject":191,"statement_identifier":2,"presentation_identifier":1,"within_identifier":1,"between_identifier":"att_cred","rt":1.426,"response":0,"repeated":1,"trial":"NA"},{"":451,"subject":191,"statement_identifier":3,"presentation_identifier":1,"within_identifier":1,"between_identifier":"att_cred","rt":6.593,"response":1,"repeated":0,"trial":"NA"},{"":452,"subject":191,"statement_identifier":60,"presentation_identifier":1,"within_identifier":1,"between_identifier":"att_cred","rt":2.233,"response":1,"repeated":0,"trial":"NA"},{"":453,"subject":191,"statement_identifier":61,"presentation_identifier":1,"within_identifier":1,"between_identifier":"att_cred","rt":4.741,"response":1,"repeated":0,"trial":"NA"},{"":454,"subject":191,"statement_identifier":6,"presentation_identifier":1,"within_identifier":1,"between_identifier":"att_cred","rt":3.76,"response":0,"repeated":1,"trial":"NA"},{"":455,"subject":191,"statement_identifier":7,"presentation_identifier":1,"within_identifier":1,"between_identifier":"att_cred","rt":3.68,"response":1,"repeated":1,"trial":"NA"},{"":456,"subject":191,"statement_identifier":9,"presentation_identifier":1,"within_identifier":1,"between_identifier":"att_cred","rt":5.179,"response":1,"repeated":1,"trial":"NA"},{"":457,"subject":191,"statement_identifier":10,"presentation_identifier":1,"within_identifier":1,"between_identifier":"att_cred","rt":1.732,"response":1,"repeated":0,"trial":"NA"},{"":458,"subject":191,"statement_identifier":11,"presentation_identifier":1,"within_identifier":1,"between_identifier":"att_cred","rt":8.795,"response":0,"repeated":0,"trial":"NA"},{"":459,"subject":191,"statement_identifier":12,"presentation_identifier":1,"within_identifier":1,"between_identifier":"att_cred","rt":3.002,"response":0,"repeated":0,"trial":"NA"},{"":460,"subject":191,"statement_identifier":64,"presentation_identifier":1,"within_identifier":1,"between_identifier":"att_cred","rt":3.619,"response":1,"repeated":1,"trial":"NA"},{"":461,"subject":191,"statement_identifier":65,"presentation_identifier":1,"within_identifier":1,"between_identifier":"att_cred","rt":2.491,"response":1,"repeated":1,"trial":"NA"},{"":462,"subject":191,"statement_identifier":86,"presentation_identifier":1,"within_identifier":1,"between_identifier":"att_cred","rt":1.806,"response":1,"repeated":0,"trial":"NA"},{"":463,"subject":191,"statement_identifier":15,"presentation_identifier":1,"within_identifier":1,"between_identifier":"att_cred","rt":3.278,"response":0,"repeated":0,"trial":"NA"},{"":464,"subject":191,"statement_identifier":17,"presentation_identifier":1,"within_identifier":1,"between_identifier":"att_cred","rt":3.442,"response":0,"repeated":1,"trial":"NA"},{"":465,"subject":191,"statement_identifier":68,"presentation_identifier":1,"within_identifier":1,"between_identifier":"att_cred","rt":3.562,"response":0,"repeated":1,"trial":"NA"},{"":466,"subject":191,"statement_identifier":20,"presentation_identifier":1,"within_identifier":1,"between_identifier":"att_cred","rt":4.739,"response":1,"repeated":1,"trial":"NA"},{"":467,"subject":191,"statement_identifier":69,"presentation_identifier":1,"within_identifier":1,"between_identifier":"att_cred","rt":4.565,"response":1,"repeated":0,"trial":"NA"},{"":468,"subject":191,"statement_identifier":22,"presentation_identifier":1,"within_identifier":1,"between_identifier":"att_cred","rt":3.505,"response":1,"repeated":0,"trial":"NA"},{"":469,"subject":191,"statement_identifier":23,"presentation_identifier":1,"within_identifier":1,"between_identifier":"att_cred","rt":2.396,"response":1,"repeated":0,"trial":"NA"},{"":470,"subject":191,"statement_identifier":24,"presentation_identifier":1,"within_identifier":1,"between_identifier":"att_cred","rt":2.027,"response":0,"repeated":0,"trial":"NA"},{"":471,"subject":191,"statement_identifier":88,"presentation_identifier":1,"within_identifier":1,"between_identifier":"att_cred","rt":2.252,"response":0,"repeated":0,"trial":"NA"},{"":472,"subject":191,"statement_identifier":72,"presentation_identifier":1,"within_identifier":1,"between_identifier":"att_cred","rt":4.17,"response":1,"repeated":1,"trial":"NA"},{"":473,"subject":191,"statement_identifier":73,"presentation_identifier":1,"within_identifier":1,"between_identifier":"att_cred","rt":2.308,"response":0,"repeated":1,"trial":"NA"},{"":474,"subject":191,"statement_identifier":118,"presentation_identifier":1,"within_identifier":1,"between_identifier":"att_cred","rt":4.029,"response":1,"repeated":0,"trial":"NA"},{"":475,"subject":191,"statement_identifier":74,"presentation_identifier":1,"within_identifier":1,"between_identifier":"att_cred","rt":3.645,"response":1,"repeated":1,"trial":"NA"},{"":476,"subject":191,"statement_identifier":111,"presentation_identifier":1,"within_identifier":1,"between_identifier":"att_cred","rt":2.127,"response":1,"repeated":1,"trial":"NA"},{"":477,"subject":191,"statement_identifier":29,"presentation_identifier":1,"within_identifier":1,"between_identifier":"att_cred","rt":7.52,"response":1,"repeated":0,"trial":"NA"},{"":478,"subject":191,"statement_identifier":107,"presentation_identifier":1,"within_identifier":1,"between_identifier":"att_cred","rt":3.744,"response":1,"repeated":0,"trial":"NA"},{"":479,"subject":191,"statement_identifier":112,"presentation_identifier":1,"within_identifier":1,"between_identifier":"att_cred","rt":4.201,"response":1,"repeated":0,"trial":"NA"},{"":480,"subject":191,"statement_identifier":32,"presentation_identifier":1,"within_identifier":1,"between_identifier":"att_cred","rt":5.004,"response":1,"repeated":0,"trial":"NA"},{"":481,"subject":191,"statement_identifier":90,"presentation_identifier":1,"within_identifier":1,"between_identifier":"att_cred","rt":2.675,"response":1,"repeated":1,"trial":"NA"},{"":482,"subject":191,"statement_identifier":34,"presentation_identifier":1,"within_identifier":1,"between_identifier":"att_cred","rt":1.774,"response":1,"repeated":1,"trial":"NA"},{"":483,"subject":191,"statement_identifier":35,"presentation_identifier":1,"within_identifier":1,"between_identifier":"att_cred","rt":1.778,"response":0,"repeated":1,"trial":"NA"},{"":484,"subject":191,"statement_identifier":36,"presentation_identifier":1,"within_identifier":1,"between_identifier":"att_cred","rt":2.267,"response":1,"repeated":1,"trial":"NA"},{"":485,"subject":191,"statement_identifier":91,"presentation_identifier":1,"within_identifier":1,"between_identifier":"att_cred","rt":1.139,"response":1,"repeated":1,"trial":"NA"},{"":486,"subject":191,"statement_identifier":92,"presentation_identifier":1,"within_identifier":1,"between_identifier":"att_cred","rt":3.512,"response":1,"repeated":1,"trial":"NA"},{"":487,"subject":191,"statement_identifier":40,"presentation_identifier":1,"within_identifier":1,"between_identifier":"att_cred","rt":4.774,"response":1,"repeated":1,"trial":"NA"},{"":488,"subject":191,"statement_identifier":94,"presentation_identifier":1,"within_identifier":1,"between_identifier":"att_cred","rt":2.558,"response":0,"repeated":0,"trial":"NA"},{"":489,"subject":191,"statement_identifier":42,"presentation_identifier":1,"within_identifier":1,"between_identifier":"att_cred","rt":2.531,"response":0,"repeated":1,"trial":"NA"},{"":490,"subject":191,"statement_identifier":108,"presentation_identifier":1,"within_identifier":1,"between_identifier":"att_cred","rt":2.175,"response":1,"repeated":1,"trial":"NA"},{"":491,"subject":191,"statement_identifier":79,"presentation_identifier":1,"within_identifier":1,"between_identifier":"att_cred","rt":2.234,"response":1,"repeated":0,"trial":"NA"},{"":492,"subject":191,"statement_identifier":80,"presentation_identifier":1,"within_identifier":1,"between_identifier":"att_cred","rt":1.976,"response":1,"repeated":1,"trial":"NA"},{"":493,"subject":191,"statement_identifier":47,"presentation_identifier":1,"within_identifier":1,"between_identifier":"att_cred","rt":1.787,"response":1,"repeated":0,"trial":"NA"},{"":494,"subject":191,"statement_identifier":48,"presentation_identifier":1,"within_identifier":1,"between_identifier":"att_cred","rt":2.856,"response":0,"repeated":0,"trial":"NA"},{"":495,"subject":191,"statement_identifier":81,"presentation_identifier":1,"within_identifier":1,"between_identifier":"att_cred","rt":4.477,"response":0,"repeated":1,"trial":"NA"},{"":496,"subject":191,"statement_identifier":96,"presentation_identifier":1,"within_identifier":1,"between_identifier":"att_cred","rt":2.531,"response":1,"repeated":0,"trial":"NA"},{"":497,"subject":191,"statement_identifier":51,"presentation_identifier":1,"within_identifier":1,"between_identifier":"att_cred","rt":3.761,"response":0,"repeated":0,"trial":"NA"},{"":498,"subject":191,"statement_identifier":52,"presentation_identifier":1,"within_identifier":1,"between_identifier":"att_cred","rt":3.372,"response":0,"repeated":1,"trial":"NA"},{"":499,"subject":191,"statement_identifier":82,"presentation_identifier":1,"within_identifier":1,"between_identifier":"att_cred","rt":5.649,"response":1,"repeated":1,"trial":"NA"},{"":500,"subject":191,"statement_identifier":99,"presentation_identifier":1,"within_identifier":1,"between_identifier":"att_cred","rt":4.095,"response":0,"repeated":0,"trial":"NA"},{"":501,"subject":191,"statement_identifier":100,"presentation_identifier":1,"within_identifier":1,"between_identifier":"att_cred","rt":4.431,"response":1,"repeated":1,"trial":"NA"},{"":502,"subject":191,"statement_identifier":101,"presentation_identifier":1,"within_identifier":1,"between_identifier":"att_cred","rt":3.476,"response":0,"repeated":1,"trial":"NA"},{"":503,"subject":191,"statement_identifier":110,"presentation_identifier":1,"within_identifier":1,"between_identifier":"att_cred","rt":2.3,"response":1,"repeated":0,"trial":"NA"},{"":504,"subject":191,"statement_identifier":116,"presentation_identifier":1,"within_identifier":1,"between_identifier":"att_cred","rt":3.312,"response":1,"repeated":0,"trial":"NA"},{"":505,"subject":192,"statement_identifier":57,"presentation_identifier":1,"within_identifier":1,"between_identifier":"att_nocred","rt":4.561,"response":0,"repeated":0,"trial":"NA"},{"":506,"subject":192,"statement_identifier":2,"presentation_identifier":1,"within_identifier":1,"between_identifier":"att_nocred","rt":13.538,"response":0,"repeated":0,"trial":"NA"},{"":507,"subject":192,"statement_identifier":59,"presentation_identifier":1,"within_identifier":1,"between_identifier":"att_nocred","rt":11.593,"response":1,"repeated":1,"trial":"NA"},{"":508,"subject":192,"statement_identifier":61,"presentation_identifier":1,"within_identifier":1,"between_identifier":"att_nocred","rt":11.489,"response":0,"repeated":1,"trial":"NA"},{"":509,"subject":192,"statement_identifier":6,"presentation_identifier":1,"within_identifier":1,"between_identifier":"att_nocred","rt":7.267,"response":0,"repeated":1,"trial":"NA"},{"":510,"subject":192,"statement_identifier":7,"presentation_identifier":1,"within_identifier":1,"between_identifier":"att_nocred","rt":13.12,"response":0,"repeated":0,"trial":"NA"},{"":511,"subject":192,"statement_identifier":9,"presentation_identifier":1,"within_identifier":1,"between_identifier":"att_nocred","rt":8.288,"response":0,"repeated":1,"trial":"NA"},{"":512,"subject":192,"statement_identifier":10,"presentation_identifier":1,"within_identifier":1,"between_identifier":"att_nocred","rt":15.141,"response":1,"repeated":0,"trial":"NA"},{"":513,"subject":192,"statement_identifier":11,"presentation_identifier":1,"within_identifier":1,"between_identifier":"att_nocred","rt":6.772,"response":0,"repeated":0,"trial":"NA"},{"":514,"subject":192,"statement_identifier":12,"presentation_identifier":1,"within_identifier":1,"between_identifier":"att_nocred","rt":7.212,"response":1,"repeated":1,"trial":"NA"},{"":515,"subject":192,"statement_identifier":64,"presentation_identifier":1,"within_identifier":1,"between_identifier":"att_nocred","rt":18.841,"response":0,"repeated":1,"trial":"NA"},{"":516,"subject":192,"statement_identifier":14,"presentation_identifier":1,"within_identifier":1,"between_identifier":"att_nocred","rt":14.247,"response":0,"repeated":0,"trial":"NA"},{"":517,"subject":192,"statement_identifier":86,"presentation_identifier":1,"within_identifier":1,"between_identifier":"att_nocred","rt":8.311,"response":1,"repeated":0,"trial":"NA"},{"":518,"subject":192,"statement_identifier":15,"presentation_identifier":1,"within_identifier":1,"between_identifier":"att_nocred","rt":6.489,"response":1,"repeated":0,"trial":"NA"},{"":519,"subject":192,"statement_identifier":16,"presentation_identifier":1,"within_identifier":1,"between_identifier":"att_nocred","rt":10.302,"response":1,"repeated":1,"trial":"NA"},{"":520,"subject":192,"statement_identifier":17,"presentation_identifier":1,"within_identifier":1,"between_identifier":"att_nocred","rt":9.629,"response":1,"repeated":0,"trial":"NA"},{"":521,"subject":192,"statement_identifier":67,"presentation_identifier":1,"within_identifier":1,"between_identifier":"att_nocred","rt":9.223,"response":0,"repeated":1,"trial":"NA"},{"":522,"subject":192,"statement_identifier":68,"presentation_identifier":1,"within_identifier":1,"between_identifier":"att_nocred","rt":2.956,"response":1,"repeated":1,"trial":"NA"},{"":523,"subject":192,"statement_identifier":20,"presentation_identifier":1,"within_identifier":1,"between_identifier":"att_nocred","rt":5.52,"response":1,"repeated":1,"trial":"NA"},{"":524,"subject":192,"statement_identifier":69,"presentation_identifier":1,"within_identifier":1,"between_identifier":"att_nocred","rt":4.675,"response":1,"repeated":0,"trial":"NA"},{"":525,"subject":192,"statement_identifier":70,"presentation_identifier":1,"within_identifier":1,"between_identifier":"att_nocred","rt":4.912,"response":0,"repeated":1,"trial":"NA"},{"":526,"subject":192,"statement_identifier":23,"presentation_identifier":1,"within_identifier":1,"between_identifier":"att_nocred","rt":13.346,"response":0,"repeated":1,"trial":"NA"},{"":527,"subject":192,"statement_identifier":24,"presentation_identifier":1,"within_identifier":1,"between_identifier":"att_nocred","rt":12.417,"response":0,"repeated":1,"trial":"NA"},{"":528,"subject":192,"statement_identifier":25,"presentation_identifier":1,"within_identifier":1,"between_identifier":"att_nocred","rt":4.275,"response":1,"repeated":1,"trial":"NA"},{"":529,"subject":192,"statement_identifier":72,"presentation_identifier":1,"within_identifier":1,"between_identifier":"att_nocred","rt":9.26,"response":1,"repeated":0,"trial":"NA"},{"":530,"subject":192,"statement_identifier":73,"presentation_identifier":1,"within_identifier":1,"between_identifier":"att_nocred","rt":5.26,"response":1,"repeated":0,"trial":"NA"},{"":531,"subject":192,"statement_identifier":26,"presentation_identifier":1,"within_identifier":1,"between_identifier":"att_nocred","rt":6.767,"response":1,"repeated":0,"trial":"NA"},{"":532,"subject":192,"statement_identifier":74,"presentation_identifier":1,"within_identifier":1,"between_identifier":"att_nocred","rt":8.613,"response":1,"repeated":0,"trial":"NA"},{"":533,"subject":192,"statement_identifier":28,"presentation_identifier":1,"within_identifier":1,"between_identifier":"att_nocred","rt":9.757,"response":0,"repeated":1,"trial":"NA"},{"":534,"subject":192,"statement_identifier":106,"presentation_identifier":1,"within_identifier":1,"between_identifier":"att_nocred","rt":7.929,"response":0,"repeated":0,"trial":"NA"},{"":535,"subject":192,"statement_identifier":30,"presentation_identifier":1,"within_identifier":1,"between_identifier":"att_nocred","rt":16.233,"response":0,"repeated":1,"trial":"NA"},{"":536,"subject":192,"statement_identifier":112,"presentation_identifier":1,"within_identifier":1,"between_identifier":"att_nocred","rt":15.695,"response":0,"repeated":1,"trial":"NA"},{"":537,"subject":192,"statement_identifier":75,"presentation_identifier":1,"within_identifier":1,"between_identifier":"att_nocred","rt":5.752,"response":1,"repeated":1,"trial":"NA"},{"":538,"subject":192,"statement_identifier":90,"presentation_identifier":1,"within_identifier":1,"between_identifier":"att_nocred","rt":4.208,"response":1,"repeated":1,"trial":"NA"},{"":539,"subject":192,"statement_identifier":113,"presentation_identifier":1,"within_identifier":1,"between_identifier":"att_nocred","rt":14.355,"response":0,"repeated":0,"trial":"NA"},{"":540,"subject":192,"statement_identifier":35,"presentation_identifier":1,"within_identifier":1,"between_identifier":"att_nocred","rt":24.427,"response":1,"repeated":0,"trial":"NA"},{"":541,"subject":192,"statement_identifier":36,"presentation_identifier":1,"within_identifier":1,"between_identifier":"att_nocred","rt":4.559,"response":0,"repeated":1,"trial":"NA"},{"":542,"subject":192,"statement_identifier":77,"presentation_identifier":1,"within_identifier":1,"between_identifier":"att_nocred","rt":11.755,"response":1,"repeated":0,"trial":"NA"},{"":543,"subject":192,"statement_identifier":38,"presentation_identifier":1,"within_identifier":1,"between_identifi