{"publication_info":{"0":{"publication_name":"Publication 1","study_info":{"0":{"study_name":"Study 1","study_data":{"truth_rating_scale":"dichotomous","truth_rating_scale_details":"","truth_rating_steps":"2","subjective_certainty":"0","rt_measured":"1","rt_onset":"stimulus_onset","n_participants":"29","participant_age":"24.28","percentage_female":"65.5","physiological_measures":"0","cognitive_models":"0","open_data_link":"osf.io/v2gmb/files","study_comment":"","statementset_name":"Statementset 1","secondary_tasks":"1","secondary_task_type":"non-verbal","secondary_task_name":"","student_sample":"1","validated":true},"measurement_data":{"measures":[],"additional_measures":"0","validated":true},"raw_data":{"raw_data_file":{},"data":[{"":1,"subject":7,"within_identifier":"true_50","statement_identifier":1,"presentation_identifier":1,"statement_number":1,"statement_accuracy":1,"statement_text":"NA","response":1,"repeated":1,"rt":0.997,"trial":"NA"},{"":2,"subject":7,"within_identifier":"true_50","statement_identifier":2,"presentation_identifier":1,"statement_number":2,"statement_accuracy":1,"statement_text":"NA","response":1,"repeated":1,"rt":2.428,"trial":"NA"},{"":3,"subject":7,"within_identifier":"true_50","statement_identifier":3,"presentation_identifier":1,"statement_number":3,"statement_accuracy":1,"statement_text":"NA","response":1,"repeated":1,"rt":3.914,"trial":"NA"},{"":4,"subject":7,"within_identifier":"true_50","statement_identifier":4,"presentation_identifier":1,"statement_number":4,"statement_accuracy":1,"statement_text":"NA","response":1,"repeated":1,"rt":1.332,"trial":"NA"},{"":5,"subject":7,"within_identifier":"true_50","statement_identifier":5,"presentation_identifier":1,"statement_number":5,"statement_accuracy":1,"statement_text":"NA","response":1,"repeated":1,"rt":0.489,"trial":"NA"},{"":6,"subject":7,"within_identifier":"true_60","statement_identifier":6,"presentation_identifier":1,"statement_number":6,"statement_accuracy":1,"statement_text":"NA","response":1,"repeated":1,"rt":0.861,"trial":"NA"},{"":7,"subject":7,"within_identifier":"true_60","statement_identifier":7,"presentation_identifier":1,"statement_number":7,"statement_accuracy":1,"statement_text":"NA","response":0,"repeated":1,"rt":3.38,"trial":"NA"},{"":8,"subject":7,"within_identifier":"true_60","statement_identifier":8,"presentation_identifier":1,"statement_number":8,"statement_accuracy":1,"statement_text":"NA","response":0,"repeated":1,"rt":0.716,"trial":"NA"},{"":9,"subject":7,"within_identifier":"true_60","statement_identifier":9,"presentation_identifier":1,"statement_number":9,"statement_accuracy":1,"statement_text":"NA","response":1,"repeated":1,"rt":1.036,"trial":"NA"},{"":10,"subject":7,"within_identifier":"true_60","statement_identifier":10,"presentation_identifier":1,"statement_number":10,"statement_accuracy":1,"statement_text":"NA","response":1,"repeated":1,"rt":4.115,"trial":"NA"},{"":11,"subject":7,"within_identifier":"true_70","statement_identifier":11,"presentation_identifier":1,"statement_number":11,"statement_accuracy":1,"statement_text":"NA","response":1,"repeated":1,"rt":5.328,"trial":"NA"},{"":12,"subject":7,"within_identifier":"true_70","statement_identifier":12,"presentation_identifier":1,"statement_number":12,"statement_accuracy":1,"statement_text":"NA","response":1,"repeated":1,"rt":2.293,"trial":"NA"},{"":13,"subject":7,"within_identifier":"true_70","statement_identifier":13,"presentation_identifier":1,"statement_number":13,"statement_accuracy":1,"statement_text":"NA","response":1,"repeated":1,"rt":1.279,"trial":"NA"},{"":14,"subject":7,"within_identifier":"true_70","statement_identifier":14,"presentation_identifier":1,"statement_number":14,"statement_accuracy":1,"statement_text":"NA","response":1,"repeated":1,"rt":2.305,"trial":"NA"},{"":15,"subject":7,"within_identifier":"true_70","statement_identifier":15,"presentation_identifier":1,"statement_number":15,"statement_accuracy":1,"statement_text":"NA","response":1,"repeated":1,"rt":0.769,"trial":"NA"},{"":16,"subject":7,"within_identifier":"false_50","statement_identifier":16,"presentation_identifier":1,"statement_number":16,"statement_accuracy":1,"statement_text":"NA","response":1,"repeated":1,"rt":1.703,"trial":"NA"},{"":17,"subject":7,"within_identifier":"false_50","statement_identifier":17,"presentation_identifier":1,"statement_number":17,"statement_accuracy":1,"statement_text":"NA","response":1,"repeated":1,"rt":3.336,"trial":"NA"},{"":18,"subject":7,"within_identifier":"false_50","statement_identifier":18,"presentation_identifier":1,"statement_number":18,"statement_accuracy":1,"statement_text":"NA","response":0,"repeated":1,"rt":3.475,"trial":"NA"},{"":19,"subject":7,"within_identifier":"false_50","statement_identifier":19,"presentation_identifier":1,"statement_number":19,"statement_accuracy":1,"statement_text":"NA","response":0,"repeated":1,"rt":4.465,"trial":"NA"},{"":20,"subject":7,"within_identifier":"false_50","statement_identifier":20,"presentation_identifier":1,"statement_number":20,"statement_accuracy":1,"statement_text":"NA","response":0,"repeated":1,"rt":1.12,"trial":"NA"},{"":21,"subject":7,"within_identifier":"false_60","statement_identifier":21,"presentation_identifier":1,"statement_number":21,"statement_accuracy":1,"statement_text":"NA","response":0,"repeated":1,"rt":1.762,"trial":"NA"},{"":22,"subject":7,"within_identifier":"false_60","statement_identifier":22,"presentation_identifier":1,"statement_number":22,"statement_accuracy":1,"statement_text":"NA","response":0,"repeated":1,"rt":1.28,"trial":"NA"},{"":23,"subject":7,"within_identifier":"false_60","statement_identifier":23,"presentation_identifier":1,"statement_number":23,"statement_accuracy":1,"statement_text":"NA","response":0,"repeated":1,"rt":0.907,"trial":"NA"},{"":24,"subject":7,"within_identifier":"false_60","statement_identifier":24,"presentation_identifier":1,"statement_number":24,"statement_accuracy":1,"statement_text":"NA","response":0,"repeated":1,"rt":2.218,"trial":"NA"},{"":25,"subject":7,"within_identifier":"false_60","statement_identifier":25,"presentation_identifier":1,"statement_number":25,"statement_accuracy":1,"statement_text":"NA","response":0,"repeated":1,"rt":0.945,"trial":"NA"},{"":26,"subject":7,"within_identifier":"false_70","statement_identifier":26,"presentation_identifier":1,"statement_number":26,"statement_accuracy":1,"statement_text":"NA","response":0,"repeated":1,"rt":3.137,"trial":"NA"},{"":27,"subject":7,"within_identifier":"false_70","statement_identifier":27,"presentation_identifier":1,"statement_number":27,"statement_accuracy":1,"statement_text":"NA","response":1,"repeated":1,"rt":6.031,"trial":"NA"},{"":28,"subject":7,"within_identifier":"false_70","statement_identifier":28,"presentation_identifier":1,"statement_number":28,"statement_accuracy":1,"statement_text":"NA","response":1,"repeated":1,"rt":0.571,"trial":"NA"},{"":29,"subject":7,"within_identifier":"false_70","statement_identifier":29,"presentation_identifier":1,"statement_number":29,"statement_accuracy":1,"statement_text":"NA","response":0,"repeated":1,"rt":0.717,"trial":"NA"},{"":30,"subject":7,"within_identifier":"false_70","statement_identifier":30,"presentation_identifier":1,"statement_number":30,"statement_accuracy":1,"statement_text":"NA","response":0,"repeated":1,"rt":0.53,"trial":"NA"},{"":31,"subject":7,"within_identifier":"true_50","statement_identifier":31,"presentation_identifier":1,"statement_number":31,"statement_accuracy":1,"statement_text":"NA","response":0,"repeated":0,"rt":3.795,"trial":"NA"},{"":32,"subject":7,"within_identifier":"true_50","statement_identifier":32,"presentation_identifier":1,"statement_number":32,"statement_accuracy":1,"statement_text":"NA","response":1,"repeated":0,"rt":0.608,"trial":"NA"},{"":33,"subject":7,"within_identifier":"true_50","statement_identifier":33,"presentation_identifier":1,"statement_number":33,"statement_accuracy":1,"statement_text":"NA","response":0,"repeated":0,"rt":2.003,"trial":"NA"},{"":34,"subject":7,"within_identifier":"true_50","statement_identifier":34,"presentation_identifier":1,"statement_number":34,"statement_accuracy":1,"statement_text":"NA","response":1,"repeated":0,"rt":1.212,"trial":"NA"},{"":35,"subject":7,"within_identifier":"true_50","statement_identifier":35,"presentation_identifier":1,"statement_number":35,"statement_accuracy":1,"statement_text":"NA","response":1,"repeated":0,"rt":0.849,"trial":"NA"},{"":36,"subject":7,"within_identifier":"true_60","statement_identifier":36,"presentation_identifier":1,"statement_number":36,"statement_accuracy":1,"statement_text":"NA","response":1,"repeated":0,"rt":0.822,"trial":"NA"},{"":37,"subject":7,"within_identifier":"true_60","statement_identifier":37,"presentation_identifier":1,"statement_number":37,"statement_accuracy":1,"statement_text":"NA","response":1,"repeated":0,"rt":2.895,"trial":"NA"},{"":38,"subject":7,"within_identifier":"true_60","statement_identifier":38,"presentation_identifier":1,"statement_number":38,"statement_accuracy":1,"statement_text":"NA","response":1,"repeated":0,"rt":1.493,"trial":"NA"},{"":39,"subject":7,"within_identifier":"true_60","statement_identifier":39,"presentation_identifier":1,"statement_number":39,"statement_accuracy":1,"statement_text":"NA","response":1,"repeated":0,"rt":1.128,"trial":"NA"},{"":40,"subject":7,"within_identifier":"true_60","statement_identifier":40,"presentation_identifier":1,"statement_number":40,"statement_accuracy":1,"statement_text":"NA","response":1,"repeated":0,"rt":3.308,"trial":"NA"},{"":41,"subject":7,"within_identifier":"true_70","statement_identifier":41,"presentation_identifier":1,"statement_number":41,"statement_accuracy":1,"statement_text":"NA","response":1,"repeated":0,"rt":2.039,"trial":"NA"},{"":42,"subject":7,"within_identifier":"true_70","statement_identifier":42,"presentation_identifier":1,"statement_number":42,"statement_accuracy":1,"statement_text":"NA","response":1,"repeated":0,"rt":0.984,"trial":"NA"},{"":43,"subject":7,"within_identifier":"true_70","statement_identifier":43,"presentation_identifier":1,"statement_number":43,"statement_accuracy":1,"statement_text":"NA","response":1,"repeated":0,"rt":0.78,"trial":"NA"},{"":44,"subject":7,"within_identifier":"true_70","statement_identifier":44,"presentation_identifier":1,"statement_number":44,"statement_accuracy":1,"statement_text":"NA","response":0,"repeated":0,"rt":1.697,"trial":"NA"},{"":45,"subject":7,"within_identifier":"true_70","statement_identifier":45,"presentation_identifier":1,"statement_number":45,"statement_accuracy":1,"statement_text":"NA","response":1,"repeated":0,"rt":1.009,"trial":"NA"},{"":46,"subject":7,"within_identifier":"false_50","statement_identifier":46,"presentation_identifier":1,"statement_number":46,"statement_accuracy":1,"statement_text":"NA","response":1,"repeated":0,"rt":2.358,"trial":"NA"},{"":47,"subject":7,"within_identifier":"false_50","statement_identifier":47,"presentation_identifier":1,"statement_number":47,"statement_accuracy":1,"statement_text":"NA","response":1,"repeated":0,"rt":6.185,"trial":"NA"},{"":48,"subject":7,"within_identifier":"false_50","statement_identifier":48,"presentation_identifier":1,"statement_number":48,"statement_accuracy":1,"statement_text":"NA","response":1,"repeated":0,"rt":3.482,"trial":"NA"},{"":49,"subject":7,"within_identifier":"false_50","statement_identifier":49,"presentation_identifier":1,"statement_number":49,"statement_accuracy":1,"statement_text":"NA","response":0,"repeated":0,"rt":3.059,"trial":"NA"},{"":50,"subject":7,"within_identifier":"false_50","statement_identifier":50,"presentation_identifier":1,"statement_number":50,"statement_accuracy":1,"statement_text":"NA","response":0,"repeated":0,"rt":6.098,"trial":"NA"},{"":51,"subject":7,"within_identifier":"false_60","statement_identifier":51,"presentation_identifier":1,"statement_number":51,"statement_accuracy":1,"statement_text":"NA","response":0,"repeated":0,"rt":1.399,"trial":"NA"},{"":52,"subject":7,"within_identifier":"false_60","statement_identifier":52,"presentation_identifier":1,"statement_number":52,"statement_accuracy":1,"statement_text":"NA","response":0,"repeated":0,"rt":1.666,"trial":"NA"},{"":53,"subject":7,"within_identifier":"false_60","statement_identifier":53,"presentation_identifier":1,"statement_number":53,"statement_accuracy":1,"statement_text":"NA","response":0,"repeated":0,"rt":0.653,"trial":"NA"},{"":54,"subject":7,"within_identifier":"false_60","statement_identifier":54,"presentation_identifier":1,"statement_number":54,"statement_accuracy":1,"statement_text":"NA","response":0,"repeated":0,"rt":2.297,"trial":"NA"},{"":55,"subject":7,"within_identifier":"false_60","statement_identifier":55,"presentation_identifier":1,"statement_number":55,"statement_accuracy":1,"statement_text":"NA","response":0,"repeated":0,"rt":3.112,"trial":"NA"},{"":56,"subject":7,"within_identifier":"false_70","statement_identifier":56,"presentation_identifier":1,"statement_number":56,"statement_accuracy":1,"statement_text":"NA","response":0,"repeated":0,"rt":0.787,"trial":"NA"},{"":57,"subject":7,"within_identifier":"false_70","statement_identifier":57,"presentation_identifier":1,"statement_number":57,"statement_accuracy":1,"statement_text":"NA","response":0,"repeated":0,"rt":0.987,"trial":"NA"},{"":58,"subject":7,"within_identifier":"false_70","statement_identifier":58,"presentation_identifier":1,"statement_number":58,"statement_accuracy":1,"statement_text":"NA","response":0,"repeated":0,"rt":1.241,"trial":"NA"},{"":59,"subject":7,"within_identifier":"false_70","statement_identifier":59,"presentation_identifier":1,"statement_number":59,"statement_accuracy":1,"statement_text":"NA","response":0,"repeated":0,"rt":1.265,"trial":"NA"},{"":60,"subject":7,"within_identifier":"false_70","statement_identifier":60,"presentation_identifier":1,"statement_number":60,"statement_accuracy":1,"statement_text":"NA","response":0,"repeated":0,"rt":1.052,"trial":"NA"},{"":61,"subject":7,"within_identifier":"true_50","statement_identifier":61,"presentation_identifier":1,"statement_number":61,"statement_accuracy":0,"statement_text":"NA","response":0,"repeated":1,"rt":2.124,"trial":"NA"},{"":62,"subject":7,"within_identifier":"true_50","statement_identifier":62,"presentation_identifier":1,"statement_number":62,"statement_accuracy":0,"statement_text":"NA","response":0,"repeated":1,"rt":0.436,"trial":"NA"},{"":63,"subject":7,"within_identifier":"true_50","statement_identifier":63,"presentation_identifier":1,"statement_number":63,"statement_accuracy":0,"statement_text":"NA","response":0,"repeated":1,"rt":1.01,"trial":"NA"},{"":64,"subject":7,"within_identifier":"true_50","statement_identifier":64,"presentation_identifier":1,"statement_number":64,"statement_accuracy":0,"statement_text":"NA","response":1,"repeated":1,"rt":0.701,"trial":"NA"},{"":65,"subject":7,"within_identifier":"true_50","statement_identifier":65,"presentation_identifier":1,"statement_number":65,"statement_accuracy":0,"statement_text":"NA","response":1,"repeated":1,"rt":0.835,"trial":"NA"},{"":66,"subject":7,"within_identifier":"true_60","statement_identifier":66,"presentation_identifier":1,"statement_number":66,"statement_accuracy":0,"statement_text":"NA","response":1,"repeated":1,"rt":3.23,"trial":"NA"},{"":67,"subject":7,"within_identifier":"true_60","statement_identifier":67,"presentation_identifier":1,"statement_number":67,"statement_accuracy":0,"statement_text":"NA","response":1,"repeated":1,"rt":0.649,"trial":"NA"},{"":68,"subject":7,"within_identifier":"true_60","statement_identifier":68,"presentation_identifier":1,"statement_number":68,"statement_accuracy":0,"statement_text":"NA","response":0,"repeated":1,"rt":3.261,"trial":"NA"},{"":69,"subject":7,"within_identifier":"true_60","statement_identifier":69,"presentation_identifier":1,"statement_number":69,"statement_accuracy":0,"statement_text":"NA","response":1,"repeated":1,"rt":2.081,"trial":"NA"},{"":70,"subject":7,"within_identifier":"true_60","statement_identifier":70,"presentation_identifier":1,"statement_number":70,"statement_accuracy":0,"statement_text":"NA","response":0,"repeated":1,"rt":0.881,"trial":"NA"},{"":71,"subject":7,"within_identifier":"true_70","statement_identifier":71,"presentation_identifier":1,"statement_number":71,"statement_accuracy":0,"statement_text":"NA","response":1,"repeated":1,"rt":1.516,"trial":"NA"},{"":72,"subject":7,"within_identifier":"true_70","statement_identifier":72,"presentation_identifier":1,"statement_number":72,"statement_accuracy":0,"statement_text":"NA","response":1,"repeated":1,"rt":0.636,"trial":"NA"},{"":73,"subject":7,"within_identifier":"true_70","statement_identifier":73,"presentation_identifier":1,"statement_number":73,"statement_accuracy":0,"statement_text":"NA","response":1,"repeated":1,"rt":1.57,"trial":"NA"},{"":74,"subject":7,"within_identifier":"true_70","statement_identifier":74,"presentation_identifier":1,"statement_number":74,"statement_accuracy":0,"statement_text":"NA","response":1,"repeated":1,"rt":0.848,"trial":"NA"},{"":75,"subject":7,"within_identifier":"true_70","statement_identifier":75,"presentation_identifier":1,"statement_number":75,"statement_accuracy":0,"statement_text":"NA","response":1,"repeated":1,"rt":2.133,"trial":"NA"},{"":76,"subject":7,"within_identifier":"false_50","statement_identifier":76,"presentation_identifier":1,"statement_number":76,"statement_accuracy":0,"statement_text":"NA","response":0,"repeated":1,"rt":0.596,"trial":"NA"},{"":77,"subject":7,"within_identifier":"false_50","statement_identifier":77,"presentation_identifier":1,"statement_number":77,"statement_accuracy":0,"statement_text":"NA","response":0,"repeated":1,"rt":1.201,"trial":"NA"},{"":78,"subject":7,"within_identifier":"false_50","statement_identifier":78,"presentation_identifier":1,"statement_number":78,"statement_accuracy":0,"statement_text":"NA","response":0,"repeated":1,"rt":1.616,"trial":"NA"},{"":79,"subject":7,"within_identifier":"false_50","statement_identifier":79,"presentation_identifier":1,"statement_number":79,"statement_accuracy":0,"statement_text":"NA","response":0,"repeated":1,"rt":0.745,"trial":"NA"},{"":80,"subject":7,"within_identifier":"false_50","statement_identifier":80,"presentation_identifier":1,"statement_number":80,"statement_accuracy":0,"statement_text":"NA","response":1,"repeated":1,"rt":1.372,"trial":"NA"},{"":81,"subject":7,"within_identifier":"false_60","statement_identifier":81,"presentation_identifier":1,"statement_number":81,"statement_accuracy":0,"statement_text":"NA","response":0,"repeated":1,"rt":0.787,"trial":"NA"},{"":82,"subject":7,"within_identifier":"false_60","statement_identifier":82,"presentation_identifier":1,"statement_number":82,"statement_accuracy":0,"statement_text":"NA","response":0,"repeated":1,"rt":2.241,"trial":"NA"},{"":83,"subject":7,"within_identifier":"false_60","statement_identifier":83,"presentation_identifier":1,"statement_number":83,"statement_accuracy":0,"statement_text":"NA","response":0,"repeated":1,"rt":2.606,"trial":"NA"},{"":84,"subject":7,"within_identifier":"false_60","statement_identifier":84,"presentation_identifier":1,"statement_number":84,"statement_accuracy":0,"statement_text":"NA","response":0,"repeated":1,"rt":0.987,"trial":"NA"},{"":85,"subject":7,"within_identifier":"false_60","statement_identifier":85,"presentation_identifier":1,"statement_number":85,"statement_accuracy":0,"statement_text":"NA","response":1,"repeated":1,"rt":0.45,"trial":"NA"},{"":86,"subject":7,"within_identifier":"false_70","statement_identifier":86,"presentation_identifier":1,"statement_number":86,"statement_accuracy":0,"statement_text":"NA","response":0,"repeated":1,"rt":3.285,"trial":"NA"},{"":87,"subject":7,"within_identifier":"false_70","statement_identifier":87,"presentation_identifier":1,"statement_number":87,"statement_accuracy":0,"statement_text":"NA","response":0,"repeated":1,"rt":0.543,"trial":"NA"},{"":88,"subject":7,"within_identifier":"false_70","statement_identifier":88,"presentation_identifier":1,"statement_number":88,"statement_accuracy":0,"statement_text":"NA","response":0,"repeated":1,"rt":1.252,"trial":"NA"},{"":89,"subject":7,"within_identifier":"false_70","statement_identifier":89,"presentation_identifier":1,"statement_number":89,"statement_accuracy":0,"statement_text":"NA","response":0,"repeated":1,"rt":1.586,"trial":"NA"},{"":90,"subject":7,"within_identifier":"false_70","statement_identifier":90,"presentation_identifier":1,"statement_number":90,"statement_accuracy":0,"statement_text":"NA","response":0,"repeated":1,"rt":1.737,"trial":"NA"},{"":91,"subject":7,"within_identifier":"true_50","statement_identifier":91,"presentation_identifier":1,"statement_number":91,"statement_accuracy":0,"statement_text":"NA","response":0,"repeated":0,"rt":3.393,"trial":"NA"},{"":92,"subject":7,"within_identifier":"true_50","statement_identifier":92,"presentation_identifier":1,"statement_number":92,"statement_accuracy":0,"statement_text":"NA","response":0,"repeated":0,"rt":0.97,"trial":"NA"},{"":93,"subject":7,"within_identifier":"true_50","statement_identifier":93,"presentation_identifier":1,"statement_number":93,"statement_accuracy":0,"statement_text":"NA","response":1,"repeated":0,"rt":0.73,"trial":"NA"},{"":94,"subject":7,"within_identifier":"true_50","statement_identifier":94,"presentation_identifier":1,"statement_number":94,"statement_accuracy":0,"statement_text":"NA","response":0,"repeated":0,"rt":1.212,"trial":"NA"},{"":95,"subject":7,"within_identifier":"true_50","statement_identifier":95,"presentation_identifier":1,"statement_number":95,"statement_accuracy":0,"statement_text":"NA","response":1,"repeated":0,"rt":1.823,"trial":"NA"},{"":96,"subject":7,"within_identifier":"true_60","statement_identifier":96,"presentation_identifier":1,"statement_number":96,"statement_accuracy":0,"statement_text":"NA","response":1,"repeated":0,"rt":2.239,"trial":"NA"},{"":97,"subject":7,"within_identifier":"true_60","statement_identifier":97,"presentation_identifier":1,"statement_number":97,"statement_accuracy":0,"statement_text":"NA","response":1,"repeated":0,"rt":2.041,"trial":"NA"},{"":98,"subject":7,"within_identifier":"true_60","statement_identifier":98,"presentation_identifier":1,"statement_number":98,"statement_accuracy":0,"statement_text":"NA","response":1,"repeated":0,"rt":0.727,"trial":"NA"},{"":99,"subject":7,"within_identifier":"true_60","statement_identifier":99,"presentation_identifier":1,"statement_number":99,"statement_accuracy":0,"statement_text":"NA","response":1,"repeated":0,"rt":2.175,"trial":"NA"},{"":100,"subject":7,"within_identifier":"true_60","statement_identifier":100,"presentation_identifier":1,"statement_number":100,"statement_accuracy":0,"statement_text":"NA","response":1,"repeated":0,"rt":0.944,"trial":"NA"},{"":101,"subject":7,"within_identifier":"true_70","statement_identifier":101,"presentation_identifier":1,"statement_number":101,"statement_accuracy":0,"statement_text":"NA","response":1,"repeated":0,"rt":1.238,"trial":"NA"},{"":102,"subject":7,"within_identifier":"true_70","statement_identifier":102,"presentation_identifier":1,"statement_number":102,"statement_accuracy":0,"statement_text":"NA","response":1,"repeated":0,"rt":1.104,"trial":"NA"},{"":103,"subject":7,"within_identifier":"true_70","statement_identifier":103,"presentation_identifier":1,"statement_number":103,"statement_accuracy":0,"statement_text":"NA","response":1,"repeated":0,"rt":1.318,"trial":"NA"},{"":104,"subject":7,"within_identifier":"true_70","statement_identifier":104,"presentation_identifier":1,"statement_number":104,"statement_accuracy":0,"statement_text":"NA","response":1,"repeated":0,"rt":1.636,"trial":"NA"},{"":105,"subject":7,"within_identifier":"true_70","statement_identifier":105,"presentation_identifier":1,"statement_number":105,"statement_accuracy":0,"statement_text":"NA","response":1,"repeated":0,"rt":1.306,"trial":"NA"},{"":106,"subject":7,"within_identifier":"false_50","statement_identifier":106,"presentation_identifier":1,"statement_number":106,"statement_accuracy":0,"statement_text":"NA","response":0,"repeated":0,"rt":0.786,"trial":"NA"},{"":107,"subject":7,"within_identifier":"false_50","statement_identifier":107,"presentation_identifier":1,"statement_number":107,"statement_accuracy":0,"statement_text":"NA","response":1,"repeated":0,"rt":3.122,"trial":"NA"},{"":108,"subject":7,"within_identifier":"false_50","statement_identifier":108,"presentation_identifier":1,"statement_number":108,"statement_accuracy":0,"statement_text":"NA","response":0,"repeated":0,"rt":4.544,"trial":"NA"},{"":109,"subject":7,"within_identifier":"false_50","statement_identifier":109,"presentation_identifier":1,"statement_number":109,"statement_accuracy":0,"statement_text":"NA","response":0,"repeated":0,"rt":2.927,"trial":"NA"},{"":110,"subject":7,"within_identifier":"false_50","statement_identifier":110,"presentation_identifier":1,"statement_number":110,"statement_accuracy":0,"statement_text":"NA","response":0,"repeated":0,"rt":1.201,"trial":"NA"},{"":111,"subject":7,"within_identifier":"false_60","statement_identifier":111,"presentation_identifier":1,"statement_number":111,"statement_accuracy":0,"statement_text":"NA","response":1,"repeated":0,"rt":4.285,"trial":"NA"},{"":112,"subject":7,"within_identifier":"false_60","statement_identifier":112,"presentation_identifier":1,"statement_number":112,"statement_accuracy":0,"statement_text":"NA","response":0,"repeated":0,"rt":0.904,"trial":"NA"},{"":113,"subject":7,"within_identifier":"false_60","statement_identifier":113,"presentation_identifier":1,"statement_number":113,"statement_accuracy":0,"statement_text":"NA","response":0,"repeated":0,"rt":3.189,"trial":"NA"},{"":114,"subject":7,"within_identifier":"false_60","statement_identifier":114,"presentation_identifier":1,"statement_number":114,"statement_accuracy":0,"statement_text":"NA","response":0,"repeated":0,"rt":2.588,"trial":"NA"},{"":115,"subject":7,"within_identifier":"false_60","statement_identifier":115,"presentation_identifier":1,"statement_number":115,"statement_accuracy":0,"statement_text":"NA","response":0,"repeated":0,"rt":6.694,"trial":"NA"},{"":116,"subject":7,"within_identifier":"false_70","statement_identifier":116,"presentation_identifier":1,"statement_number":116,"statement_accuracy":0,"statement_text":"NA","response":0,"repeated":0,"rt":6.482,"trial":"NA"},{"":117,"subject":7,"within_identifier":"false_70","statement_identifier":117,"presentation_identifier":1,"statement_number":117,"statement_accuracy":0,"statement_text":"NA","response":0,"repeated":0,"rt":0.65,"trial":"NA"},{"":118,"subject":7,"within_identifier":"false_70","statement_identifier":118,"presentation_identifier":1,"statement_number":118,"statement_accuracy":0,"statement_text":"NA","response":1,"repeated":0,"rt":3.215,"trial":"NA"},{"":119,"subject":7,"within_identifier":"false_70","statement_identifier":119,"presentation_identifier":1,"statement_number":119,"statement_accuracy":0,"statement_text":"NA","response":0,"repeated":0,"rt":0.891,"trial":"NA"},{"":120,"subject":7,"within_identifier":"false_70","statement_identifier":120,"presentation_identifier":1,"statement_number":120,"statement_accuracy":0,"statement_text":"NA","response":0,"repeated":0,"rt":2.149,"trial":"NA"},{"":121,"subject":14,"within_identifier":"true_50","statement_identifier":1,"presentation_identifier":1,"statement_number":1,"statement_accuracy":1,"statement_text":"NA","response":1,"repeated":1,"rt":2.278,"trial":"NA"},{"":122,"subject":14,"within_identifier":"true_50","statement_identifier":2,"presentation_identifier":1,"statement_number":2,"statement_accuracy":1,"statement_text":"NA","response":1,"repeated":1,"rt":3.024,"trial":"NA"},{"":123,"subject":14,"within_identifier":"true_50","statement_identifier":3,"presentation_identifier":1,"statement_number":3,"statement_accuracy":1,"statement_text":"NA","response":1,"repeated":1,"rt":7.685,"trial":"NA"},{"":124,"subject":14,"within_identifier":"true_50","statement_identifier":4,"presentation_identifier":1,"statement_number":4,"statement_accuracy":1,"statement_text":"NA","response":1,"repeated":1,"rt":1.952,"trial":"NA"},{"":125,"subject":14,"within_identifier":"true_50","statement_identifier":5,"presentation_identifier":1,"statement_number":5,"statement_accuracy":1,"statement_text":"NA","response":0,"repeated":1,"rt":2.24,"trial":"NA"},{"":126,"subject":14,"within_identifier":"true_60","statement_identifier":6,"presentation_identifier":1,"statement_number":6,"statement_accuracy":1,"statement_text":"NA","response":0,"repeated":1,"rt":3.349,"trial":"NA"},{"":127,"subject":14,"within_identifier":"true_60","statement_identifier":7,"presentation_identifier":1,"statement_number":7,"statement_accuracy":1,"statement_text":"NA","response":1,"repeated":1,"rt":3.542,"trial":"NA"},{"":128,"subject":14,"within_identifier":"true_60","statement_identifier":8,"presentation_identifier":1,"statement_number":8,"statement_accuracy":1,"statement_text":"NA","response":1,"repeated":1,"rt":1.686,"trial":"NA"},{"":129,"subject":14,"within_identifier":"true_60","statement_identifier":9,"presentation_identifier":1,"statement_number":9,"statement_accuracy":1,"statement_text":"NA","response":0,"repeated":1,"rt":6.111,"trial":"NA"},{"":130,"subject":14,"within_identifier":"true_60","statement_identifier":10,"presentation_identifier":1,"statement_number":10,"statement_accuracy":1,"statement_text":"NA","response":1,"repeated":1,"rt":4.693,"trial":"NA"},{"":131,"subject":14,"within_identifier":"true_70","statement_identifier":11,"presentation_identifier":1,"statement_number":11,"statement_accuracy":1,"statement_text":"NA","response":0,"repeated":1,"rt":2.13,"trial":"NA"},{"":132,"subject":14,"within_identifier":"true_70","statement_identifier":12,"presentation_identifier":1,"statement_number":12,"statement_accuracy":1,"statement_text":"NA","response":0,"repeated":1,"rt":2.209,"trial":"NA"},{"":133,"subject":14,"within_identifier":"true_70","statement_identifier":13,"presentation_identifier":1,"statement_number":13,"statement_accuracy":1,"statement_text":"NA","response":0,"repeated":1,"rt":6.669,"trial":"NA"},{"":134,"subject":14,"within_identifier":"true_70","statement_identifier":14,"presentation_identifier":1,"statement_number":14,"statement_accuracy":1,"statement_text":"NA","response":1,"repeated":1,"rt":4.465,"trial":"NA"},{"":135,"subject":14,"within_identifier":"true_70","statement_identifier":15,"presentation_identifier":1,"statement_number":15,"statement_accuracy":1,"statement_text":"NA","response":0,"repeated":1,"rt":3.642,"trial":"NA"},{"":136,"subject":14,"within_identifier":"false_50","statement_identifier":16,"presentation_identifier":1,"statement_number":16,"statement_accuracy":1,"statement_text":"NA","response":1,"repeated":1,"rt":2.288,"trial":"NA"},{"":137,"subject":14,"within_identifier":"false_50","statement_identifier":17,"presentation_identifier":1,"statement_number":17,"statement_accuracy":1,"statement_text":"NA","response":1,"repeated":1,"rt":1.917,"trial":"NA"},{"":138,"subject":14,"within_identifier":"false_50","statement_identifier":18,"presentation_identifier":1,"statement_number":18,"statement_accuracy":1,"statement_text":"NA","response":0,"repeated":1,"rt":3.509,"trial":"NA"},{"":139,"subject":14,"within_identifier":"false_50","statement_identifier":19,"presentation_identifier":1,"statement_number":19,"statement_accuracy":1,"statement_text":"NA","response":1,"repeated":1,"rt":3.129,"trial":"NA"},{"":140,"subject":14,"within_identifier":"false_50","statement_identifier":20,"presentation_identifier":1,"statement_number":20,"statement_accuracy":1,"statement_text":"NA","response":0,"repeated":1,"rt":3.108,"trial":"NA"},{"":141,"subject":14,"within_identifier":"false_60","statement_identifier":21,"presentation_identifier":1,"statement_number":21,"statement_accuracy":1,"statement_text":"NA","response":0,"repeated":1,"rt":2.371,"trial":"NA"},{"":142,"subject":14,"within_identifier":"false_60","statement_identifier":22,"presentation_identifier":1,"statement_number":22,"statement_accuracy":1,"statement_text":"NA","response":0,"repeated":1,"rt":5.62,"trial":"NA"},{"":143,"subject":14,"within_identifier":"false_60","statement_identifier":23,"presentation_identifier":1,"statement_number":23,"statement_accuracy":1,"statement_text":"NA","response":1,"repeated":1,"rt":3.942,"trial":"NA"},{"":144,"subject":14,"within_identifier":"false_60","statement_identifier":24,"presentation_identifier":1,"statement_number":24,"statement_accuracy":1,"statement_text":"NA","response":0,"repeated":1,"rt":1.958,"trial":"NA"},{"":145,"subject":14,"within_identifier":"false_60","statement_identifier":25,"presentation_identifier":1,"statement_number":25,"statement_accuracy":1,"statement_text":"NA","response":0,"repeated":1,"rt":4.415,"trial":"NA"},{"":146,"subject":14,"within_identifier":"false_70","statement_identifier":26,"presentation_identifier":1,"statement_number":26,"statement_accuracy":1,"statement_text":"NA","response":0,"repeated":1,"rt":5.028,"trial":"NA"},{"":147,"subject":14,"within_identifier":"false_70","statement_identifier":27,"presentation_identifier":1,"statement_number":27,"statement_accuracy":1,"statement_text":"NA","response":0,"repeated":1,"rt":6.736,"trial":"NA"},{"":148,"subject":14,"within_identifier":"false_70","statement_identifier":28,"presentation_identifier":1,"statement_number":28,"statement_accuracy":1,"statement_text":"NA","response":0,"repeated":1,"rt":4.533,"trial":"NA"},{"":149,"subject":14,"within_identifier":"false_70","statement_identifier":29,"presentation_identifier":1,"statement_number":29,"statement_accuracy":1,"statement_text":"NA","response":0,"repeated":1,"rt":3.441,"trial":"NA"},{"":150,"subject":14,"within_identifier":"false_70","statement_identifier":30,"presentation_identifier":1,"statement_number":30,"statement_accuracy":1,"statement_text":"NA","response":0,"repeated":1,"rt":4.456,"trial":"NA"},{"":151,"subject":14,"within_identifier":"true_50","statement_identifier":31,"presentation_identifier":1,"statement_number":31,"statement_accuracy":1,"statement_text":"NA","response":0,"repeated":0,"rt":5.084,"trial":"NA"},{"":152,"subject":14,"within_identifier":"true_50","statement_identifier":32,"presentation_identifier":1,"statement_number":32,"statement_accuracy":1,"statement_text":"NA","response":0,"repeated":0,"rt":6.262,"trial":"NA"},{"":153,"subject":14,"within_identifier":"true_50","statement_identifier":33,"presentation_identifier":1,"statement_number":33,"statement_accuracy":1,"statement_text":"NA","response":0,"repeated":0,"rt":3.443,"trial":"NA"},{"":154,"subject":14,"within_identifier":"true_50","statement_identifier":34,"presentation_identifier":1,"statement_number":34,"statement_accuracy":1,"statement_text":"NA","response":1,"repeated":0,"rt":3.703,"trial":"NA"},{"":155,"subject":14,"within_identifier":"true_50","statement_identifier":35,"presentation_identifier":1,"statement_number":35,"statement_accuracy":1,"statement_text":"NA","response":1,"repeated":0,"rt":3.625,"trial":"NA"},{"":156,"subject":14,"within_identifier":"true_60","statement_identifier":36,"presentation_identifier":1,"statement_number":36,"statement_accuracy":1,"statement_text":"NA","response":0,"repeated":0,"rt":3.293,"trial":"NA"},{"":157,"subject":14,"within_identifier":"true_60","statement_identifier":37,"presentation_identifier":1,"statement_number":37,"statement_accuracy":1,"statement_text":"NA","response":0,"repeated":0,"rt":7.581,"trial":"NA"},{"":158,"subject":14,"within_identifier":"true_60","statement_identifier":38,"presentation_identifier":1,"statement_number":38,"statement_accuracy":1,"statement_text":"NA","response":1,"repeated":0,"rt":2.807,"trial":"NA"},{"":159,"subject":14,"within_identifier":"true_60","statement_identifier":39,"presentation_identifier":1,"statement_number":39,"statement_accuracy":1,"statement_text":"NA","response":0,"repeated":0,"rt":4.651,"trial":"NA"},{"":160,"subject":14,"within_identifier":"true_60","statement_identifier":40,"presentation_identifier":1,"statement_number":40,"statement_accuracy":1,"statement_text":"NA","response":1,"repeated":0,"rt":2.743,"trial":"NA"},{"":161,"subject":14,"within_identifier":"true_70","statement_identifier":41,"presentation_identifier":1,"statement_number":41,"statement_accuracy":1,"statement_text":"NA","response":0,"repeated":0,"rt":4.373,"trial":"NA"},{"":162,"subject":14,"within_identifier":"true_70","statement_identifier":42,"presentation_identifier":1,"statement_number":42,"statement_accuracy":1,"statement_text":"NA","response":1,"repeated":0,"rt":3.237,"trial":"NA"},{"":163,"subject":14,"within_identifier":"true_70","statement_identifier":43,"presentation_identifier":1,"statement_number":43,"statement_accuracy":1,"statement_text":"NA","response":1,"repeated":0,"rt":4.773,"trial":"NA"},{"":164,"subject":14,"within_identifier":"true_70","statement_identifier":44,"presentation_identifier":1,"statement_number":44,"statement_accuracy":1,"statement_text":"NA","response":0,"repeated":0,"rt":4.041,"trial":"NA"},{"":165,"subject":14,"within_identifier":"true_70","statement_identifier":45,"presentation_identifier":1,"statement_number":45,"statement_accuracy":1,"statement_text":"NA","response":0,"repeated":0,"rt":10.893,"trial":"NA"},{"":166,"subject":14,"within_identifier":"false_50","statement_identifier":46,"presentation_identifier":1,"statement_number":46,"statement_accuracy":1,"statement_text":"NA","response":1,"repeated":0,"rt":5.949,"trial":"NA"},{"":167,"subject":14,"within_identifier":"false_50","statement_identifier":47,"presentation_identifier":1,"statement_number":47,"statement_accuracy":1,"statement_text":"NA","response":1,"repeated":0,"rt":8.664,"trial":"NA"},{"":168,"subject":14,"within_identifier":"false_50","statement_identifier":48,"presentation_identifier":1,"statement_number":48,"statement_accuracy":1,"statement_text":"NA","response":0,"repeated":0,"rt":6.099,"trial":"NA"},{"":169,"subject":14,"within_identifier":"false_50","statement_identifier":49,"presentation_identifier":1,"statement_number":49,"statement_accuracy":1,"statement_text":"NA","response":0,"repeated":0,"rt":5.778,"trial":"NA"},{"":170,"subject":14,"within_identifier":"false_50","statement_identifier":50,"presentation_identifier":1,"statement_number":50,"statement_accuracy":1,"statement_text":"NA","response":0,"repeated":0,"rt":6.162,"trial":"NA"},{"":171,"subject":14,"within_identifier":"false_60","statement_identifier":51,"presentation_identifier":1,"statement_number":51,"statement_accuracy":1,"statement_text":"NA","response":1,"repeated":0,"rt":3.701,"trial":"NA"},{"":172,"subject":14,"within_identifier":"false_60","statement_identifier":52,"presentation_identifier":1,"statement_number":52,"statement_accuracy":1,"statement_text":"NA","response":0,"repeated":0,"rt":7.138,"trial":"NA"},{"":173,"subject":14,"within_identifier":"false_60","statement_identifier":53,"presentation_identifier":1,"statement_number":53,"statement_accuracy":1,"statement_text":"NA","response":1,"repeated":0,"rt":3.116,"trial":"NA"},{"":174,"subject":14,"within_identifier":"false_60","statement_identifier":54,"presentation_identifier":1,"statement_number":54,"statement_accuracy":1,"statement_text":"NA","response":0,"repeated":0,"rt":4.108,"trial":"NA"},{"":175,"subject":14,"within_identifier":"false_60","statement_identifier":55,"presentation_identifier":1,"statement_number":55,"statement_accuracy":1,"statement_text":"NA","response":0,"repeated":0,"rt":3.186,"trial":"NA"},{"":176,"subject":14,"within_identifier":"false_70","statement_identifier":56,"presentation_identifier":1,"statement_number":56,"statement_accuracy":1,"statement_text":"NA","response":1,"repeated":0,"rt":7.337,"trial":"NA"},{"":177,"subject":14,"within_identifier":"false_70","statement_identifier":57,"presentation_identifier":1,"statement_number":57,"statement_accuracy":1,"statement_text":"NA","response":0,"repeated":0,"rt":5.272,"trial":"NA"},{"":178,"subject":14,"within_identifier":"false_70","statement_identifier":58,"presentation_identifier":1,"statement_number":58,"statement_accuracy":1,"statement_text":"NA","response":1,"repeated":0,"rt":2.275,"trial":"NA"},{"":179,"subject":14,"within_identifier":"false_70","statement_identifier":59,"presentation_identifier":1,"statement_number":59,"statement_accuracy":1,"statement_text":"NA","response":0,"repeated":0,"rt":6.94,"trial":"NA"},{"":180,"subject":14,"within_identifier":"false_70","statement_identifier":60,"presentation_identifier":1,"statement_number":60,"statement_accuracy":1,"statement_text":"NA","response":1,"repeated":0,"rt":9.22,"trial":"NA"},{"":181,"subject":14,"within_identifier":"true_50","statement_identifier":61,"presentation_identifier":1,"statement_number":61,"statement_accuracy":0,"statement_text":"NA","response":1,"repeated":1,"rt":3.026,"trial":"NA"},{"":182,"subject":14,"within_identifier":"true_50","statement_identifier":62,"presentation_identifier":1,"statement_number":62,"statement_accuracy":0,"statement_text":"NA","response":0,"repeated":1,"rt":6.313,"trial":"NA"},{"":183,"subject":14,"within_identifier":"true_50","statement_identifier":63,"presentation_identifier":1,"statement_number":63,"statement_accuracy":0,"statement_text":"NA","response":0,"repeated":1,"rt":3.83,"trial":"NA"},{"":184,"subject":14,"within_identifier":"true_50","statement_identifier":64,"presentation_identifier":1,"statement_number":64,"statement_accuracy":0,"statement_text":"NA","response":1,"repeated":1,"rt":3.557,"trial":"NA"},{"":185,"subject":14,"within_identifier":"true_50","statement_identifier":65,"presentation_identifier":1,"statement_number":65,"statement_accuracy":0,"statement_text":"NA","response":1,"repeated":1,"rt":1.732,"trial":"NA"},{"":186,"subject":14,"within_identifier":"true_60","statement_identifier":66,"presentation_identifier":1,"statement_number":66,"statement_accuracy":0,"statement_text":"NA","response":1,"repeated":1,"rt":4.13,"trial":"NA"},{"":187,"subject":14,"within_identifier":"true_60","statement_identifier":67,"presentation_identifier":1,"statement_number":67,"statement_accuracy":0,"statement_text":"NA","response":1,"repeated":1,"rt":2.366,"trial":"NA"},{"":188,"subject":14,"within_identifier":"true_60","statement_identifier":68,"presentation_identifier":1,"statement_number":68,"statement_accuracy":0,"statement_text":"NA","response":0,"repeated":1,"rt":3.336,"trial":"NA"},{"":189,"subject":14,"within_identifier":"true_60","statement_identifier":69,"presentation_identifier":1,"statement_number":69,"statement_accuracy":0,"statement_text":"NA","response":1,"repeated":1,"rt":7.474,"trial":"NA"},{"":190,"subject":14,"within_identifier":"true_60","statement_identifier":70,"presentation_identifier":1,"statement_number":70,"statement_accuracy":0,"statement_text":"NA","response":1,"repeated":1,"rt":6.228,"trial":"NA"},{"":191,"subject":14,"within_identifier":"true_70","statement_identifier":71,"presentation_identifier":1,"statement_number":71,"statement_accuracy":0,"statement_text":"NA","response":1,"repeated":1,"rt":2.599,"trial":"NA"},{"":192,"subject":14,"within_identifier":"true_70","statement_identifier":72,"presentation_identifier":1,"statement_number":72,"statement_accuracy":0,"statement_text":"NA","response":0,"repeated":1,"rt":5.618,"trial":"NA"},{"":193,"subject":14,"within_identifier":"true_70","statement_identifier":73,"presentation_identifier":1,"statement_number":73,"statement_accuracy":0,"statement_text":"NA","response":0,"repeated":1,"rt":3.626,"trial":"NA"},{"":194,"subject":14,"within_identifier":"true_70","statement_identifier":74,"presentation_identifier":1,"statement_number":74,"statement_accuracy":0,"statement_text":"NA","response":0,"repeated":1,"rt":2.947,"trial":"NA"},{"":195,"subject":14,"within_identifier":"true_70","statement_identifier":75,"presentation_identifier":1,"statement_number":75,"statement_accuracy":0,"statement_text":"NA","response":0,"repeated":1,"rt":2.85,"trial":"NA"},{"":196,"subject":14,"within_identifier":"false_50","statement_identifier":76,"presentation_identifier":1,"statement_number":76,"statement_accuracy":0,"statement_text":"NA","response":0,"repeated":1,"rt":6.029,"trial":"NA"},{"":197,"subject":14,"within_identifier":"false_50","statement_identifier":77,"presentation_identifier":1,"statement_number":77,"statement_accuracy":0,"statement_text":"NA","response":0,"repeated":1,"rt":3.643,"trial":"NA"},{"":198,"subject":14,"within_identifier":"false_50","statement_identifier":78,"presentation_identifier":1,"statement_number":78,"statement_accuracy":0,"statement_text":"NA","response":0,"repeated":1,"rt":5.297,"trial":"NA"},{"":199,"subject":14,"within_identifier":"false_50","statement_identifier":79,"presentation_identifier":1,"statement_number":79,"statement_accuracy":0,"statement_text":"NA","response":0,"repeated":1,"rt":3.748,"trial":"NA"},{"":200,"subject":14,"within_identifier":"false_50","statement_identifier":80,"presentation_identifier":1,"statement_number":80,"statement_accuracy":0,"statement_text":"NA","response":0,"repeated":1,"rt":3.426,"trial":"NA"},{"":201,"subject":14,"within_identifier":"false_60","statement_identifier":81,"presentation_identifier":1,"statement_number":81,"statement_accuracy":0,"statement_text":"NA","response":0,"repeated":1,"rt":2.077,"trial":"NA"},{"":202,"subject":14,"within_identifier":"false_60","statement_identifier":82,"presentation_identifier":1,"statement_number":82,"statement_accuracy":0,"statement_text":"NA","response":1,"repeated":1,"rt":4.96,"trial":"NA"},{"":203,"subject":14,"within_identifier":"false_60","statement_identifier":83,"presentation_identifier":1,"statement_number":83,"statement_accuracy":0,"statement_text":"NA","response":0,"repeated":1,"rt":3.015,"trial":"NA"},{"":204,"subject":14,"within_identifier":"false_60","statement_identifier":84,"presentation_identifier":1,"statement_number":84,"statement_accuracy":0,"statement_text":"NA","response":0,"repeated":1,"rt":2.09,"trial":"NA"},{"":205,"subject":14,"within_identifier":"false_60","statement_identifier":85,"presentation_identifier":1,"statement_number":85,"statement_accuracy":0,"statement_text":"NA","response":0,"repeated":1,"rt":5.458,"trial":"NA"},{"":206,"subject":14,"within_identifier":"false_70","statement_identifier":86,"presentation_identifier":1,"statement_number":86,"statement_accuracy":0,"statement_text":"NA","response":0,"repeated":1,"rt":21.923,"trial":"NA"},{"":207,"subject":14,"within_identifier":"false_70","statement_identifier":87,"presentation_identifier":1,"statement_number":87,"statement_accuracy":0,"statement_text":"NA","response":1,"repeated":1,"rt":2.782,"trial":"NA"},{"":208,"subject":14,"within_identifier":"false_70","statement_identifier":88,"presentation_identifier":1,"statement_number":88,"statement_accuracy":0,"statement_text":"NA","response":0,"repeated":1,"rt":5.201,"trial":"NA"},{"":209,"subject":14,"within_identifier":"false_70","statement_identifier":89,"presentation_identifier":1,"statement_number":89,"statement_accuracy":0,"statement_text":"NA","response":0,"repeated":1,"rt":5.054,"trial":"NA"},{"":210,"subject":14,"within_identifier":"false_70","statement_identifier":90,"presentation_identifier":1,"statement_number":90,"statement_accuracy":0,"statement_text":"NA","response":1,"repeated":1,"rt":3.638,"trial":"NA"},{"":211,"subject":14,"within_identifier":"true_50","statement_identifier":91,"presentation_identifier":1,"statement_number":91,"statement_accuracy":0,"statement_text":"NA","response":0,"repeated":0,"rt":2.828,"trial":"NA"},{"":212,"subject":14,"within_identifier":"true_50","statement_identifier":92,"presentation_identifier":1,"statement_number":92,"statement_accuracy":0,"statement_text":"NA","response":1,"repeated":0,"rt":4.334,"trial":"NA"},{"":213,"subject":14,"within_identifier":"true_50","statement_identifier":93,"presentation_identifier":1,"statement_number":93,"statement_accuracy":0,"statement_text":"NA","response":0,"repeated":0,"rt":4.336,"trial":"NA"},{"":214,"subject":14,"within_identifier":"true_50","statement_identifier":94,"presentation_identifier":1,"statement_number":94,"statement_accuracy":0,"statement_text":"NA","response":0,"repeated":0,"rt":3.827,"trial":"NA"},{"":215,"subject":14,"within_identifier":"true_50","statement_identifier":95,"presentation_identifier":1,"statement_number":95,"statement_accuracy":0,"statement_text":"NA","response":0,"repeated":0,"rt":2.251,"trial":"NA"},{"":216,"subject":14,"within_identifier":"true_60","statement_identifier":96,"presentation_identifier":1,"statement_number":96,"statement_accuracy":0,"statement_text":"NA","response":1,"repeated":0,"rt":2.943,"trial":"NA"},{"":217,"subject":14,"within_identifier":"true_60","statement_identifier":97,"presentation_identifier":1,"statement_number":97,"statement_accuracy":0,"statement_text":"NA","response":1,"repeated":0,"rt":5.04,"trial":"NA"},{"":218,"subject":14,"within_identifier":"true_60","statement_identifier":98,"presentation_identifier":1,"statement_number":98,"statement_accuracy":0,"statement_text":"NA","response":0,"repeated":0,"rt":4.643,"trial":"NA"},{"":219,"subject":14,"within_identifier":"true_60","statement_identifier":99,"presentation_identifier":1,"statement_number":99,"statement_accuracy":0,"statement_text":"NA","response":0,"repeated":0,"rt":7.007,"trial":"NA"},{"":220,"subject":14,"within_identifier":"true_60","statement_identifier":100,"presentation_identifier":1,"statement_number":100,"statement_accuracy":0,"statement_text":"NA","response":1,"repeated":0,"rt":6.733,"trial":"NA"},{"":221,"subject":14,"within_identifier":"true_70","statement_identifier":101,"presentation_identifier":1,"statement_number":101,"statement_accuracy":0,"statement_text":"NA","response":0,"repeated":0,"rt":7.315,"trial":"NA"},{"":222,"subject":14,"within_identifier":"true_70","statement_identifier":102,"presentation_identifier":1,"statement_number":102,"statement_accuracy":0,"statement_text":"NA","response":0,"repeated":0,"rt":6.034,"trial":"NA"},{"":223,"subject":14,"within_identifier":"true_70","statement_identifier":103,"presentation_identifier":1,"statement_number":103,"statement_accuracy":0,"statement_text":"NA","response":1,"repeated":0,"rt":5.967,"trial":"NA"},{"":224,"subject":14,"within_identifier":"true_70","statement_identifier":104,"presentation_identifier":1,"statement_number":104,"statement_accuracy":0,"statement_text":"NA","response":1,"repeated":0,"rt":4.921,"trial":"NA"},{"":225,"subject":14,"within_identifier":"true_70","statement_identifier":105,"presentation_identifier":1,"statement_number":105,"statement_accuracy":0,"statement_text":"NA","response":0,"repeated":0,"rt":7.032,"trial":"NA"},{"":226,"subject":14,"within_identifier":"false_50","statement_identifier":106,"presentation_identifier":1,"statement_number":106,"statement_accuracy":0,"statement_text":"NA","response":0,"repeated":0,"rt":6.457,"trial":"NA"},{"":227,"subject":14,"within_identifier":"false_50","statement_identifier":107,"presentation_identifier":1,"statement_number":107,"statement_accuracy":0,"statement_text":"NA","response":0,"repeated":0,"rt":4.802,"trial":"NA"},{"":228,"subject":14,"within_identifier":"false_50","statement_identifier":108,"presentation_identifier":1,"statement_number":108,"statement_accuracy":0,"statement_text":"NA","response":0,"repeated":0,"rt":2.56,"trial":"NA"},{"":229,"subject":14,"within_identifier":"false_50","statement_identifier":109,"presentation_identifier":1,"statement_number":109,"statement_accuracy":0,"statement_text":"NA","response":1,"repeated":0,"rt":3.974,"trial":"NA"},{"":230,"subject":14,"within_identifier":"false_50","statement_identifier":110,"presentation_identifier":1,"statement_number":110,"statement_accuracy":0,"statement_text":"NA","response":1,"repeated":0,"rt":5.778,"trial":"NA"},{"":231,"subject":14,"within_identifier":"false_60","statement_identifier":111,"presentation_identifier":1,"statement_number":111,"statement_accuracy":0,"statement_text":"NA","response":0,"repeated":0,"rt":3.495,"trial":"NA"},{"":232,"subject":14,"within_identifier":"false_60","statement_identifier":112,"presentation_identifier":1,"statement_number":112,"statement_accuracy":0,"statement_text":"NA","response":1,"repeated":0,"rt":1.833,"trial":"NA"},{"":233,"subject":14,"within_identifier":"false_60","statement_identifier":113,"presentation_identifier":1,"statement_number":113,"statement_accuracy":0,"statement_text":"NA","response":0,"repeated":0,"rt":4.455,"trial":"NA"},{"":234,"subject":14,"within_identifier":"false_60","statement_identifier":114,"presentation_identifier":1,"statement_number":114,"statement_accuracy":0,"statement_text":"NA","response":0,"repeated":0,"rt":5.351,"trial":"NA"},{"":235,"subject":14,"within_identifier":"false_60","statement_identifier":115,"presentation_identifier":1,"statement_number":115,"statement_accuracy":0,"statement_text":"NA","response":0,"repeated":0,"rt":3.385,"trial":"NA"},{"":236,"subject":14,"within_identifier":"false_70","statement_identifier":116,"presentation_identifier":1,"statement_number":116,"statement_accuracy":0,"statement_text":"NA","response":1,"repeated":0,"rt":10.009,"trial":"NA"},{"":237,"subject":14,"within_identifier":"false_70","statement_identifier":117,"presentation_identifier":1,"statement_number":117,"statement_accuracy":0,"statement_text":"NA","response":0,"repeated":0,"rt":2.999,"trial":"NA"},{"":238,"subject":14,"within_identifier":"false_70","statement_identifier":118,"presentation_identifier":1,"statement_number":118,"statement_accuracy":0,"statement_text":"NA","response":1,"repeated":0,"rt":3.212,"trial":"NA"},{"":239,"subject":14,"within_identifier":"false_70","statement_identifier":119,"presentation_identifier":1,"statement_number":119,"statement_accuracy":0,"statement_text":"NA","response":0,"repeated":0,"rt":4.361,"trial":"NA"},{"":240,"subject":14,"within_identifier":"false_70","statement_identifier":120,"presentation_identifier":1,"statement_number":120,"statement_accuracy":0,"statement_text":"NA","response":1,"repeated":0,"rt":2.981,"trial":"NA"},{"":241,"subject":18,"within_identifier":"true_50","statement_identifier":1,"presentation_identifier":1,"statement_number":1,"statement_accuracy":1,"statement_text":"NA","response":0,"repeated":1,"rt":5.434,"trial":"NA"},{"":242,"subject":18,"within_identifier":"true_50","statement_identifier":2,"presentation_identifier":1,"statement_number":2,"statement_accuracy":1,"statement_text":"NA","response":1,"repeated":1,"rt":7.393,"trial":"NA"},{"":243,"subject":18,"within_identifier":"true_50","statement_identifier":3,"presentation_identifier":1,"statement_number":3,"statement_accuracy":1,"statement_text":"NA","response":0,"repeated":1,"rt":4.726,"trial":"NA"},{"":244,"subject":18,"within_identifier":"true_50","statement_identifier":4,"presentation_identifier":1,"statement_number":4,"statement_accuracy":1,"statement_text":"NA","response":1,"repeated":1,"rt":5.564,"trial":"NA"},{"":245,"subject":18,"within_identifier":"true_50","statement_identifier":5,"presentation_identifier":1,"statement_number":5,"statement_accuracy":1,"statement_text":"NA","response":1,"repeated":1,"rt":3.853,"trial":"NA"},{"":246,"subject":18,"within_identifier":"true_60","statement_identifier":6,"presentation_identifier":1,"statement_number":6,"statement_accuracy":1,"statement_text":"NA","response":0,"repeated":1,"rt":3.627,"trial":"NA"},{"":247,"subject":18,"within_identifier":"true_60","statement_identifier":7,"presentation_identifier":1,"statement_number":7,"statement_accuracy":1,"statement_text":"NA","response":1,"repeated":1,"rt":6.286,"trial":"NA"},{"":248,"subject":18,"within_identifier":"true_60","statement_identifier":8,"presentation_identifier":1,"statement_number":8,"statement_accuracy":1,"statement_text":"NA","response":1,"repeated":1,"rt":4.71,"trial":"NA"},{"":249,"subject":18,"within_identifier":"true_60","statement_identifier":9,"presentation_identifier":1,"statement_number":9,"statement_accuracy":1,"statement_text":"NA","response":1,"repeated":1,"rt":6.139,"trial":"NA"},{"":250,"subject":18,"within_identifier":"true_60","statement_identifier":10,"presentation_identifier":1,"statement_number":10,"statement_accuracy":1,"statement_text":"NA","response":1,"repeated":1,"rt":7.89,"trial":"NA"},{"":251,"subject":18,"within_identifier":"true_70","statement_identifier":11,"presentation_identifier":1,"statement_number":11,"statement_accuracy":1,"statement_text":"NA","response":1,"repeated":1,"rt":6.628,"trial":"NA"},{"":252,"subject":18,"within_identifier":"true_70","statement_identifier":12,"presentation_identifier":1,"statement_number":12,"statement_accuracy":1,"statement_text":"NA","response":0,"repeated":1,"rt":5.273,"trial":"NA"},{"":253,"subject":18,"within_identifier":"true_70","statement_identifier":13,"presentation_identifier":1,"statement_number":13,"statement_accuracy":1,"statement_text":"NA","response":1,"repeated":1,"rt":3.063,"trial":"NA"},{"":254,"subject":18,"within_identifier":"true_70","statement_identifier":14,"presentation_identifier":1,"statement_number":14,"statement_accuracy":1,"statement_text":"NA","response":1,"repeated":1,"rt":6.564,"trial":"NA"},{"":255,"subject":18,"within_identifier":"true_70","statement_identifier":15,"presentation_identifier":1,"statement_number":15,"statement_accuracy":1,"statement_text":"NA","response":1,"repeated":1,"rt":6.793,"trial":"NA"},{"":256,"subject":18,"within_identifier":"false_50","statement_identifier":16,"presentation_identifier":1,"statement_number":16,"statement_accuracy":1,"statement_text":"NA","response":1,"repeated":1,"rt":3.827,"trial":"NA"},{"":257,"subject":18,"within_identifier":"false_50","statement_identifier":17,"presentation_identifier":1,"statement_number":17,"statement_accuracy":1,"statement_text":"NA","response":1,"repeated":1,"rt":4.012,"trial":"NA"},{"":258,"subject":18,"within_identifier":"false_50","statement_identifier":18,"presentation_identifier":1,"statement_number":18,"statement_accuracy":1,"statement_text":"NA","response":0,"repeated":1,"rt":4.205,"trial":"NA"},{"":259,"subject":18,"within_identifier":"false_50","statement_identifier":19,"presentation_identifier":1,"statement_number":19,"statement_accuracy":1,"statement_text":"NA","response":0,"repeated":1,"rt":2.99,"trial":"NA"},{"":260,"subject":18,"within_identifier":"false_50","statement_identifier":20,"presentation_identifier":1,"statement_number":20,"statement_accuracy":1,"statement_text":"NA","response":0,"repeated":1,"rt":16.52,"trial":"NA"},{"":261,"subject":18,"within_identifier":"false_60","statement_identifier":21,"presentation_identifier":1,"statement_number":21,"statement_accuracy":1,"statement_text":"NA","response":0,"repeated":1,"rt":6.437,"trial":"NA"},{"":262,"subject":18,"within_identifier":"false_60","statement_identifier":22,"presentation_identifier":1,"statement_number":22,"statement_accuracy":1,"statement_text":"NA","response":0,"repeated":1,"rt":25.92,"trial":"NA"},{"":263,"subject":18,"within_identifier":"false_60","statement_identifier":23,"presentation_identifier":1,"statement_number":23,"statement_accuracy":1,"statement_text":"NA","response":0,"repeated":1,"rt":7.209,"trial":"NA"},{"":264,"subject":18,"within_identifier":"false_60","statement_identifier":24,"presentation_identifier":1,"statement_number":24,"statement_accuracy":1,"statement_text":"NA","response":0,"repeated":1,"rt":4.722,"trial":"NA"},{"":265,"subject":18,"within_identifier":"false_60","statement_identifier":25,"presentation_identifier":1,"statement_number":25,"statement_accuracy":1,"statement_text":"NA","response":1,"repeated":1,"rt":11.431,"trial":"NA"},{"":266,"subject":18,"within_identifier":"false_70","statement_identifier":26,"presentation_identifier":1,"statement_number":26,"statement_accuracy":1,"statement_text":"NA","response":0,"repeated":1,"rt":5.527,"trial":"NA"},{"":267,"subject":18,"within_identifier":"false_70","statement_identifier":27,"presentation_identifier":1,"statement_number":27,"statement_accuracy":1,"statement_text":"NA","response":1,"repeated":1,"rt":3.37,"trial":"NA"},{"":268,"subject":18,"within_identifier":"false_70","statement_identifier":28,"presentation_identifier":1,"statement_number":28,"statement_accuracy":1,"statement_text":"NA","response":0,"repeated":1,"rt":4.911,"trial":"NA"},{"":269,"subject":18,"within_identifier":"false_70","statement_identifier":29,"presentation_identifier":1,"statement_number":29,"statement_accuracy":1,"statement_text":"NA","response":0,"repeated":1,"rt":3.856,"trial":"NA"},{"":270,"subject":18,"within_identifier":"false_70","statement_identifier":30,"presentation_identifier":1,"statement_number":30,"statement_accuracy":1,"statement_text":"NA","response":0,"repeated":1,"rt":5.645,"trial":"NA"},{"":271,"subject":18,"within_identifier":"true_50","statement_identifier":31,"presentation_identifier":1,"statement_number":31,"statement_accuracy":1,"statement_text":"NA","response":1,"repeated":0,"rt":3.922,"trial":"NA"},{"":272,"subject":18,"within_identifier":"true_50","statement_identifier":32,"presentation_identifier":1,"statement_number":32,"statement_accuracy":1,"statement_text":"NA","response":1,"repeated":0,"rt":5.32,"trial":"NA"},{"":273,"subject":18,"within_identifier":"true_50","statement_identifier":33,"presentation_identifier":1,"statement_number":33,"statement_accuracy":1,"statement_text":"NA","response":1,"repeated":0,"rt":4.545,"trial":"NA"},{"":274,"subject":18,"within_identifier":"true_50","statement_identifier":34,"presentation_identifier":1,"statement_number":34,"statement_accuracy":1,"statement_text":"NA","response":1,"repeated":0,"rt":6.379,"trial":"NA"},{"":275,"subject":18,"within_identifier":"true_50","statement_identifier":35,"presentation_identifier":1,"statement_number":35,"statement_accuracy":1,"statement_text":"NA","response":0,"repeated":0,"rt":3.053,"trial":"NA"},{"":276,"subject":18,"within_identifier":"true_60","statement_identifier":36,"presentation_identifier":1,"statement_number":36,"statement_accuracy":1,"statement_text":"NA","response":1,"repeated":0,"rt":5.941,"trial":"NA"},{"":277,"subject":18,"within_identifier":"true_60","statement_identifier":37,"presentation_identifier":1,"statement_number":37,"statement_accuracy":1,"statement_text":"NA","response":1,"repeated":0,"rt":4.76,"trial":"NA"},{"":278,"subject":18,"within_identifier":"true_60","statement_identifier":38,"presentation_identifier":1,"statement_number":38,"statement_accuracy":1,"statement_text":"NA","response":0,"repeated":0,"rt":5.476,"trial":"NA"},{"":279,"subject":18,"within_identifier":"true_60","statement_identifier":39,"presentation_identifier":1,"statement_number":39,"statement_accuracy":1,"statement_text":"NA","response":1,"repeated":0,"rt":9.156,"trial":"NA"},{"":280,"subject":18,"within_identifier":"true_60","statement_identifier":40,"presentation_identifier":1,"statement_number":40,"statement_accuracy":1,"statement_text":"NA","response":0,"repeated":0,"rt":13.544,"trial":"NA"},{"":281,"subject":18,"within_identifier":"true_70","statement_identifier":41,"presentation_identifier":1,"statement_number":41,"statement_accuracy":1,"statement_text":"NA","response":1,"repeated":0,"rt":7.369,"trial":"NA"},{"":282,"subject":18,"within_identifier":"true_70","statement_identifier":42,"presentation_identifier":1,"statement_number":42,"statement_accuracy":1,"statement_text":"NA","response":1,"repeated":0,"rt":6.86,"trial":"NA"},{"":283,"subject":18,"within_identifier":"true_70","statement_identifier":43,"presentation_identifier":1,"statement_number":43,"statement_accuracy":1,"statement_text":"NA","response":0,"repeated":0,"rt":8.907,"trial":"NA"},{"":284,"subject":18,"within_identifier":"true_70","statement_identifier":44,"presentation_identifier":1,"statement_number":44,"statement_accuracy":1,"statement_text":"NA","response":0,"repeated":0,"rt":9.855,"trial":"NA"},{"":285,"subject":18,"within_identifier":"true_70","statement_identifier":45,"presentation_identifier":1,"statement_number":45,"statement_accuracy":1,"statement_text":"NA","response":1,"repeated":0,"rt":20.153,"trial":"NA"},{"":286,"subject":18,"within_identifier":"false_50","statement_identifier":46,"presentation_identifier":1,"statement_number":46,"statement_accuracy":1,"statement_text":"NA","response":1,"repeated":0,"rt":16.39,"trial":"NA"},{"":287,"subject":18,"within_identifier":"false_50","statement_identifier":47,"presentation_identifier":1,"statement_number":47,"statement_accuracy":1,"statement_text":"NA","response":0,"repeated":0,"rt":3.083,"trial":"NA"},{"":288,"subject":18,"within_identifier":"false_50","statement_identifier":48,"presentation_identifier":1,"statement_number":48,"statement_accuracy":1,"statement_text":"NA","response":0,"repeated":0,"rt":6.423,"trial":"NA"},{"":289,"subject":18,"within_identifier":"false_50","statement_identifier":49,"presentation_identifier":1,"statement_number":49,"statement_accuracy":1,"statement_text":"NA","response":1,"repeated":0,"rt":8.197,"trial":"NA"},{"":290,"subject":18,"within_identifier":"false_50","statement_identifier":50,"presentation_identifier":1,"statement_number":50,"statement_accuracy":1,"statement_text":"NA","response":1,"repeated":0,"rt":3.477,"trial":"NA"},{"":291,"subject":18,"within_identifier":"false_60","statement_identifier":51,"presentation_identifier":1,"statement_number":51,"statement_accuracy":1,"statement_text":"NA","response":0,"repeated":0,"rt":4.9,"trial":"NA"},{"":292,"subject":18,"within_identifier":"false_60","statement_identifier":52,"presentation_identifier":1,"statement_number":52,"statement_accuracy":1,"statement_text":"NA","response":1,"repeated":0,"rt":4.468,"trial":"NA"},{"":293,"subject":18,"within_identifier":"false_60","statement_identifier":53,"presentation_identifier":1,"statement_number":53,"statement_accuracy":1,"statement_text":"NA","response":0,"repeated":0,"rt":4.058,"trial":"NA"},{"":294,"subject":18,"within_identifier":"false_60","statement_identifier":54,"presentation_identifier":1,"statement_number":54,"statement_accuracy":1,"statement_text":"NA","response":0,"repeated":0,"rt":7.341,"trial":"NA"},{"":295,"subject":18,"within_identifier":"false_60","statement_identifier":55,"presentation_identifier":1,"statement_number":55,"statement_accuracy":1,"statement_text":"NA","response":0,"repeated":0,"rt":3.964,"trial":"NA"},{"":296,"subject":18,"within_identifier":"false_70","statement_identifier":56,"presentation_identifier":1,"statement_number":56,"statement_accuracy":1,"statement_text":"NA","response":0,"repeated":0,"rt":5.979,"trial":"NA"},{"":297,"subject":18,"within_identifier":"false_70","statement_identifier":57,"presentation_identifier":1,"statement_number":57,"statement_accuracy":1,"statement_text":"NA","response":0,"repeated":0,"rt":9.577,"trial":"NA"},{"":298,"subject":18,"within_identifier":"false_70","statement_identifier":58,"presentation_identifier":1,"statement_number":58,"statement_accuracy":1,"statement_text":"NA","response":0,"repeated":0,"rt":7.113,"trial":"NA"},{"":299,"subject":18,"within_identifier":"false_70","statement_identifier":59,"presentation_identifier":1,"statement_number":59,"statement_accuracy":1,"statement_text":"NA","response":0,"repeated":0,"rt":8.026,"trial":"NA"},{"":300,"subject":18,"within_identifier":"false_70","statement_identifier":60,"presentation_identifier":1,"statement_number":60,"statement_accuracy":1,"statement_text":"NA","response":1,"repeated":0,"rt":5.191,"trial":"NA"},{"":301,"subject":18,"within_identifier":"true_50","statement_identifier":61,"presentation_identifier":1,"statement_number":61,"statement_accuracy":0,"statement_text":"NA","response":0,"repeated":1,"rt":6.635,"trial":"NA"},{"":302,"subject":18,"within_identifier":"true_50","statement_identifier":62,"presentation_identifier":1,"statement_number":62,"statement_accuracy":0,"statement_text":"NA","response":1,"repeated":1,"rt":5.455,"trial":"NA"},{"":303,"subject":18,"within_identifier":"true_50","statement_identifier":63,"presentation_identifier":1,"statement_number":63,"statement_accuracy":0,"statement_text":"NA","response":0,"repeated":1,"rt":9.292,"trial":"NA"},{"":304,"subject":18,"within_identifier":"true_50","statement_identifier":64,"presentation_identifier":1,"statement_number":64,"statement_accuracy":0,"statement_text":"NA","response":1,"repeated":1,"rt":4.761,"trial":"NA"},{"":305,"subject":18,"within_identifier":"true_50","statement_identifier":65,"presentation_identifier":1,"statement_number":65,"statement_accuracy":0,"statement_text":"NA","response":0,"repeated":1,"rt":10.175,"trial":"NA"},{"":306,"subject":18,"within_identifier":"true_60","statement_identifier":66,"presentation_identifier":1,"statement_number":66,"statement_accuracy":0,"statement_text":"NA","response":1,"repeated":1,"rt":5.937,"trial":"NA"},{"":307,"subject":18,"within_identifier":"true_60","statement_identifier":67,"presentation_identifier":1,"statement_number":67,"statement_accuracy":0,"statement_text":"NA","response":1,"repeated":1,"rt":10.062,"trial":"NA"},{"":308,"subject":18,"within_identifier":"true_60","statement_identifier":68,"presentation_identifier":1,"statement_number":68,"statement_accuracy":0,"statement_text":"NA","response":1,"repeated":1,"rt":9.502,"trial":"NA"},{"":309,"subject":18,"within_identifier":"true_60","statement_identifier":69,"presentation_identifier":1,"statement_number":69,"statement_accuracy":0,"statement_text":"NA","response":1,"repeated":1,"rt":6.406,"trial":"NA"},{"":310,"subject":18,"within_identifier":"true_60","statement_identifier":70,"presentation_identifier":1,"statement_number":70,"statement_accuracy":0,"statement_text":"NA","response":0,"repeated":1,"rt":6.754,"trial":"NA"},{"":311,"subject":18,"within_identifier":"true_70","statement_identifier":71,"presentation_identifier":1,"statement_number":71,"statement_accuracy":0,"statement_text":"NA","response":1,"repeated":1,"rt":8.452,"trial":"NA"},{"":312,"subject":18,"within_identifier":"true_70","statement_identifier":72,"presentation_identifier":1,"statement_number":72,"statement_accuracy":0,"statement_text":"NA","response":1,"repeated":1,"rt":3.998,"trial":"NA"},{"":313,"subject":18,"within_identifier":"true_70","statement_identifier":73,"presentation_identifier":1,"statement_number":73,"statement_accuracy":0,"statement_text":"NA","response":1,"repeated":1,"rt":8.259,"trial":"NA"},{"":314,"subject":18,"within_identifier":"true_70","statement_identifier":74,"presentation_identifier":1,"statement_number":74,"statement_accuracy":0,"statement_text":"NA","response":1,"repeated":1,"rt":7.033,"trial":"NA"},{"":315,"subject":18,"within_identifier":"true_70","statement_identifier":75,"presentation_identifier":1,"statement_number":75,"statement_accuracy":0,"statement_text":"NA","response":1,"repeated":1,"rt":10.147,"trial":"NA"},{"":316,"subject":18,"within_identifier":"false_50","statement_identifier":76,"presentation_identifier":1,"statement_number":76,"statement_accuracy":0,"statement_text":"NA","response":0,"repeated":1,"rt":24.313,"trial":"NA"},{"":317,"subject":18,"within_identifier":"false_50","statement_identifier":77,"presentation_identifier":1,"statement_number":77,"statement_accuracy":0,"statement_text":"NA","response":1,"repeated":1,"rt":4.653,"trial":"NA"},{"":318,"subject":18,"within_identifier":"false_50","statement_identifier":78,"presentation_identifier":1,"statement_number":78,"statement_accuracy":0,"statement_text":"NA","response":0,"repeated":1,"rt":6.45,"trial":"NA"},{"":319,"subject":18,"within_identifier":"false_50","statement_identifier":79,"presentation_identifier":1,"statement_number":79,"statement_accuracy":0,"statement_text":"NA","response":1,"repeated":1,"rt":4.59,"trial":"NA"},{"":320,"subject":18,"within_identifier":"false_50","statement_identifier":80,"presentation_identifier":1,"statement_number":80,"statement_accuracy":0,"statement_text":"NA","response":0,"repeated":1,"rt":6.02,"trial":"NA"},{"":321,"subject":18,"within_identifier":"false_60","statement_identifier":81,"presentation_identifier":1,"statement_number":81,"statement_accuracy":0,"statement_text":"NA","response":1,"repeated":1,"rt":4.038,"trial":"NA"},{"":322,"subject":18,"within_identifier":"false_60","statement_identifier":82,"presentation_identifier":1,"statement_number":82,"statement_accuracy":0,"statement_text":"NA","response":1,"repeated":1,"rt":9.559,"trial":"NA"},{"":323,"subject":18,"within_identifier":"false_60","statement_identifier":83,"presentation_identifier":1,"statement_number":83,"statement_accuracy":0,"statement_text":"NA","response":1,"repeated":1,"rt":4.701,"trial":"NA"},{"":324,"subject":18,"within_identifier":"false_60","statement_identifier":84,"presentation_identifier":1,"statement_number":84,"statement_accuracy":0,"statement_text":"NA","response":1,"repeated":1,"rt":5.498,"trial":"NA"},{"":325,"subject":18,"within_identifier":"false_60","statement_identifier":85,"presentation_identifier":1,"statement_number":85,"statement_accuracy":0,"statement_text":"NA","response":0,"repeated":1,"rt":7.397,"trial":"NA"},{"":326,"subject":18,"within_identifier":"false_70","statement_identifier":86,"presentation_identifier":1,"statement_number":86,"statement_accuracy":0,"statement_text":"NA","response":0,"repeated":1,"rt":3.682,"trial":"NA"},{"":327,"subject":18,"within_identifier":"false_70","statement_identifier":87,"presentation_identifier":1,"statement_number":87,"statement_accuracy":0,"statement_text":"NA","response":1,"repeated":1,"rt":3.585,"trial":"NA"},{"":328,"subject":18,"within_identifier":"false_70","statement_identifier":88,"presentation_identifier":1,"statement_number":88,"statement_accuracy":0,"statement_text":"NA","response":0,"repeated":1,"rt":10.772,"trial":"NA"},{"":329,"subject":18,"within_identifier":"false_70","statement_identifier":89,"presentation_identifier":1,"statement_number":89,"statement_accuracy":0,"statement_text":"NA","response":0,"repeated":1,"rt":3.59,"trial":"NA"},{"":330,"subject":18,"within_identifier":"false_70","statement_identifier":90,"presentation_identifier":1,"statement_number":90,"statement_accuracy":0,"statement_text":"NA","response":0,"repeated":1,"rt":6.248,"trial":"NA"},{"":331,"subject":18,"within_identifier":"true_50","statement_identifier":91,"presentation_identifier":1,"statement_number":91,"statement_accuracy":0,"statement_text":"NA","response":1,"repeated":0,"rt":7.008,"trial":"NA"},{"":332,"subject":18,"within_identifier":"true_50","statement_identifier":92,"presentation_identifier":1,"statement_number":92,"statement_accuracy":0,"statement_text":"NA","response":0,"repeated":0,"rt":2.881,"trial":"NA"},{"":333,"subject":18,"within_identifier":"true_50","statement_identifier":93,"presentation_identifier":1,"statement_number":93,"statement_accuracy":0,"statement_text":"NA","response":1,"repeated":0,"rt":7.473,"trial":"NA"},{"":334,"subject":18,"within_identifier":"true_50","statement_identifier":94,"presentation_identifier":1,"statement_number":94,"statement_accuracy":0,"statement_text":"NA","response":0,"repeated":0,"rt":17.611,"trial":"NA"},{"":335,"subject":18,"within_identifier":"true_50","statement_identifier":95,"presentation_identifier":1,"statement_number":95,"statement_accuracy":0,"statement_text":"NA","response":0,"repeated":0,"rt":3.95,"trial":"NA"},{"":336,"subject":18,"within_identifier":"true_60","statement_identifier":96,"presentation_identifier":1,"statement_number":96,"statement_accuracy":0,"statement_text":"NA","response":0,"repeated":0,"rt":4.817,"trial":"NA"},{"":337,"subject":18,"within_identifier":"true_60","statement_identifier":97,"presentation_identifier":1,"statement_number":97,"statement_accuracy":0,"statement_text":"NA","response":0,"repeated":0,"rt":8.642,"trial":"NA"},{"":338,"subject":18,"within_identifier":"true_60","statement_identifier":98,"presentation_identifier":1,"statement_number":98,"statement_accuracy":0,"statement_text":"NA","response":1,"repeated":0,"rt":5.911,"trial":"NA"},{"":339,"subject":18,"within_identifier":"true_60","statement_identifier":99,"presentation_identifier":1,"statement_number":99,"statement_accuracy":0,"statement_text":"NA","response":1,"repeated":0,"rt":2.998,"trial":"NA"},{"":340,"subject":18,"within_identifier":"true_60","statement_identifier":100,"presentation_identifier":1,"statement_number":100,"statement_accuracy":0,"statement_text":"NA","response":1,"repeated":0,"rt":15.45,"trial":"NA"},{"":341,"subject":18,"within_identifier":"true_70","statement_identifier":101,"presentation_identifier":1,"statement_number":101,"statement_accuracy":0,"statement_text":"NA","response":1,"repeated":0,"rt":5.588,"trial":"NA"},{"":342,"subject":18,"within_identifier":"true_70","statement_identifier":102,"presentation_identifier":1,"statement_number":102,"statement_accuracy":0,"statement_text":"NA","response":1,"repeated":0,"rt":2.916,"trial":"NA"},{"":343,"subject":18,"within_identifier":"true_70","statement_identifier":103,"presentation_identifier":1,"statement_number":103,"statement_accuracy":0,"statement_text":"NA","response":1,"repeated":0,"rt":5.873,"trial":"NA"},{"":344,"subject":18,"within_identifier":"true_70","statement_identifier":104,"presentation_identifier":1,"statement_number":104,"statement_accuracy":0,"statement_text":"NA","response":1,"repeated":0,"rt":8.665,"trial":"NA"},{"":345,"subject":18,"within_identifier":"true_70","statement_identifier":105,"presentation_identifier":1,"statement_number":105,"statement_accuracy":0,"statement_text":"NA","response":1,"repeated":0,"rt":4.775,"trial":"NA"},{"":346,"subject":18,"within_identifier":"false_50","statement_identifier":106,"presentation_identifier":1,"statement_number":106,"statement_accuracy":0,"statement_text":"NA","response":0,"repeated":0,"rt":1.277,"trial":"NA"},{"":347,"subject":18,"within_identifier":"false_50","statement_identifier":107,"presentation_identifier":1,"statement_number":107,"statement_accuracy":0,"statement_text":"NA","response":0,"repeated":0,"rt":11.791,"trial":"NA"},{"":348,"subject":18,"within_identifier":"false_50","statement_identifier":108,"presentation_identifier":1,"statement_number":108,"statement_accuracy":0,"statement_text":"NA","response":1,"repeated":0,"rt":4.709,"trial":"NA"},{"":349,"subject":18,"within_identifier":"false_50","statement_identifier":109,"presentation_identifier":1,"statement_number":109,"statement_accuracy":0,"statement_text":"NA","response":1,"repeated":0,"rt":3.988,"trial":"NA"},{"":350,"subject":18,"within_identifier":"false_50","statement_identifier":110,"presentation_identifier":1,"statement_number":110,"statement_accuracy":0,"statement_text":"NA","response":0,"repeated":0,"rt":8.465,"trial":"NA"},{"":351,"subject":18,"within_identifier":"false_60","statement_identifier":111,"presentation_identifier":1,"statement_number":111,"statement_accuracy":0,"statement_text":"NA","response":1,"repeated":0,"rt":6.725,"trial":"NA"},{"":352,"subject":18,"within_identifier":"false_60","statement_identifier":112,"presentation_identifier":1,"statement_number":112,"statement_accuracy":0,"statement_text":"NA","response":0,"repeated":0,"rt":4.656,"trial":"NA"},{"":353,"subject":18,"within_identifier":"false_60","statement_identifier":113,"presentation_identifier":1,"statement_number":113,"statement_accuracy":0,"statement_text":"NA","response":0,"repeated":0,"rt":5.109,"trial":"NA"},{"":354,"subject":18,"within_identifier":"false_60","statement_identifier":114,"presentation_identifier":1,"statement_number":114,"statement_accuracy":0,"statement_text":"NA","response":0,"repeated":0,"rt":9.149,"trial":"NA"},{"":355,"subject":18,"within_identifier":"false_60","statement_identifier":115,"presentation_identifier":1,"statement_number":115,"statement_accuracy":0,"statement_text":"NA","response":0,"repeated":0,"rt":7.862,"trial":"NA"},{"":356,"subject":18,"within_identifier":"false_70","statement_identifier":116,"presentation_identifier":1,"statement_number":116,"statement_accuracy":0,"statement_text":"NA","response":1,"repeated":0,"rt":4.802,"trial":"NA"},{"":357,"subject":18,"within_identifier":"false_70","statement_identifier":117,"presentation_identifier":1,"statement_number":117,"statement_accuracy":0,"statement_text":"NA","response":0,"repeated":0,"rt":4.071,"trial":"NA"},{"":358,"subject":18,"within_identifier":"false_70","statement_identifier":118,"presentation_identifier":1,"statement_number":118,"statement_accuracy":0,"statement_text":"NA","response":1,"repeated":0,"rt":5.268,"trial":"NA"},{"":359,"subject":18,"within_identifier":"false_70","statement_identifier":119,"presentation_identifier":1,"statement_number":119,"statement_accuracy":0,"statement_text":"NA","response":1,"repeated":0,"rt":6.042,"trial":"NA"},{"":360,"subject":18,"within_identifier":"false_70","statement_identifier":120,"presentation_identifier":1,"statement_number":120,"statement_accuracy":0,"statement_text":"NA","response":1,"repeated":0,"rt":11.241,"trial":"NA"},{"":361,"subject":26,"within_identifier":"true_50","statement_identifier":1,"presentation_identifier":1,"statement_number":1,"statement_accuracy":1,"statement_text":"NA","response":1,"repeated":1,"rt":1.597,"trial":"NA"},{"":362,"subject":26,"within_identifier":"true_50","statement_identifier":2,"presentation_identifier":1,"statement_number":2,"statement_accuracy":1,"statement_text":"NA","response":0,"repeated":1,"rt":2.668,"trial":"NA"},{"":363,"subject":26,"within_identifier":"true_50","statement_identifier":3,"presentation_identifier":1,"statement_number":3,"statement_accuracy":1,"statement_text":"NA","response":1,"repeated":1,"rt":3.812,"trial":"NA"},{"":364,"subject":26,"within_identifier":"true_50","statement_identifier":4,"presentation_identifier":1,"statement_number":4,"statement_accuracy":1,"statement_text":"NA","response":1,"repeated":1,"rt":1.475,"trial":"NA"},{"":365,"subject":26,"within_identifier":"true_50","statement_identifier":5,"presentation_identifier":1,"statement_number":5,"statement_accuracy":1,"statement_text":"NA","response":0,"repeated":1,"rt":6.178,"trial":"NA"},{"":366,"subject":26,"within_identifier":"true_60","statement_identifier":6,"presentation_identifier":1,"statement_number":6,"statement_accuracy":1,"statement_text":"NA","response":1,"repeated":1,"rt":3.637,"trial":"NA"},{"":367,"subject":26,"within_identifier":"true_60","statement_identifier":7,"presentation_identifier":1,"statement_number":7,"statement_accuracy":1,"statement_text":"NA","response":1,"repeated":1,"rt":6.002,"trial":"NA"},{"":368,"subject":26,"within_identifier":"true_60","statement_identifier":8,"presentation_identifier":1,"statement_number":8,"statement_accuracy":1,"statement_text":"NA","response":0,"repeated":1,"rt":6.501,"trial":"NA"},{"":369,"subject":26,"within_identifier":"true_60","statement_identifier":9,"presentation_identifier":1,"statement_number":9,"statement_accuracy":1,"statement_text":"NA","response":1,"repeated":1,"rt":2.407,"trial":"NA"},{"":370,"subject":26,"within_identifier":"true_60","statement_identifier":10,"presentation_identifier":1,"statement_number":10,"statement_accuracy":1,"statement_text":"NA","response":1,"repeated":1,"rt":3.023,"trial":"NA"},{"":371,"subject":26,"within_identifier":"true_70","statement_identifier":11,"presentation_identifier":1,"statement_number":11,"statement_accuracy":1,"statement_text":"NA","response":1,"repeated":1,"rt":2.475,"trial":"NA"},{"":372,"subject":26,"within_identifier":"true_70","statement_identifier":12,"presentation_identifier":1,"statement_number":12,"statement_accuracy":1,"statement_text":"NA","response":0,"repeated":1,"rt":10.275,"trial":"NA"},{"":373,"subject":26,"within_identifier":"true_70","statement_identifier":13,"presentation_identifier":1,"statement_number":13,"statement_accuracy":1,"statement_text":"NA","response":1,"repeated":1,"rt":5.482,"trial":"NA"},{"":374,"subject":26,"within_identifier":"true_70","statement_identifier":14,"presentation_identifier":1,"statement_number":14,"statement_accuracy":1,"statement_text":"NA","response":0,"repeated":1,"rt":2.254,"trial":"NA"},{"":375,"subject":26,"within_identifier":"true_70","statement_identifier":15,"presentation_identifier":1,"statement_number":15,"statement_accuracy":1,"statement_text":"NA","response":0,"repeated":1,"rt":2.936,"trial":"NA"},{"":376,"subject":26,"within_identifier":"false_50","statement_identifier":16,"presentation_identifier":1,"statement_number":16,"statement_accuracy":1,"statement_text":"NA","response":0,"repeated":1,"rt":3.643,"trial":"NA"},{"":377,"subject":26,"within_identifier":"false_50","statement_identifier":17,"presentation_identifier":1,"statement_number":17,"statement_accuracy":1,"statement_text":"NA","response":1,"repeated":1,"rt":5.497,"trial":"NA"},{"":378,"subject":26,"within_identifier":"false_50","statement_identifier":18,"presentation_identifier":1,"statement_number":18,"statement_accuracy":1,"statement_text":"NA","response":0,"repeated":1,"rt":4.963,"trial":"NA"},{"":379,"subject":26,"within_identifier":"false_50","statement_identifier":19,"presentation_identifier":1,"statement_number":19,"statement_accuracy":1,"statement_text":"NA","response":0,"repeated":1,"rt":4.805,"trial":"NA"},{"":380,"subject":26,"within_identifier":"false_50","statement_identifier":20,"presentation_identifier":1,"statement_number":20,"statement_accuracy":1,"statement_text":"NA","response":1,"repeated":1,"rt":5.375,"trial":"NA"},{"":381,"subject":26,"within_identifier":"false_60","statement_identifier":21,"presentation_identifier":1,"statement_number":21,"statement_accuracy":1,"statement_text":"NA","response":1,"repeated":1,"rt":4,"trial":"NA"},{"":382,"subject":26,"within_identifier":"false_60","statement_identifier":22,"presentation_identifier":1,"statement_number":22,"statement_accuracy":1,"statement_text":"NA","response":1,"repeated":1,"rt":1.582,"trial":"NA"},{"":383,"subject":26,"within_identifier":"false_60","statement_identifier":23,"presentation_identifier":1,"statement_number":23,"statement_accuracy":1,"statement_text":"NA","response":1,"repeated":1,"rt":6.751,"trial":"NA"},{"":384,"subject":26,"within_identifier":"false_60","statement_identifier":24,"presentation_identifier":1,"statement_number":24,"statement_accuracy":1,"statement_text":"NA","response":0,"repeated":1,"rt":6.886,"trial":"NA"},{"":385,"subject":26,"within_identifier":"false_60","statement_identifier":25,"presentation_identifier":1,"statement_number":25,"statement_accuracy":1,"statement_text":"NA","response":1,"repeated":1,"rt":1.726,"trial":"NA"},{"":386,"subject":26,"within_identifier":"false_70","statement_identifier":26,"presentation_identifier":1,"statement_number":26,"statement_accuracy":1,"statement_text":"NA","response":1,"repeated":1,"rt":10.318,"trial":"NA"},{"":387,"subject":26,"within_identifier":"false_70","statement_identifier":27,"presentation_identifier":1,"statement_number":27,"statement_accuracy":1,"statement_text":"NA","response":0,"repeated":1,"rt":5.829,"trial":"NA"},{"":388,"subject":26,"within_identifier":"false_70","statement_identifier":28,"presentation_identifier":1,"statement_number":28,"statement_accuracy":1,"statement_text":"NA","response":1,"repeated":1,"rt":2.53,"trial":"NA"},{"":389,"subject":26,"within_identifier":"false_70","statement_identifier":29,"presentation_identifier":1,"statement_number":29,"statement_accuracy":1,"statement_text":"NA","response":0,"repeated":1,"rt":6.125,"trial":"NA"},{"":390,"subject":26,"within_identifier":"false_70","statement_identifier":30,"presentation_identifier":1,"statement_number":30,"statement_accuracy":1,"statement_text":"NA","response":0,"repeated":1,"rt":5.529,"trial":"NA"},{"":391,"subject":26,"within_identifier":"true_50","statement_identifier":31,"presentation_identifier":1,"statement_number":31,"statement_accuracy":1,"statement_text":"NA","response":0,"repeated":0,"rt":2.109,"trial":"NA"},{"":392,"subject":26,"within_identifier":"true_50","statement_identifier":32,"presentation_identifier":1,"statement_number":32,"statement_accuracy":1,"statement_text":"NA","response":1,"repeated":0,"rt":4.826,"trial":"NA"},{"":393,"subject":26,"within_identifier":"true_50","statement_identifier":33,"presentation_identifier":1,"statement_number":33,"statement_accuracy":1,"statement_text":"NA","response":0,"repeated":0,"rt":3.697,"trial":"NA"},{"":394,"subject":26,"within_identifier":"true_50","statement_identifier":34,"presentation_identifier":1,"statement_number":34,"statement_accuracy":1,"statement_text":"NA","response":1,"repeated":0,"rt":2.064,"trial":"NA"},{"":395,"subject":26,"within_identifier":"true_50","statement_identifier":35,"presentation_identifier":1,"statement_number":35,"statement_accuracy":1,"statement_text":"NA","response":1,"repeated":0,"rt":4.815,"trial":"NA"},{"":396,"subject":26,"within_identifier":"true_60","statement_identifier":36,"presentation_identifier":1,"statement_number":36,"statement_accuracy":1,"statement_text":"NA","response":0,"repeated":0,"rt":5.939,"trial":"NA"},{"":397,"subject":26,"within_identifier":"true_60","statement_identifier":37,"presentation_identifier":1,"statement_number":37,"statement_accuracy":1,"statement_text":"NA","response":1,"repeated":0,"rt":3.917,"trial":"NA"},{"":398,"subject":26,"within_identifier":"true_60","statement_identifier":38,"presentation_identifier":1,"statement_number":38,"statement_accuracy":1,"statement_text":"NA","response":0,"repeated":0,"rt":4.201,"trial":"NA"},{"":399,"subject":26,"within_identifier":"true_60","statement_identifier":39,"presentation_identifier":1,"statement_number":39,"statement_accuracy":1,"statement_text":"NA","response":1,"repeated":0,"rt":4.264,"trial":"NA"},{"":400,"subject":26,"within_identifier":"true_60","statement_identifier":40,"presentation_identifier":1,"statement_number":40,"statement_accuracy":1,"statement_text":"NA","response":1,"repeated":0,"rt":4.375,"trial":"NA"},{"":401,"subject":26,"within_identifier":"true_70","statement_identifier":41,"presentation_identifier":1,"statement_number":41,"statement_accuracy":1,"statement_text":"NA","response":1,"repeated":0,"rt":6.418,"trial":"NA"},{"":402,"subject":26,"within_identifier":"true_70","statement_identifier":42,"presentation_identifier":1,"statement_number":42,"statement_accuracy":1,"statement_text":"NA","response":1,"repeated":0,"rt":2.795,"trial":"NA"},{"":403,"subject":26,"within_identifier":"true_70","statement_identifier":43,"presentation_identifier":1,"statement_number":43,"statement_accuracy":1,"statement_text":"NA","response":0,"repeated":0,"rt":6.885,"trial":"NA"},{"":404,"subject":26,"within_identifier":"true_70","statement_identifier":44,"presentation_identifier":1,"statement_number":44,"statement_accuracy":1,"statement_text":"NA","response":0,"repeated":0,"rt":6.072,"trial":"NA"},{"":405,"subject":26,"within_identifier":"true_70","statement_identifier":45,"presentation_identifier":1,"statement_number":45,"statement_accuracy":1,"statement_text":"NA","response":1,"repeated":0,"rt":3.679,"trial":"NA"},{"":406,"subject":26,"within_identifier":"false_50","statement_identifier":46,"presentation_identifier":1,"statement_number":46,"statement_accuracy":1,"statement_text":"NA","response":1,"repeated":0,"rt":5.83,"trial":"NA"},{"":407,"subject":26,"within_identifier":"false_50","statement_identifier":47,"presentation_identifier":1,"statement_number":47,"statement_accuracy":1,"statement_text":"NA","response":0,"repeated":0,"rt":10.264,"trial":"NA"},{"":408,"subject":26,"within_identifier":"false_50","statement_identifier":48,"presentation_identifier":1,"statement_number":48,"statement_accuracy":1,"statement_text":"NA","response":1,"repeated":0,"rt":7.789,"trial":"NA"},{"":409,"subject":26,"within_identifier":"false_50","statement_identifier":49,"presentation_identifier":1,"statement_number":49,"statement_accuracy":1,"statement_text":"NA","response":0,"repeated":0,"rt":4.431,"trial":"NA"},{"":410,"subject":26,"within_identifier":"false_50","statement_identifier":50,"presentation_identifier":1,"statement_number":50,"statement_accuracy":1,"statement_text":"NA","response":1,"repeated":0,"rt":7.298,"trial":"NA"},{"":411,"subject":26,"within_identifier":"false_60","statement_identifier":51,"presentation_identifier":1,"statement_number":51,"statement_accuracy":1,"statement_text":"NA","response":0,"repeated":0,"rt":7.811,"trial":"NA"},{"":412,"subject":26,"within_identifier":"false_60","statement_identifier":52,"presentation_identifier":1,"statement_number":52,"statement_accuracy":1,"statement_text":"NA","response":1,"repeated":0,"rt":2.519,"trial":"NA"},{"":413,"subject":26,"within_identifier":"false_60","statement_identifier":53,"presentation_identifier":1,"statement_number":53,"statement_accuracy":1,"statement_text":"NA","response":0,"repeated":0,"rt":3.524,"trial":"NA"},{"":414,"subject":26,"within_identifier":"false_60","statement_identifier":54,"presentation_identifier":1,"statement_number":54,"statement_accuracy":1,"statement_text":"NA","response":1,"repeated":0,"rt":1.903,"trial":"NA"},{"":415,"subject":26,"within_identifier":"false_60","statement_identifier":55,"presentation_identifier":1,"statement_number":55,"statement_accuracy":1,"statement_text":"NA","response":1,"repeated":0,"rt":4.614,"trial":"NA"},{"":416,"subject":26,"within_identifier":"false_70","statement_identifier":56,"presentation_identifier":1,"statement_number":56,"statement_accuracy":1,"statement_text":"NA","response":1,"repeated":0,"rt":2.249,"trial":"NA"},{"":417,"subject":26,"within_identifier":"false_70","statement_identifier":57,"presentation_identifier":1,"statement_number":57,"statement_accuracy":1,"statement_text":"NA","response":0,"repeated":0,"rt":3.707,"trial":"NA"},{"":418,"subject":26,"within_identifier":"false_70","statement_identifier":58,"presentation_identifier":1,"statement_number":58,"statement_accuracy":1,"statement_text":"NA","response":0,"repeated":0,"rt":6.33,"trial":"NA"},{"":419,"subject":26,"within_identifier":"false_70","statement_identifier":59,"presentation_identifier":1,"statement_number":59,"statement_accuracy":1,"statement_text":"NA","response":0,"repeated":0,"rt":3.306,"trial":"NA"},{"":420,"subject":26,"within_identifier":"false_70","statement_identifier":60,"presentation_identifier":1,"statement_number":60,"statement_accuracy":1,"statement_text":"NA","response":1,"repeated":0,"rt":3.933,"trial":"NA"},{"":421,"subject":26,"within_identifier":"true_50","statement_identifier":61,"presentation_identifier":1,"statement_number":61,"statement_accuracy":0,"statement_text":"NA","response":1,"repeated":1,"rt":2.225,"trial":"NA"},{"":422,"subject":26,"within_identifier":"true_50","statement_identifier":62,"presentation_identifier":1,"statement_number":62,"statement_accuracy":0,"statement_text":"NA","response":1,"repeated":1,"rt":4.611,"trial":"NA"},{"":423,"subject":26,"within_identifier":"true_50","statement_identifier":63,"presentation_identifier":1,"statement_number":63,"statement_accuracy":0,"statement_text":"NA","response":1,"repeated":1,"rt":6.86,"trial":"NA"},{"":424,"subject":26,"within_identifier":"true_50","statement_identifier":64,"presentation_identifier":1,"statement_number":64,"statement_accuracy":0,"statement_text":"NA","response":1,"repeated":1,"rt":4.521,"trial":"NA"},{"":425,"subject":26,"within_identifier":"true_50","statement_identifier":65,"presentation_identifier":1,"statement_number":65,"statement_accuracy":0,"statement_text":"NA","response":1,"repeated":1,"rt":2.959,"trial":"NA"},{"":426,"subject":26,"within_identifier":"true_60","statement_identifier":66,"presentation_identifier":1,"statement_number":66,"statement_accuracy":0,"statement_text":"NA","response":1,"repeated":1,"rt":2.77,"trial":"NA"},{"":427,"subject":26,"within_identifier":"true_60","statement_identifier":67,"presentation_identifier":1,"statement_number":67,"statement_accuracy":0,"statement_text":"NA","response":1,"repeated":1,"rt":3.025,"trial":"NA"},{"":428,"subject":26,"within_identifier":"true_60","statement_identifier":68,"presentation_identifier":1,"statement_number":68,"statement_accuracy":0,"statement_text":"NA","response":0,"repeated":1,"rt":4.269,"trial":"NA"},{"":429,"subject":26,"within_identifier":"true_60","statement_identifier":69,"presentation_identifier":1,"statement_number":69,"statement_accuracy":0,"statement_text":"NA","response":0,"repeated":1,"rt":2.774,"trial":"NA"},{"":430,"subject":26,"within_identifier":"true_60","statement_identifier":70,"presentation_identifier":1,"statement_number":70,"statement_accuracy":0,"statement_text":"NA","response":0,"repeated":1,"rt":7.26,"trial":"NA"},{"":431,"subject":26,"within_identifier":"true_70","statement_identifier":71,"presentation_identifier":1,"statement_number":71,"statement_accuracy":0,"statement_text":"NA","response":0,"repeated":1,"rt":4.405,"trial":"NA"},{"":432,"subject":26,"within_identifier":"true_70","statement_identifier":72,"presentation_identifier":1,"statement_number":72,"statement_accuracy":0,"statement_text":"NA","response":0,"repeated":1,"rt":6.462,"trial":"NA"},{"":433,"subject":26,"within_identifier":"true_70","statement_identifier":73,"presentation_identifier":1,"statement_number":73,"statement_accuracy":0,"statement_text":"NA","response":0,"repeated":1,"rt":3.331,"trial":"NA"},{"":434,"subject":26,"within_identifier":"true_70","statement_identifier":74,"presentation_identifier":1,"statement_number":74,"statement_accuracy":0,"statement_text":"NA","response":1,"repeated":1,"rt":5.546,"trial":"NA"},{"":435,"subject":26,"within_identifier":"true_70","statement_identifier":75,"presentation_identifier":1,"statement_number":75,"statement_accuracy":0,"statement_text":"NA","response":0,"repeated":1,"rt":3.372,"trial":"NA"},{"":436,"subject":26,"within_identifier":"false_50","statement_identifier":76,"presentation_identifier":1,"statement_number":76,"statement_accuracy":0,"statement_text":"NA","response":1,"repeated":1,"rt":2.81,"trial":"NA"},{"":437,"subject":26,"within_identifier":"false_50","statement_identifier":77,"presentation_identifier":1,"statement_number":77,"statement_accuracy":0,"statement_text":"NA","response":1,"repeated":1,"rt":3.08,"trial":"NA"},{"":438,"subject":26,"within_identifier":"false_50","statement_identifier":78,"presentation_identifier":1,"statement_number":78,"statement_accuracy":0,"statement_text":"NA","response":1,"repeated":1,"rt":9.689,"trial":"NA"},{"":439,"subject":26,"within_identifier":"false_50","statement_identifier":79,"presentation_identifier":1,"statement_number":79,"statement_accuracy":0,"statement_text":"NA","response":0,"repeated":1,"rt":7.587,"trial":"NA"},{"":440,"subject":26,"within_identifier":"false_50","statement_identifier":80,"presentation_identifier":1,"statement_number":80,"statement_accuracy":0,"statement_text":"NA","response":0,"repeated":1,"rt":5.619,"trial":"NA"},{"":441,"subject":26,"within_identifier":"false_60","statement_identifier":81,"presentation_identifier":1,"statement_number":81,"statement_accuracy":0,"statement_text":"NA","response":0,"repeated":1,"rt":3.613,"trial":"NA"},{"":442,"subject":26,"within_identifier":"false_60","statement_identifier":82,"presentation_identifier":1,"statement_number":82,"statement_accuracy":0,"statement_text":"NA","response":1,"repeated":1,"rt":2.076,"trial":"NA"},{"":443,"subject":26,"within_identifier":"false_60","statement_identifier":83,"presentation_identifier":1,"statement_number":83,"statement_accuracy":0,"statement_text":"NA","response":0,"repeated":1,"rt":2.681,"trial":"NA"},{"":444,"subject":26,"within_identifier":"false_60","statement_identifier":84,"presentation_identifier":1,"statement_number":84,"statement_accuracy":0,"statement_text":"NA","response":1,"repeated":1,"rt":3.692,"trial":"NA"},{"":445,"subject":26,"within_identifier":"false_60","statement_identifier":85,"presentation_identifier":1,"statement_number":85,"statement_accuracy":0,"statement_text":"NA","response":1,"repeated":1,"rt":2.624,"trial":"NA"},{"":446,"su