"","subject","presentation_identifier","trial","between_identifier","statement_identifier","repeated","rt","response","certainty"
"1",2,2,1,0,1,0,0.933,1,3
"2",2,2,2,0,2,0,1.985,0,1
"3",2,2,3,0,3,0,2.019,0,1
"4",2,2,4,0,4,1,0.694,1,2
"5",2,2,5,0,5,1,1.494,0,2
"6",2,2,6,0,6,0,0.493,1,5
"7",2,2,7,0,7,1,0.526,1,5
"8",2,2,8,0,8,1,0.319,1,5
"9",2,2,9,0,9,1,0.303,1,5
"10",2,2,10,0,10,0,0.287,0,5
"11",2,2,11,0,11,1,0.582,1,5
"12",2,2,12,0,12,0,0.438,1,6
"13",2,2,13,0,13,0,0.912,1,2
"14",2,2,14,0,14,1,0.268,1,2
"15",2,2,15,0,15,1,0.495,0,1
"16",2,2,16,0,16,0,1.894,0,2
"17",2,2,17,0,17,1,1.462,1,2
"18",2,2,18,0,18,0,3.597,1,2
"19",2,2,19,0,19,1,2.572,1,2
"20",2,2,20,0,20,0,0.577,0,1
"21",2,2,21,0,21,0,1.077,1,1
"22",2,2,22,0,22,1,0.367,1,5
"23",2,2,23,0,23,1,0.713,1,5
"24",2,2,24,0,24,0,2.247,1,2
"25",2,2,25,0,25,0,1.678,0,1
"26",2,2,26,0,26,1,0.087,1,2
"27",2,2,27,0,27,1,2.246,1,2
"28",2,2,28,0,28,0,0.342,1,2
"29",2,2,29,0,29,0,1.02,1,1
"30",2,2,30,0,30,1,0.308,1,2
"31",2,2,31,0,31,0,0.549,1,2
"32",2,2,32,0,32,1,1.073,1,5
"33",2,2,33,0,33,1,0.35,1,6
"34",2,2,34,0,34,1,0.46,1,1
"35",2,2,35,0,35,0,0.73,1,1
"36",2,2,36,0,36,0,0.303,0,2
"37",2,2,37,0,37,1,0.109,1,5
"38",2,2,38,0,38,1,1.588,1,2
"39",2,2,39,0,39,1,1.219,0,5
"40",2,2,40,0,40,0,0.284,0,1
"41",2,2,41,0,41,0,0.53,1,2
"42",2,2,42,0,42,0,0.771,0,2
"43",2,2,43,0,43,0,1.605,1,2
"44",2,2,44,0,44,0,0.826,1,2
"45",2,2,45,0,45,0,0.287,1,5
"46",2,2,46,0,46,1,0.395,1,5
"47",2,2,47,0,47,1,0.375,1,2
"48",2,2,48,0,48,0,0.372,1,3
"49",2,2,49,0,49,1,0.375,1,2
"50",2,2,50,0,50,1,0.253,1,5
"51",2,2,51,0,51,0,2.035,1,5
"52",2,2,52,0,52,1,3.95,1,6
"53",2,2,53,0,53,0,0.835,1,2
"54",2,2,54,0,54,0,0.435,1,5
"55",2,2,55,0,55,1,0.412,1,5
"56",2,2,56,0,56,1,3.129,1,1
"57",2,2,57,0,57,0,1.509,1,2
"58",2,2,58,0,58,1,2.974,1,1
"59",2,2,59,0,59,1,0.269,0,2
"60",2,2,60,0,60,0,2.798,0,1
"61",4,2,1,0,36,1,1.058,0,3
"62",4,2,2,0,5,0,2.196,1,2
"63",4,2,3,0,45,1,1.051,1,4
"64",4,2,4,0,52,0,1.365,0,5
"65",4,2,5,0,33,0,3.409,0,2
"66",4,2,6,0,15,0,1.101,1,3
"67",4,2,7,0,6,1,2.379,1,5
"68",4,2,8,0,47,0,2.842,0,1
"69",4,2,9,0,26,0,1.412,1,3
"70",4,2,10,0,37,0,1.26,1,3
"71",4,2,11,0,35,1,1.89,1,5
"72",4,2,12,0,40,1,0.584,1,4
"73",4,2,13,0,53,1,0.497,0,3
"74",4,2,14,0,23,0,2.628,1,5
"75",4,2,15,0,41,1,0.7,0,6
"76",4,2,16,0,27,0,1.475,0,3
"77",4,2,17,0,49,0,1.826,0,5
"78",4,2,18,0,18,1,0.354,0,6
"79",4,2,19,0,44,1,0.336,1,5
"80",4,2,20,0,21,1,0.302,1,4
"81",4,2,21,0,30,0,0.292,1,5
"82",4,2,22,0,29,1,1.047,0,3
"83",4,2,23,0,32,0,1.183,1,4
"84",4,2,24,0,51,1,1.096,1,6
"85",4,2,25,0,20,1,1.606,1,5
"86",4,2,26,0,4,0,0.881,1,4
"87",4,2,27,0,31,1,0.942,0,4
"88",4,2,28,0,11,0,0.363,1,6
"89",4,2,29,0,48,1,1.015,1,4
"90",4,2,30,0,10,1,0.477,0,3
"91",4,2,31,0,57,1,0.354,1,5
"92",4,2,32,0,60,1,0.533,0,3
"93",4,2,33,0,16,1,0.98,0,1
"94",4,2,34,0,1,1,0.452,1,6
"95",4,2,35,0,46,0,1.473,1,4
"96",4,2,36,0,39,0,1.053,0,1
"97",4,2,37,0,28,1,1.546,1,4
"98",4,2,38,0,7,0,1.155,1,3
"99",4,2,39,0,3,1,0.369,1,5
"100",4,2,40,0,54,1,0.372,1,6
"101",4,2,41,0,58,0,0.576,1,3
"102",4,2,42,0,13,1,1.805,0,3
"103",4,2,43,0,19,0,0.595,0,1
"104",4,2,44,0,24,1,1.399,1,3
"105",4,2,45,0,42,1,0.352,1,6
"106",4,2,46,0,14,0,1.28,1,3
"107",4,2,47,0,25,1,0.318,1,5
"108",4,2,48,0,9,0,0.874,1,5
"109",4,2,49,0,59,0,1.193,0,6
"110",4,2,50,0,17,0,0.798,1,3
"111",4,2,51,0,22,0,0.245,0,1
"112",4,2,52,0,50,0,0.799,1,4
"113",4,2,53,0,55,0,0.324,1,3
"114",4,2,54,0,8,0,0.301,1,4
"115",4,2,55,0,56,0,0.514,0,2
"116",4,2,56,0,12,1,0.413,1,5
"117",4,2,57,0,43,1,0.339,1,6
"118",4,2,58,0,2,1,0.349,1,6
"119",4,2,59,0,38,0,0.857,1,3
"120",4,2,60,0,34,0,0.489,0,1
"121",6,2,1,0,6,0,3.977,0,4
"122",6,2,2,0,28,0,10.122,0,6
"123",6,2,3,0,25,0,0.97,0,2
"124",6,2,4,0,44,0,4.109,1,4
"125",6,2,5,0,51,0,1.866,1,4
"126",6,2,6,0,61,1,1.788,1,5
"127",6,2,7,0,45,0,3.277,0,6
"128",6,2,8,0,12,0,1.611,1,6
"129",6,2,9,0,43,0,2.68,0,1
"130",6,2,10,0,62,1,4.54,0,6
"131",6,2,11,0,63,1,1.222,1,3
"132",6,2,12,0,64,1,1.131,0,5
"133",6,2,13,0,65,1,5.611,0,4
"134",6,2,14,0,2,0,8,1,1
"135",6,2,15,0,20,0,1.333,0,6
"136",6,2,16,0,66,1,11.947,0,3
"137",6,2,17,0,67,1,6.683,1,4
"138",6,2,18,0,48,0,2.39,0,5
"139",6,2,19,0,68,1,4.02,1,1
"140",6,2,20,0,31,0,1.411,1,3
"141",6,2,21,0,69,1,1.497,0,6
"142",6,2,22,0,53,0,3.257,1,4
"143",6,2,23,0,24,0,2.691,0,5
"144",6,2,24,0,16,0,8.039,0,5
"145",6,2,25,0,70,1,8.005,0,5
"146",6,2,26,0,57,0,5,1,1
"147",6,2,27,0,13,0,1.645,0,6
"148",6,2,28,0,40,0,1.324,1,5
"149",6,2,29,0,71,1,1.982,0,5
"150",6,2,30,0,72,1,3.998,0,5
"151",6,2,31,0,10,0,13.103,0,5
"152",6,2,32,0,73,1,6.092,1,4
"153",6,2,33,0,74,1,1.98,0,3
"154",6,2,34,0,18,0,2.02,1,6
"155",6,2,35,0,75,1,2.987,1,2
"156",6,2,36,0,54,0,9.686,1,2
"157",6,2,37,0,1,0,1.195,0,6
"158",6,2,38,0,76,1,1.025,1,3
"159",6,2,39,0,77,1,6.043,1,1
"160",6,2,40,0,41,0,4.316,1,3
"161",6,2,41,0,36,0,4.295,1,4
"162",6,2,42,0,78,1,1.22,1,3
"163",6,2,43,0,79,1,1.376,1,5
"164",6,2,44,0,80,1,1.303,0,3
"165",6,2,45,0,35,0,3.269,0,6
"166",6,2,46,0,81,1,7.874,0,4
"167",6,2,47,0,3,0,1.05,1,2
"168",6,2,48,0,82,1,5.167,0,6
"169",6,2,49,0,83,1,1.228,0,5
"170",6,2,50,0,42,0,0.845,0,4
"171",6,2,51,0,29,0,1.615,1,1
"172",6,2,52,0,84,1,2.414,1,3
"173",6,2,53,0,85,1,7.989,0,4
"174",6,2,54,0,86,1,1.154,1,2
"175",6,2,55,0,87,1,1.253,1,6
"176",6,2,56,0,88,1,1.764,1,1
"177",6,2,57,0,89,1,1.132,1,6
"178",6,2,58,0,21,0,1,1,5
"179",6,2,59,0,60,0,1.178,0,4
"180",6,2,60,0,90,1,1.406,1,4
"181",8,2,1,0,85,0,3.673,0,1
"182",8,2,2,0,18,1,8.716,0,1
"183",8,2,3,0,90,0,5.744,1,1
"184",8,2,4,0,12,1,5.12,1,2
"185",8,2,5,0,25,1,5.674,1,1
"186",8,2,6,0,86,0,4.581,0,1
"187",8,2,7,0,64,0,3.96,1,3
"188",8,2,8,0,84,0,1.129,1,2
"189",8,2,9,0,35,1,9.509,0,1
"190",8,2,10,0,62,0,11.115,1,3
"191",8,2,11,0,74,0,6.54,0,4
"192",8,2,12,0,71,0,1.543,0,1
"193",8,2,13,0,21,1,1.487,0,3
"194",8,2,14,0,48,1,2.868,1,2
"195",8,2,15,0,53,1,2.969,1,3
"196",8,2,16,0,81,0,2.408,0,1
"197",8,2,17,0,24,1,2.142,1,1
"198",8,2,18,0,31,1,8.908,0,1
"199",8,2,19,0,70,0,3.673,1,1
"200",8,2,20,0,65,0,1.778,1,3
"201",8,2,21,0,88,0,1.504,1,4
"202",8,2,22,0,36,1,9.794,0,1
"203",8,2,23,0,40,1,3.825,0,1
"204",8,2,24,0,68,0,10.193,1,1
"205",8,2,25,0,10,1,3.012,0,1
"206",8,2,26,0,73,0,2.242,0,2
"207",8,2,27,0,82,0,7.371,1,3
"208",8,2,28,0,63,0,3.768,1,2
"209",8,2,29,0,69,0,1.303,0,1
"210",8,2,30,0,20,1,4.731,0,1
"211",8,2,31,0,2,1,3.894,1,1
"212",8,2,32,0,67,0,1.519,1,3
"213",8,2,33,0,66,0,1.729,1,1
"214",8,2,34,0,16,1,2.368,0,1
"215",8,2,35,0,51,1,2.486,1,2
"216",8,2,36,0,6,1,6.576,0,3
"217",8,2,37,0,42,1,1.394,1,1
"218",8,2,38,0,41,1,0.874,1,1
"219",8,2,39,0,1,1,3.816,0,1
"220",8,2,40,0,87,0,1.156,0,3
"221",8,2,41,0,13,1,0.431,1,1
"222",8,2,42,0,76,0,1.809,0,1
"223",8,2,43,0,54,1,0.649,1,1
"224",8,2,44,0,78,0,1.423,1,1
"225",8,2,45,0,77,0,2.581,1,2
"226",8,2,46,0,75,0,2.443,0,2
"227",8,2,47,0,28,1,2.662,1,1
"228",8,2,48,0,83,0,1.873,0,1
"229",8,2,49,0,57,1,2.051,0,1
"230",8,2,50,0,3,1,2.768,1,1
"231",8,2,51,0,60,1,2.123,0,1
"232",8,2,52,0,79,0,1.466,1,2
"233",8,2,53,0,72,0,3.296,0,2
"234",8,2,54,0,80,0,3.022,0,1
"235",8,2,55,0,89,0,3.844,0,1
"236",8,2,56,0,45,1,2.499,1,1
"237",8,2,57,0,43,1,1.74,0,1
"238",8,2,58,0,61,0,4.286,1,2
"239",8,2,59,0,44,1,5.165,1,1
"240",8,2,60,0,29,1,1.278,0,1
"241",10,2,1,0,87,1,3.79,1,3
"242",10,2,2,0,72,1,0.857,0,4
"243",10,2,3,0,46,0,0.945,1,4
"244",10,2,4,0,85,1,0.417,1,3
"245",10,2,5,0,81,1,0.879,1,3
"246",10,2,6,0,15,0,1.6,1,3
"247",10,2,7,0,7,0,2.009,0,2
"248",10,2,8,0,27,0,0.427,1,2
"249",10,2,9,0,17,0,2.272,1,3
"250",10,2,10,0,47,0,0.544,1,2
"251",10,2,11,0,73,1,1.483,1,3
"252",10,2,12,0,78,1,0.391,1,2
"253",10,2,13,0,4,0,0.569,1,4
"254",10,2,14,0,79,1,2.744,1,4
"255",10,2,15,0,56,0,3.364,0,4
"256",10,2,16,0,69,1,0.685,1,3
"257",10,2,17,0,14,0,2.448,0,3
"258",10,2,18,0,89,1,0.836,1,4
"259",10,2,19,0,71,1,0.575,1,2
"260",10,2,20,0,66,1,0.99,1,5
"261",10,2,21,0,68,1,0.997,0,2
"262",10,2,22,0,8,0,1.107,0,1
"263",10,2,23,0,62,1,4.256,1,2
"264",10,2,24,0,83,1,0.901,1,3
"265",10,2,25,0,52,0,3.1,1,3
"266",10,2,26,0,50,0,0.558,1,3
"267",10,2,27,0,37,0,0.42,0,2
"268",10,2,28,0,19,0,0.753,1,3
"269",10,2,29,0,55,0,0.527,1,5
"270",10,2,30,0,59,0,0.85,0,2
"271",10,2,31,0,38,0,1.966,0,3
"272",10,2,32,0,74,1,2.156,1,3
"273",10,2,33,0,26,0,0.812,1,2
"274",10,2,34,0,67,1,0.8,1,5
"275",10,2,35,0,32,0,0.987,0,3
"276",10,2,36,0,49,0,1.014,1,5
"277",10,2,37,0,58,0,2.169,1,2
"278",10,2,38,0,22,0,0.497,1,2
"279",10,2,39,0,86,1,0.632,1,6
"280",10,2,40,0,30,0,4.505,0,3
"281",10,2,41,0,39,0,3.681,1,1
"282",10,2,42,0,84,1,2.832,1,3
"283",10,2,43,0,88,1,3.855,1,2
"284",10,2,44,0,23,0,3.558,0,3
"285",10,2,45,0,33,0,0.544,1,2
"286",10,2,46,0,65,1,0.803,1,5
"287",10,2,47,0,63,1,0.576,1,5
"288",10,2,48,0,70,1,2.496,0,2
"289",10,2,49,0,9,0,1.254,1,3
"290",10,2,50,0,77,1,0.795,1,5
"291",10,2,51,0,34,0,1.337,1,2
"292",10,2,52,0,61,1,1.054,1,4
"293",10,2,53,0,64,1,3.807,1,3
"294",10,2,54,0,11,0,6.525,0,3
"295",10,2,55,0,90,1,1.043,1,5
"296",10,2,56,0,82,1,0.786,1,3
"297",10,2,57,0,75,1,0.466,1,4
"298",10,2,58,0,76,1,0.75,1,5
"299",10,2,59,0,80,1,2.213,0,1
"300",10,2,60,0,5,0,1.644,1,2
"301",12,2,1,0,47,1,2.248,0,1
"302",12,2,2,0,56,1,1.669,0,3
"303",12,2,3,0,71,0,2.184,0,2
"304",12,2,4,0,37,1,3.33,1,1
"305",12,2,5,0,73,0,1.769,1,2
"306",12,2,6,0,15,1,1.457,1,4
"307",12,2,7,0,65,0,2.474,0,3
"308",12,2,8,0,59,1,1.404,1,3
"309",12,2,9,0,38,1,3.226,1,2
"310",12,2,10,0,49,1,5.203,0,3
"311",12,2,11,0,83,0,3.187,0,2
"312",12,2,12,0,33,1,1.244,1,6
"313",12,2,13,0,32,1,4.087,1,2
"314",12,2,14,0,84,0,1.895,1,2
"315",12,2,15,0,64,0,1.445,1,2
"316",12,2,16,0,62,0,5.006,1,5
"317",12,2,17,0,17,1,1.872,1,3
"318",12,2,18,0,79,0,1.997,0,3
"319",12,2,19,0,34,1,2.045,0,2
"320",12,2,20,0,63,0,1.115,1,2
"321",12,2,21,0,11,1,1.384,0,4
"322",12,2,22,0,50,1,1.217,1,5
"323",12,2,23,0,66,0,1.455,0,5
"324",12,2,24,0,23,1,2.661,1,4
"325",12,2,25,0,14,1,1.625,0,4
"326",12,2,26,0,87,0,4.059,1,3
"327",12,2,27,0,77,0,2.935,1,4
"328",12,2,28,0,19,1,2.622,1,3
"329",12,2,29,0,72,0,0.978,0,4
"330",12,2,30,0,75,0,1.511,0,6
"331",12,2,31,0,5,1,2.444,0,2
"332",12,2,32,0,26,1,1.65,1,2
"333",12,2,33,0,4,1,3.708,1,2
"334",12,2,34,0,76,0,1.155,1,1
"335",12,2,35,0,78,0,1.049,0,3
"336",12,2,36,0,82,0,1.377,0,2
"337",12,2,37,0,67,0,0.982,1,3
"338",12,2,38,0,7,1,2.753,1,2
"339",12,2,39,0,39,1,1.928,1,2
"340",12,2,40,0,52,1,1.674,0,4
"341",12,2,41,0,80,0,2.465,0,5
"342",12,2,42,0,88,0,3.744,0,3
"343",12,2,43,0,27,1,3.299,1,2
"344",12,2,44,0,9,1,0.711,1,4
"345",12,2,45,0,74,0,2.297,1,3
"346",12,2,46,0,30,1,0.807,1,2
"347",12,2,47,0,89,0,1.537,1,1
"348",12,2,48,0,81,0,3.454,0,2
"349",12,2,49,0,55,1,1.522,0,1
"350",12,2,50,0,70,0,3.954,0,3
"351",12,2,51,0,90,0,2.143,0,1
"352",12,2,52,0,46,1,0.999,0,2
"353",12,2,53,0,58,1,1.517,1,2
"354",12,2,54,0,8,1,2.67,1,1
"355",12,2,55,0,68,0,1.269,0,1
"356",12,2,56,0,22,1,0.742,1,2
"357",12,2,57,0,69,0,2.573,1,2
"358",12,2,58,0,61,0,2.314,0,1
"359",12,2,59,0,86,0,0.827,1,2
"360",12,2,60,0,85,0,1.481,1,3
"361",14,2,1,0,7,1,1.706,1,3
"362",14,2,2,0,1,0,1.664,0,3
"363",14,2,3,0,36,0,1.46,0,6
"364",14,2,4,0,34,1,2.452,1,3
"365",14,2,5,0,29,0,0.996,1,1
"366",14,2,6,0,42,0,3.131,1,4
"367",14,2,7,0,39,1,5.477,0,4
"368",14,2,8,0,43,0,3.282,1,3
"369",14,2,9,0,16,0,2.457,0,2
"370",14,2,10,0,37,1,0.571,1,5
"371",14,2,11,0,55,1,1.808,1,3
"372",14,2,12,0,9,1,1.317,1,6
"373",14,2,13,0,24,0,2.862,1,3
"374",14,2,14,0,59,1,0.736,1,6
"375",14,2,15,0,56,1,3.566,1,5
"376",14,2,16,0,17,1,2.323,1,3
"377",14,2,17,0,58,1,0.738,0,6
"378",14,2,18,0,35,0,1.639,0,3
"379",14,2,19,0,19,1,0.86,1,3
"380",14,2,20,0,53,0,2.272,1,4
"381",14,2,21,0,46,1,3.564,1,2
"382",14,2,22,0,38,1,1.844,1,2
"383",14,2,23,0,49,1,0.43,0,6
"384",14,2,24,0,25,0,2.472,0,3
"385",14,2,25,0,13,0,1.768,0,3
"386",14,2,26,0,2,0,0.877,1,1
"387",14,2,27,0,52,1,4.895,1,3
"388",14,2,28,0,44,0,0.611,1,4
"389",14,2,29,0,6,0,3.876,0,6
"390",14,2,30,0,60,0,0.865,1,3
"391",14,2,31,0,31,0,2.834,1,3
"392",14,2,32,0,4,1,0.575,1,4
"393",14,2,33,0,28,0,4.279,1,4
"394",14,2,34,0,50,1,3.253,0,1
"395",14,2,35,0,27,1,2.654,0,3
"396",14,2,36,0,41,0,3.014,1,4
"397",14,2,37,0,51,0,0.824,1,5
"398",14,2,38,0,18,0,0.67,0,6
"399",14,2,39,0,30,1,4.17,0,6
"400",14,2,40,0,10,0,3.661,0,6
"401",14,2,41,0,45,0,3.244,0,6
"402",14,2,42,0,47,1,2.914,1,1
"403",14,2,43,0,26,1,2.02,0,3
"404",14,2,44,0,21,0,6.25,1,3
"405",14,2,45,0,14,1,1.837,0,3
"406",14,2,46,0,11,1,1.276,0,4
"407",14,2,47,0,20,0,0.97,0,3
"408",14,2,48,0,8,1,0.383,1,5
"409",14,2,49,0,5,1,1.472,1,1
"410",14,2,50,0,23,1,1.308,0,5
"411",14,2,51,0,22,1,0.562,0,3
"412",14,2,52,0,48,0,3.75,1,3
"413",14,2,53,0,40,0,1.38,0,3
"414",14,2,54,0,57,0,0.789,1,4
"415",14,2,55,0,32,1,4.045,1,5
"416",14,2,56,0,12,0,0.387,1,6
"417",14,2,57,0,15,1,0.714,1,5
"418",14,2,58,0,3,0,0.49,1,6
"419",14,2,59,0,54,0,0.335,1,5
"420",14,2,60,0,33,1,0.401,0,3
"421",16,2,1,0,21,1,9.955,0,2
"422",16,2,2,0,56,0,3.212,1,3
"423",16,2,3,0,9,0,7.008,1,3
"424",16,2,4,0,13,1,4.329,1,3
"425",16,2,5,0,35,1,1.901,1,4
"426",16,2,6,0,37,0,2.966,1,6
"427",16,2,7,0,45,1,1.892,0,6
"428",16,2,8,0,36,1,1.69,0,1
"429",16,2,9,0,8,0,3.756,1,3
"430",16,2,10,0,52,0,10.125,1,3
"431",16,2,11,0,55,0,3.181,1,2
"432",16,2,12,0,31,1,3.9,1,1
"433",16,2,13,0,43,1,2.505,0,1
"434",16,2,14,0,26,0,7.028,0,1
"435",16,2,15,0,38,0,4.781,1,3
"436",16,2,16,0,16,1,8.942,1,3
"437",16,2,17,0,19,0,2.032,0,2
"438",16,2,18,0,42,1,10.244,0,3
"439",16,2,19,0,1,1,10.431,1,2
"440",16,2,20,0,46,0,8.784,1,3
"441",16,2,21,0,20,1,2.029,0,4
"442",16,2,22,0,47,0,1.612,0,4
"443",16,2,23,0,44,1,1.525,1,4
"444",16,2,24,0,4,0,3.042,1,6
"445",16,2,25,0,30,0,6.002,0,3
"446",16,2,26,0,41,1,9.353,1,1
"447",16,2,27,0,51,1,6.603,1,3
"448",16,2,28,0,50,0,3.098,0,4
"449",16,2,29,0,2,1,2.541,1,4
"450",16,2,30,0,25,1,3.173,0,6
"451",16,2,31,0,23,0,2.082,0,6
"452",16,2,32,0,10,1,4.537,0,5
"453",16,2,33,0,39,0,8.032,1,3
"454",16,2,34,0,54,1,3.563,1,4
"455",16,2,35,0,5,0,1.601,0,3
"456",16,2,36,0,7,0,3.47,1,1
"457",16,2,37,0,40,1,2.679,0,2
"458",16,2,38,0,24,1,2.478,0,1
"459",16,2,39,0,18,1,1.847,0,3
"460",16,2,40,0,57,1,1.398,1,2
"461",16,2,41,0,15,0,1.864,1,3
"462",16,2,42,0,27,0,2.365,0,3
"463",16,2,43,0,34,0,4.99,0,1
"464",16,2,44,0,11,0,7.076,0,4
"465",16,2,45,0,6,1,5.223,1,5
"466",16,2,46,0,17,0,4.176,1,3
"467",16,2,47,0,60,1,1.252,0,1
"468",16,2,48,0,29,1,1.388,0,2
"469",16,2,49,0,49,0,3.421,0,3
"470",16,2,50,0,12,1,1.658,1,5
"471",16,2,51,0,28,1,3.659,1,4
"472",16,2,52,0,48,1,2.999,1,4
"473",16,2,53,0,53,1,4.299,1,4
"474",16,2,54,0,3,1,1.894,0,4
"475",16,2,55,0,58,0,3.356,1,5
"476",16,2,56,0,22,0,2.399,0,1
"477",16,2,57,0,33,0,1.379,0,4
"478",16,2,58,0,32,0,4.501,1,2
"479",16,2,59,0,14,0,4.557,0,4
"480",16,2,60,0,59,0,9.833,0,5
"481",18,2,1,0,48,0,8.651,1,1
"482",18,2,2,0,91,1,1.597,1,3
"483",18,2,3,0,53,0,0.949,0,1
"484",18,2,4,0,92,1,1.097,1,3
"485",18,2,5,0,93,1,1.708,0,1
"486",18,2,6,0,18,0,1.382,0,1
"487",18,2,7,0,94,1,2.192,1,1
"488",18,2,8,0,1,0,1.616,0,3
"489",18,2,9,0,95,1,1.06,1,5
"490",18,2,10,0,28,0,1.151,1,5
"491",18,2,11,0,42,0,1.115,0,1
"492",18,2,12,0,36,0,0.525,1,1
"493",18,2,13,0,44,0,1.234,1,1
"494",18,2,14,0,6,0,1.553,1,1
"495",18,2,15,0,31,0,1.594,0,1
"496",18,2,16,0,96,1,0.848,1,1
"497",18,2,17,0,13,0,0.58,1,1
"498",18,2,18,0,97,1,2.286,1,4
"499",18,2,19,0,20,0,1.334,0,3
"500",18,2,20,0,54,0,1.325,1,3
"501",18,2,21,0,98,1,1.679,1,3
"502",18,2,22,0,99,1,1.254,1,6
"503",18,2,23,0,40,0,1.236,0,3
"504",18,2,24,0,100,1,1.303,1,6
"505",18,2,25,0,12,0,0.604,1,6
"506",18,2,26,0,101,1,1.453,0,6
"507",18,2,27,0,102,1,2.507,1,6
"508",18,2,28,0,103,1,1.505,0,6
"509",18,2,29,0,16,0,1.307,0,6
"510",18,2,30,0,41,0,1.111,1,3
"511",18,2,31,0,104,1,2.168,1,3
"512",18,2,32,0,105,1,0.559,1,4
"513",18,2,33,0,106,1,0.8,1,3
"514",18,2,34,0,25,0,1.899,0,2
"515",18,2,35,0,107,1,2.272,0,4
"516",18,2,36,0,35,0,1.448,1,3
"517",18,2,37,0,43,0,0.7,1,2
"518",18,2,38,0,108,1,0.828,1,4
"519",18,2,39,0,57,0,0.885,0,6
"520",18,2,40,0,109,1,0.42,1,3
"521",18,2,41,0,21,0,0.527,1,3
"522",18,2,42,0,24,0,1.194,0,1
"523",18,2,43,0,3,0,0.713,0,2
"524",18,2,44,0,110,1,1.484,1,2
"525",18,2,45,0,111,1,0.893,1,3
"526",18,2,46,0,29,0,0.891,0,1
"527",18,2,47,0,112,1,1.841,1,2
"528",18,2,48,0,113,1,0.524,1,6
"529",18,2,49,0,10,0,1.051,0,6
"530",18,2,50,0,51,0,0.72,1,3
"531",18,2,51,0,2,0,1.292,0,4
"532",18,2,52,0,114,1,0.864,1,3
"533",18,2,53,0,60,0,0.898,0,1
"534",18,2,54,0,115,1,0.417,1,2
"535",18,2,55,0,45,0,1.216,0,6
"536",18,2,56,0,116,1,0.718,1,1
"537",18,2,57,0,117,1,0.954,1,6
"538",18,2,58,0,118,1,0.687,1,2
"539",18,2,59,0,119,1,1.219,0,6
"540",18,2,60,0,120,1,0.998,1,3
"541",20,2,1,0,1,1,24.135,1,3
"542",20,2,2,0,48,1,2.508,0,5
"543",20,2,3,0,105,0,4.998,1,2
"544",20,2,4,0,44,1,4.055,1,2
"545",20,2,5,0,36,1,0.95,1,1
"546",20,2,6,0,20,1,3.755,0,6
"547",20,2,7,0,2,1,2.832,1,4
"548",20,2,8,0,115,0,3.635,1,2
"549",20,2,9,0,120,0,2.337,1,1
"550",20,2,10,0,54,1,1.671,1,5
"551",20,2,11,0,60,1,1.75,1,3
"552",20,2,12,0,42,1,1.253,1,2
"553",20,2,13,0,12,1,7.011,0,1
"554",20,2,14,0,94,0,2.311,1,5
"555",20,2,15,0,57,1,0.821,1,3
"556",20,2,16,0,107,0,1.831,0,3
"557",20,2,17,0,99,0,3.179,1,3
"558",20,2,18,0,112,0,6.818,0,4
"559",20,2,19,0,93,0,4.402,1,3
"560",20,2,20,0,104,0,5.059,1,2
"561",20,2,21,0,41,1,0.39,1,5
"562",20,2,22,0,97,0,3.732,1,2
"563",20,2,23,0,35,1,0.46,1,6
"564",20,2,24,0,98,0,1.135,1,3
"565",20,2,25,0,29,1,1.01,1,2
"566",20,2,26,0,3,1,1.43,1,1
"567",20,2,27,0,111,0,1.087,0,1
"568",20,2,28,0,118,0,10.106,1,2
"569",20,2,29,0,51,1,6.922,1,4
"570",20,2,30,0,100,0,1.604,0,2
"571",20,2,31,0,116,0,2.447,1,2
"572",20,2,32,0,31,1,1.16,0,1
"573",20,2,33,0,102,0,1.276,1,1
"574",20,2,34,0,18,1,0.82,1,4
"575",20,2,35,0,16,1,7.373,0,2
"576",20,2,36,0,109,0,1.37,1,2
"577",20,2,37,0,92,0,0.89,1,3
"578",20,2,38,0,43,1,0.609,0,2
"579",20,2,39,0,101,0,2.422,0,1
"580",20,2,40,0,119,0,6.94,0,2
"581",20,2,41,0,10,1,4.192,0,4
"582",20,2,42,0,45,1,1.09,0,6
"583",20,2,43,0,25,1,1.491,1,2
"584",20,2,44,0,24,1,0.775,1,3
"585",20,2,45,0,110,0,1.574,1,1
"586",20,2,46,0,13,1,0.44,1,4
"587",20,2,47,0,21,1,0.447,1,6
"588",20,2,48,0,53,1,0.653,0,1
"589",20,2,49,0,117,0,0.655,0,3
"590",20,2,50,0,28,1,2.267,1,5
"591",20,2,51,0,103,0,0.726,0,4
"592",20,2,52,0,96,0,2.649,0,6
"593",20,2,53,0,106,0,0.498,1,1
"594",20,2,54,0,91,0,9.204,0,1
"595",20,2,55,0,40,1,2.538,0,1
"596",20,2,56,0,6,1,0.736,0,3
"597",20,2,57,0,114,0,1.975,1,5
"598",20,2,58,0,113,0,0.542,1,1
"599",20,2,59,0,95,0,7.1,1,3
"600",20,2,60,0,108,0,2.159,0,5
"601",24,2,1,0,114,0,2.461,1,4
"602",24,2,2,0,103,0,2.193,1,6
"603",24,2,3,0,58,1,1.243,1,6
"604",24,2,4,0,113,0,1.78,0,2
"605",24,2,5,0,37,1,1.648,1,5
"606",24,2,6,0,27,1,1.507,1,4
"607",24,2,7,0,91,0,2.475,0,1
"608",24,2,8,0,56,1,2.001,1,3
"609",24,2,9,0,99,0,3.328,1,5
"610",24,2,10,0,93,0,3.002,0,1
"611",24,2,11,0,110,0,1.837,1,1
"612",24,2,12,0,112,0,1.326,1,4
"613",24,2,13,0,22,1,3.34,1,1
"614",24,2,14,0,15,1,1.593,1,3
"615",24,2,15,0,46,1,1.29,1,6
"616",24,2,16,0,14,1,4.959,0,4
"617",24,2,17,0,8,1,2.065,0,2
"618",24,2,18,0,111,0,1.688,0,4
"619",24,2,19,0,96,0,2.133,1,6
"620",24,2,20,0,47,1,1.736,0,6
"621",24,2,21,0,102,0,1.257,1,1
"622",24,2,22,0,120,0,3.728,0,6
"623",24,2,23,0,105,0,2.9,0,1
"624",24,2,24,0,34,1,2.276,1,1
"625",24,2,25,0,94,0,2.819,1,5
"626",24,2,26,0,104,0,1.678,0,4
"627",24,2,27,0,33,1,1.583,1,2
"628",24,2,28,0,5,1,3.253,1,1
"629",24,2,29,0,115,0,2.401,1,1
"630",24,2,30,0,4,1,1.15,1,6
"631",24,2,31,0,95,0,1.408,0,1
"632",24,2,32,0,19,1,1.059,1,1
"633",24,2,33,0,59,1,1.775,1,5
"634",24,2,34,0,107,0,2.66,0,1
"635",24,2,35,0,9,1,1.166,1,6
"636",24,2,36,0,26,1,1.61,0,6
"637",24,2,37,0,30,1,2.747,1,2
"638",24,2,38,0,101,0,1.76,0,6
"639",24,2,39,0,55,1,3.291,0,4
"640",24,2,40,0,38,1,1.601,1,1
"641",24,2,41,0,117,0,1.481,0,1
"642",24,2,42,0,17,1,1.821,1,2
"643",24,2,43,0,50,1,3.346,0,6
"644",24,2,44,0,98,0,1.762,0,1
"645",24,2,45,0,92,0,1.98,1,3
"646",24,2,46,0,118,0,2.461,1,4
"647",24,2,47,0,106,0,6.197,0,2
"648",24,2,48,0,100,0,1.633,0,5
"649",24,2,49,0,11,1,0.891,0,5
"650",24,2,50,0,7,1,2.158,1,4
"651",24,2,51,0,119,0,1.954,1,5
"652",24,2,52,0,52,1,1.595,1,4
"653",24,2,53,0,108,0,1.013,1,3
"654",24,2,54,0,32,1,2.45,0,4
"655",24,2,55,0,116,0,2.362,0,3
"656",24,2,56,0,97,0,1.478,1,1
"657",24,2,57,0,23,1,1.798,0,6
"658",24,2,58,0,109,0,3.3,1,4
"659",24,2,59,0,49,1,2.77,1,3
"660",24,2,60,0,39,1,1.648,0,3
"661",26,2,1,0,69,1,1.937,1,4
"662",26,2,2,0,3,0,1.928,1,6
"663",26,2,3,0,63,1,2.727,0,3
"664",26,2,4,0,73,1,0.39,1,5
"665",26,2,5,0,83,1,0.838,1,2
"666",26,2,6,0,82,1,0.628,0,3
"667",26,2,7,0,67,1,2.959,1,3
"668",26,2,8,0,29,0,2.854,0,1
"669",26,2,9,0,79,1,4.572,1,2
"670",26,2,10,0,85,1,0.468,1,3
"671",26,2,11,0,81,1,5.021,1,2
"672",26,2,12,0,51,0,0.784,1,4
"673",26,2,13,0,12,0,1.036,1,6
"674",26,2,14,0,6,0,0.684,1,6
"675",26,2,15,0,28,0,1.325,1,4
"676",26,2,16,0,24,0,4.821,1,2
"677",26,2,17,0,13,0,4.138,0,2
"678",26,2,18,0,54,0,3.38,1,3
"679",26,2,19,0,57,0,12.445,0,2
"680",26,2,20,0,61,1,0.344,1,4
"681",26,2,21,0,71,1,3.534,1,4
"682",26,2,22,0,90,1,0.741,1,3
"683",26,2,23,0,74,1,1.419,1,1
"684",26,2,24,0,88,1,1.173,0,4
"685",26,2,25,0,77,1,0.624,1,2
"686",26,2,26,0,75,1,2.461,1,6
"687",26,2,27,0,64,1,2.696,1,3
"688",26,2,28,0,89,1,1.522,1,2
"689",26,2,29,0,1,0,2.88,0,4
"690",26,2,30,0,48,0,3.261,0,2
"691",26,2,31,0,36,0,0.703,0,1
"692",26,2,32,0,87,1,0.405,1,6
"693",26,2,33,0,80,1,0.769,0,4
"694",26,2,34,0,70,1,1.821,1,4
"695",26,2,35,0,53,0,2.887,0,1
"696",26,2,36,0,43,0,1.82,0,1
"697",26,2,37,0,10,0,1.218,0,5
"698",26,2,38,0,72,1,18.937,0,4
"699",26,2,39,0,86,1,0.624,1,3
"700",26,2,40,0,60,0,1.607,1,1
"701",26,2,41,0,44,0,2.065,0,1
"702",26,2,42,0,35,0,2.004,1,5
"703",26,2,43,0,16,0,5.94,1,2
"704",26,2,44,0,78,1,1.123,0,1
"705",26,2,45,0,18,0,5.27,1,2
"706",26,2,46,0,41,0,2.069,0,1
"707",26,2,47,0,20,0,4.452,1,5
"708",26,2,48,0,62,1,11.686,1,2
"709",26,2,49,0,45,0,1.29,0,5
"710",26,2,50,0,84,1,5.621,0,2
"711",26,2,51,0,2,0,3.335,1,1
"712",26,2,52,0,66,1,1.865,0,1
"713",26,2,53,0,68,1,1.03,1,1
"714",26,2,54,0,21,0,1.461,1,2
"715",26,2,55,0,76,1,0.521,1,2
"716",26,2,56,0,31,0,1.31,0,3
"717",26,2,57,0,40,0,5.691,0,1
"718",26,2,58,0,65,1,1.659,1,1
"719",26,2,59,0,25,0,2.522,1,4
"720",26,2,60,0,42,0,19.349,1,3
"721",28,2,1,0,79,0,4.48,1,3
"722",28,2,2,0,64,0,1.017,1,3
"723",28,2,3,0,89,0,1.353,0,1
"724",28,2,4,0,84,0,0.727,1,2
"725",28,2,5,0,3,1,3.277,1,2
"726",28,2,6,0,87,0,1.254,0,5
"727",28,2,7,0,36,1,1.656,1,5
"728",28,2,8,0,76,0,6.056,1,4
"729",28,2,9,0,67,0,1.443,1,2
"730",28,2,10,0,12,1,1.017,1,1
"731",28,2,11,0,35,1,0.656,1,3
"732",28,2,12,0,31,1,1.401,0,1
"733",28,2,13,0,78,0,1.261,0,1
"734",28,2,14,0,77,0,0.59,1,4
"735",28,2,15,0,51,1,0.722,1,3
"736",28,2,16,0,28,1,0.617,1,6
"737",28,2,17,0,16,1,1.141,1,2
"738",28,2,18,0,42,1,2.221,0,2
"739",28,2,19,0,86,0,0.68,0,2
"740",28,2,20,0,13,1,1.037,1,4
"741",28,2,21,0,65,0,1.714,1,6
"742",28,2,22,0,6,1,0.604,1,5
"743",28,2,23,0,75,0,1.074,0,3
"744",28,2,24,0,43,1,0.55,1,2
"745",28,2,25,0,61,0,2.584,1,1
"746",28,2,26,0,82,0,1.369,1,6
"747",28,2,27,0,88,0,0.358,1,5
"748",28,2,28,0,73,0,1.194,1,1
"749",28,2,29,0,54,1,2.323,0,1
"750",28,2,30,0,83,0,1.102,1,4
"751",28,2,31,0,60,1,1.125,0,2
"752",28,2,32,0,68,0,1.153,0,1
"753",28,2,33,0,20,1,0.648,1,2
"754",28,2,34,0,1,1,2.763,0,3
"755",28,2,35,0,70,0,0.815,0,3
"756",28,2,36,0,62,0,0.821,1,1
"757",28,2,37,0,29,1,0.815,0,2
"758",28,2,38,0,21,1,0.605,1,2
"759",28,2,39,0,25,1,0.964,1,1
"760",28,2,40,0,69,0,2.019,1,1
"761",28,2,41,0,85,0,1.316,1,3
"762",28,2,42,0,40,1,1.432,1,2
"763",28,2,43,0,57,1,1.511,1,3
"764",28,2,44,0,18,1,0.342,0,4
"765",28,2,45,0,24,1,1.022,1,2
"766",28,2,46,0,53,1,1.434,1,2
"767",28,2,47,0,10,1,1.17,0,1
"768",28,2,48,0,44,1,2.257,0,2
"769",28,2,49,0,81,0,0.659,1,3
"770",28,2,50,0,71,0,2.817,0,1
"771",28,2,51,0,66,0,1.23,0,4
"772",28,2,52,0,80,0,7.078,1,3
"773",28,2,53,0,74,0,1.257,0,2
"774",28,2,54,0,2,1,0.887,1,3
"775",28,2,55,0,45,1,0.803,0,5
"776",28,2,56,0,72,0,0.669,1,2
"777",28,2,57,0,41,1,0.369,1,3
"778",28,2,58,0,48,1,0.614,1,2
"779",28,2,59,0,90,0,2.518,1,3
"780",28,2,60,0,63,0,1.076,0,1
"781",30,2,1,0,35,0,1.777,1,4
"782",30,2,2,0,54,0,2.521,1,4
"783",30,2,3,0,118,1,2.33,1,5
"784",30,2,4,0,106,1,1.719,1,4
"785",30,2,5,0,91,1,2.286,1,2
"786",30,2,6,0,97,1,1.703,1,4
"787",30,2,7,0,6,0,2.509,0,3
"788",30,2,8,0,105,1,1.06,1,5
"789",30,2,9,0,43,0,2.82,0,2
"790",30,2,10,0,96,1,2.056,1,3
"791",30,2,11,0,24,0,1.701,1,2
"792",30,2,12,0,42,0,3.42,1,3
"793",30,2,13,0,21,0,1.543,1,4
"794",30,2,14,0,95,1,0.871,1,6
"795",30,2,15,0,110,1,1.171,1,3
"796",30,2,16,0,116,1,1.234,1,6
"797",30,2,17,0,109,1,1.092,1,5
"798",30,2,18,0,120,1,1.47,1,4
"799",30,2,19,0,36,0,1.793,1,2
"800",30,2,20,0,112,1,1.075,1,4
"801",30,2,21,0,16,0,3.006,0,2
"802",30,2,22,0,92,1,0.489,1,4
"803",30,2,23,0,107,1,1.812,1,2
"804",30,2,24,0,53,0,2.596,1,4
"805",30,2,25,0,18,0,2.239,0,3
"806",30,2,26,0,40,0,4.725,0,3
"807",30,2,27,0,13,0,1.16,1,4
"808",30,2,28,0,28,0,1.667,1,5
"809",30,2,29,0,114,1,1.994,1,3
"810",30,2,30,0,99,1,0.488,1,5
"811",30,2,31,0,102,1,2.435,1,4
"812",30,2,32,0,57,0,1.761,1,3
"813",30,2,33,0,103,1,1.062,1,5
"814",30,2,34,0,119,1,1.354,1,3
"815",30,2,35,0,31,0,1.863,1,5
"816",30,2,36,0,3,0,1.269,0,2
"817",30,2,37,0,113,1,1.852,1,2
"818",30,2,38,0,45,0,1.201,1,2
"819",30,2,39,0,115,1,0.61,1,5
"820",30,2,40,0,25,0,1.107,1,6
"821",30,2,41,0,104,1,1.109,1,5
"822",30,2,42,0,51,0,0.98,1,5
"823",30,2,43,0,10,0,1.247,1,4
"824",30,2,44,0,2,0,1.462,1,3
"825",30,2,45,0,48,0,1.566,1,2
"826",30,2,46,0,44,0,1.222,1,2
"827",30,2,47,0,41,0,1.806,1,2
"828",30,2,48,0,93,1,0.834,1,3
"829",30,2,49,0,12,0,1.313,1,4
"830",30,2,50,0,1,0,0.678,1,4
"831",30,2,51,0,108,1,1.373,1,3
"832",30,2,52,0,29,0,0.962,1,6
"833",30,2,53,0,60,0,1.709,0,2
"834",30,2,54,0,101,1,1.14,1,2
"835",30,2,55,0,100,1,0.494,1,6
"836",30,2,56,0,111,1,1.619,1,2
"837",30,2,57,0,20,0,1.436,1,3
"838",30,2,58,0,98,1,0.846,1,4
"839",30,2,59,0,117,1,1.168,1,3
"840",30,2,60,0,94,1,1.971,0,3
"841",32,2,1,0,31,1,0.627,1,1
"842",32,2,2,0,114,0,1.074,0,3
"843",32,2,3,0,115,0,1.18,1,2
"844",32,2,4,0,53,1,0.484,1,2
"845",32,2,5,0,104,0,0.363,1,1
"846",32,2,6,0,21,1,0.502,1,2
"847",32,2,7,0,108,0,1.206,0,2
"848",32,2,8,0,45,1,1.126,1,2
"849",32,2,9,0,99,0,1.278,1,1
"850",32,2,10,0,109,0,0.757,0,1
"851",32,2,11,0,102,0,1.834,0,2
"852",32,2,12,0,103,0,5.089,1,3
"853",32,2,13,0,95,0,1.583,0,2
"854",32,2,14,0,101,0,2.927,1,3
"855",32,2,15,0,94,0,1.941,1,5
"856",32,2,16,0,100,0,0.585,1,4
"857",32,2,17,0,105,0,1.811,0,1
"858",32,2,18,0,106,0,0.71,1,1
"859",32,2,19,0,97,0,0.484,1,1
"860",32,2,20,0,118,0,1.026,1,3
"861",32,2,21,0,18,1,2.153,1,1
"862",32,2,22,0,60,1,1.903,0,2
"863",32,2,23,0,117,0,0.792,1,1
"864",32,2,24,0,93,0,0.551,1,3
"865",32,2,25,0,43,1,0.714,1,3
"866",32,2,26,0,3,1,0.378,1,2
"867",32,2,27,0,16,1,0.56,0,3
"868",32,2,28,0,44,1,1.025,0,1
"869",32,2,29,0,29,1,0.871,0,1
"870",32,2,30,0,107,0,1.197,0,2
"871",32,2,31,0,111,0,1.7,1,2
"872",32,2,32,0,92,0,0.637,1,2
"873",32,2,33,0,25,1,1.137,0,2
"874",32,2,34,0,42,1,1.143,1,3
"875",32,2,35,0,119,0,4.241,0,2
"876",32,2,36,0,98,0,0.934,0,2
"877",32,2,37,0,113,0,0.725,1,2
"878",32,2,38,0,112,0,1.153,0,2
"879",32,2,39,0,6,1,0.912,0,2
"880",32,2,40,0,116,0,0.85,1,1
"881",32,2,41,0,96,0,1.483,1,2
"882",32,2,42,0,10,1,0.767,1,2
"883",32,2,43,0,20,1,1.477,1,2
"884",32,2,44,0,13,1,1.126,1,2
"885",32,2,45,0,36,1,0.466,0,3
"886",32,2,46,0,1,1,2.811,0,3
"887",32,2,47,0,28,1,0.532,1,2
"888",32,2,48,0,110,0,0.46,1,2
"889",32,2,49,0,57,1,0.417,1,2
"890",32,2,50,0,35,1,1.667,1,3
"891",32,2,51,0,24,1,0.522,1,3
"892",32,2,52,0,51,1,0.556,1,2
"893",32,2,53,0,91,0,0.452,1,3
"894",32,2,54,0,12,1,0.973,1,4
"895",32,2,55,0,40,1,0.859,1,3
"896",32,2,56,0,120,0,0.203,1,2
"897",32,2,57,0,48,1,0.99,0,1
"898",32,2,58,0,41,1,2.79,0,1
"899",32,2,59,0,54,1,0.542,1,2
"900",32,2,60,0,2,1,1.251,1,2
"901",34,2,1,0,86,0,2.155,1,4
"902",34,2,2,0,104,1,1.961,1,3
"903",34,2,3,0,92,1,3.141,1,1
"904",34,2,4,0,95,1,4.426,0,1
"905",34,2,5,0,112,1,4.236,0,1
"906",34,2,6,0,96,1,3.738,0,1
"907",34,2,7,0,79,0,1.701,1,1
"908",34,2,8,0,117,1,3.006,1,1
"909",34,2,9,0,100,1,8.895,1,1
"910",34,2,10,0,102,1,1.441,1,1
"911",34,2,11,0,69,0,2.72,1,1
"912",34,2,12,0,71,0,1.974,0,1
"913",34,2,13,0,89,0,1.153,1,1
"914",34,2,14,0,62,0,8.345,1,1
"915",34,2,15,0,113,1,3.65,1,1
"916",34,2,16,0,119,1,4.517,1,1
"917",34,2,17,0,65,0,3.273,0,1
"918",34,2,18,0,68,0,1.455,1,1
"919",34,2,19,0,66,0,8.204,0,2
"920",34,2,20,0,109,1,3.543,0,1
"921",34,2,21,0,115,1,5.21,0,1
"922",34,2,22,0,110,1,3.45,1,1
"923",34,2,23,0,105,1,3.226,1,1
"924",34,2,24,0,76,0,1.88,1,1
"925",34,2,25,0,81,0,1.106,1,2
"926",34,2,26,0,116,1,1.172,0,1
"927",34,2,27,0,107,1,2.898,0,1
"928",34,2,28,0,63,0,1.565,1,1
"929",34,2,29,0,111,1,1.614,1,1
"930",34,2,30,0,61,0,6.207,0,1
"931",34,2,31,0,74,0,5.506,0,1
"932",34,2,32,0,90,0,3.069,1,1
"933",34,2,33,0,67,0,2.938,1,2
"934",34,2,34,0,114,1,1.779,1,3
"935",34,2,35,0,78,0,1.034,0,1
"936",34,2,36,0,120,1,2.227,0,1
"937",34,2,37,0,101,1,4.394,0,1
"938",34,2,38,0,98,1,1.48,1,1
"939",34,2,39,0,72,0,4.541,1,1
"940",34,2,40,0,73,0,4.021,0,1
"941",34,2,41,0,77,0,1.186,1,1
"942",34,2,42,0,94,1,2.558,1,2
"943",34,2,43,0,108,1,2.671,1,1
"944",34,2,44,0,83,0,3.301,0,2
"945",34,2,45,0,64,0,2.581,1,2
"946",34,2,46,0,91,1,6.94,1,2
"947",34,2,47,0,103,1,1.358,1,1
"948",34,2,48,0,88,0,1.598,1,2
"949",34,2,49,0,84,0,1.238,0,2
"950",34,2,50,0,118,1,2.278,1,1
"951",34,2,51,0,87,0,6.35,1,2
"952",34,2,52,0,85,0,1.602,0,1
"953",34,2,53,0,80,0,1.737,0,1
"954",34,2,54,0,70,0,1.986,0,1
"955",34,2,55,0,93,1,6.804,1,1
"956",34,2,56,0,82,0,1.519,1,2
"957",34,2,57,0,97,1,2.422,1,2
"958",34,2,58,0,75,0,3.175,0,2
"959",34,2,59,0,99,1,1.831,1,1
"960",34,2,60,0,106,1,1.178,1,1
"961",36,2,1,0,114,0,1.856,1,4
"962",36,2,2,0,115,0,3.608,1,1
"963",36,2,3,0,117,0,2.921,0,3
"964",36,2,4,0,68,1,8.213,1,1
"965",36,2,5,0,84,1,5.271,1,1
"966",36,2,6,0,86,1,3.437,1,1
"967",36,2,7,0,77,1,1.558,1,5
"968",36,2,8,0,118,0,5.133,1,1
"969",36,2,9,0,105,0,4.369,1,1
"970",36,2,10,0,94,0,1.209,1,5
"971",36,2,11,0,100,0,9.68,1,3
"972",36,2,12,0,62,1,6.613,1,3
"973",36,2,13,0,101,0,1.274,0,5
"974",36,2,14,0,90,1,6.143,1,1
"975",36,2,15,0,92,0,1.961,1,5
"976",36,2,16,0,61,1,3.777,1,1
"977",36,2,17,0,110,0,1.656,1,4
"978",36,2,18,0,93,0,5.42,0,2
"979",36,2,19,0,72,1,3.872,0,2
"980",36,2,20,0,103,0,1.799,1,4
"981",36,2,21,0,104,0,6.303,1,3
"982",36,2,22,0,71,1,3.405,1,1
"983",36,2,23,0,119,0,1.127,0,6
"984",36,2,24,0,70,1,1.826,1,1
"985",36,2,25,0,87,1,11.243,0,3
"986",36,2,26,0,64,1,3.185,1,3
"987",36,2,27,0,78,1,4.691,0,1
"988",36,2,28,0,69,1,1.859,1,2
"989",36,2,29,0,99,0,8.333,1,2
"990",36,2,30,0,73,1,12.872,1,1
"991",36,2,31,0,108,0,11.307,1,4
"992",36,2,32,0,79,1,4.436,1,2
"993",36,2,33,0,98,0,6.246,0,3
"994",36,2,34,0,63,1,4.329,1,1
"995",36,2,35,0,81,1,12.109,0,1
"996",36,2,36,0,111,0,2.832,0,1
"997",36,2,37,0,102,0,2.605,1,1
"998",36,2,38,0,80,1,9.144,0,1
"999",36,2,39,0,95,0,1.852,0,1
"1000",36,2,40,0,120,0,8.158,0,1
"1001",36,2,41,0,109,0,6.647,0,1
"1002",36,2,42,0,85,1,1.306,0,2
"1003",36,2,43,0,116,0,11.324,0,1
"1004",36,2,44,0,96,0,0.998,0,3
"1005",36,2,45,0,113,0,1.621,1,1
"1006",36,2,46,0,74,1,2.146,1,1
"1007",36,2,47,0,91,0,21.633,1,1
"1008",36,2,48,0,106,0,3.091,0,3
"1009",36,2,49,0,67,1,1.466,0,3
"1010",36,2,50,0,107,0,9.117,0,2
"1011",36,2,51,0,88,1,1.271,1,4
"1012",36,2,52,0,82,1,1.523,0,2
"1013",36,2,53,0,83,1,3.435,1,1
"1014",36,2,54,0,112,0,13.515,0,4
"1015",36,2,55,0,89,1,2.416,1,1
"1016",36,2,56,0,75,1,3.146,1,2
"1017",36,2,57,0,76,1,2.334,1,1
"1018",36,2,58,0,97,0,6.565,0,1
"1019",36,2,59,0,66,1,2.489,0,4
"1020",36,2,60,0,65,1,7.878,0,2
"1021",38,2,1,0,84,1,3.171,0,2
"1022",38,2,2,0,83,1,1.235,1,6
"1023",38,2,3,0,7,0,2.769,1,2
"1024",38,2,4,0,72,1,1.383,0,3
"1025",38,2,5,0,34,0,1.598,0,2
"1026",38,2,6,0,52,0,6.145,0,6
"1027",38,2,7,0,62,1,2.925,1,1
"1028",38,2,8,0,58,0,2.034,1,2
"1029",38,2,9,0,77,1,1.985,1,2
"1030",38,2,10,0,59,0,1.205,1,3
"1031",38,2,11,0,30,0,2.878,1,2
"1032",38,2,12,0,80,1,4.076,0,1
"1033",38,2,13,0,15,0,1.293,1,3
"1034",38,2,14,0,22,0,1.169,1,4
"1035",38,2,15,0,26,0,1.12,0,1
"1036",38,2,16,0,19,0,1.403,1,2
"1037",38,2,17,0,86,1,1.009,1,4
"1038",38,2,18,0,88,1,1.784,1,1
"1039",38,2,19,0,39,0,3.314,1,1
"1040",38,2,20,0,64,1,0.754,1,3
"1041",38,2,21,0,46,0,1.681,0,1
"1042",38,2,22,0,14,0,3.182,0,1
"1043",38,2,23,0,66,1,0.839,1,1
"1044",38,2,24,0,85,1,1.167,0,4
"1045",38,2,25,0,4,0,1.383,0,4
"1046",38,2,26,0,87,1,0.948,0,4
"1047",38,2,27,0,70,1,1.642,0,4
"1048",38,2,28,0,56,0,1.048,1,4
"1049",38,2,29,0,71,1,4.175,1,4
"1050",38,2,30,0,74,1,4.458,1,2
"1051",38,2,31,0,38,0,1.108,1,1
"1052",38,2,32,0,79,1,1.252,1,3
"1053",38,2,33,0,27,0,1.859,1,1
"1054",38,2,34,0,63,1,0.867,0,5
"1055",38,2,35,0,50,0,1.364,0,1
"1056",38,2,36,0,78,1,1.688,0,1
"1057",38,2,37,0,9,0,2.035,1,4
"1058",38,2,38,0,65,1,0.813,0,5
"1059",38,2,39,0,23,0,5.385,0,1
"1060",38,2,40,0,37,0,1.113,1,5
"1061",38,2,41,0,47,0,1.495,0,1
"1062",38,2,42,0,5,0,0.892,1,1
"1063",38,2,43,0,32,0,1.978,1,1
"1064",38,2,44,0,90,1,1.41,1,2
"1065",38,2,45,0,73,1,0.907,1,3
"1066",38,2,46,0,89,1,1.054,1,3
"1067",38,2,47,0,33,0,1.009,0,1
"1068",38,2,48,0,76,1,1.224,1,3
"1069",38,2,49,0,82,1,3.06,0,1
"1070",38,2,50,0,49,0,1.039,1,3
"1071",38,2,51,0,11,0,2.446,0,2
"1072",38,2,52,0,61,1,1.056,1,3
"1073",38,2,53,0,55,0,1.034,1,2
"1074",38,2,54,0,81,1,4.544,0,1
"1075",38,2,55,0,17,0,3.838,0,5
"1076",38,2,56,0,68,1,1.315,1,3
"1077",38,2,57,0,69,1,1.203,1,1
"1078",38,2,58,0,67,1,1,1,3
"1079",38,2,59,0,8,0,1.855,1,3
"1080",38,2,60,0,75,1,0.855,0,4
"1081",40,2,1,0,66,0,1.768,0,6
"1082",40,2,2,0,84,0,2.796,1,2
"1083",40,2,3,0,37,1,5.444,1,2
"1084",40,2,4,0,65,0,2.241,0,6
"1085",40,2,5,0,30,1,1.317,1,5
"1086",40,2,6,0,63,0,3.806,1,3
"1087",40,2,7,0,82,0,3.73,1,4
"1088",40,2,8,0,80,0,2.706,1,2
"1089",40,2,9,0,5,1,6.194,0,2
"1090",40,2,10,0,68,0,2.753,1,4
"1091",40,2,11,0,83,0,4.296,0,5
"1092",40,2,12,0,38,1,9.229,0,5
"1093",40,2,13,0,73,0,3.144,1,1
"1094",40,2,14,0,32,1,4.086,1,1
"1095",40,2,15,0,86,0,1.756,1,5
"1096",40,2,16,0,67,0,1.712,1,5
"1097",40,2,17,0,49,1,4.786,0,3
"1098",40,2,18,0,89,0,3.448,0,2
"1099",40,2,19,0,52,1,2.524,1,4
"1100",40,2,20,0,39,1,3.82,1,1
"1101",40,2,21,0,58,1,1.52,1,2
"1102",40,2,22,0,76,0,2.182,1,3
"1103",40,2,23,0,64,0,1.211,1,5
"1104",40,2,24,0,19,1,3.317,1,2
"1105",40,2,25,0,77,0,4.17,0,3
"1106",40,2,26,0,8,1,1.673,1,3
"1107",40,2,27,0,23,1,1.602,1,6
"1108",40,2,28,0,9,1,0.856,1,6
"1109",40,2,29,0,75,0,2.803,1,3
"1110",40,2,30,0,14,1,4.502,0,2
"1111",40,2,31,0,70,0,6.067,1,3
"1112",40,2,32,0,22,1,1.248,1,4
"1113",40,2,33,0,50,1,2.554,1,4
"1114",40,2,34,0,56,1,1.443,0,2
"1115",40,2,35,0,15,1,1.169,1,4
"1116",40,2,36,0,59,1,1.834,1,3
"1117",40,2,37,0,7,1,2.166,1,4
"1118",40,2,38,0,71,0,6.123,0,2
"1119",40,2,39,0,33,1,3.564,1,4
"1120",40,2,40,0,17,1,1.066,1,5
"1121",40,2,41,0,61,0,2.142,1,4
"1122",40,2,42,0,85,0,4.118,0,2
"1123",40,2,43,0,34,1,1.348,1,5
"1124",40,2,44,0,72,0,1.689,1,3
"1125",40,2,45,0,90,0,5.047,1,1
"1126",40,2,46,0,74,0,2.125,1,4
"1127",40,2,47,0,87,0,1.631,0,5
"1128",40,2,48,0,78,0,3.683,0,1
"1129",40,2,49,0,62,0,2.142,1,3
"1130",40,2,50,0,69,0,5.23,1,4
"1131",40,2,51,0,26,1,1.231,1,3
"1132",40,2,52,0,46,1,1.089,1,2
"1133",40,2,53,0,47,1,3.515,1,4
"1134",40,2,54,0,4,1,1.534,1,5
"1135",40,2,55,0,81,0,5.075,1,1
"1136",40,2,56,0,27,1,2.198,1,3
"1137",40,2,57,0,55,1,4.598,0,3
"1138",40,2,58,0,88,0,2.764,1,4
"1139",40,2,59,0,11,1,2.842,1,2
"1140",40,2,60,0,79,0,1.353,1,6
"1141",42,2,1,0,118,1,2.901,1,1
"1142",42,2,2,0,59,0,0.65,1,1
"1143",42,2,3,0,9,0,1.328,1,1
"1144",42,2,4,0,106,1,0.493,1,1
"1145",42,2,5,0,32,0,0.843,1,1
"1146",42,2,6,0,38,0,0.501,1,1
"1147",42,2,7,0,27,0,1.103,1,2
"1148",42,2,8,0,46,0,0.459,1,1
"1149",42,2,9,0,116,1,0.545,1,3
"1150",42,2,10,0,55,0,0.535,1,1
"1151",42,2,11,0,11,0,4.881,1,1
"1152",42,2,12,0,117,1,1.004,1,6
"1153",42,2,13,0,39,0,1.033,1,1
"1154",42,2,14,0,111,1,0.569,1,1
"1155",42,2,15,0,47,0,1.094,1,1
"1156",42,2,16,0,37,0,0.935,1,1
"1157",42,2,17,0,92,1,0.558,1,4
"1158",42,2,18,0,101,1,1.601,1,1
"1159",42,2,19,0,119,1,2.974,0,1
"1160",42,2,20,0,8,0,0.934,1,1
"1161",42,2,21,0,17,0,0.768,1,1
"1162",42,2,22,0,104,1,0.486,1,1
"1163",42,2,23,0,112,1,0.97,1,6
"1164",42,2,24,0,58,0,0.636,1,1
"1165",42,2,25,0,7,0,0.657,1,1
"1166",42,2,26,0,114,1,0.603,1,1
"1167",42,2,27,0,95,1,0.753,1,5
"1168",42,2,28,0,107,1,1.595,1,1
"1169",42,2,29,0,33,0,0.797,1,1
"1170",42,2,30,0,102,1,0.602,1,5
"1171",42,2,31,0,109,1,0.701,1,1
"1172",42,2,32,0,4,0,1.148,1,1
"1173",42,2,33,0,120,1,1.269,1,1
"1174",42,2,34,0,30,0,0.441,1,1
"1175",42,2,35,0,99,1,0.943,1,6
"1176",42,2,36,0,23,0,1.858,1,1
"1177",42,2,37,0,103,1,0.724,1,2
"1178",42,2,38,0,56,0,0.621,1,6
"1179",42,2,39,0,91,1,0.675,1,1
"1180",42,2,40,0,26,0,7.033,1,1
"1181",42,2,41,0,52,0,0.685,1,1
"1182",42,2,42,0,22,0,0.65,1,1
"1183",42,2,43,0,108,1,0.947,1,1
"1184",42,2,44,0,50,0,1.435,1,1
"1185",42,2,45,0,110,1,0.624,1,6
"1186",42,2,46,0,98,1,5.6,1,1
"1187",42,2,47,0,15,0,0.578,1,6
"1188",42,2,48,0,113,1,0.484,1,1
"1189",42,2,49,0,93,1,0.611,1,4
"1190",42,2,50,0,115,1,0.593,1,6
"1191",42,2,51,0,100,1,4.398,1,1
"1192",42,2,52,0,19,0,0.477,1,1
"1193",42,2,53,0,94,1,0.88,1,6
"1194",42,2,54,0,97,1,0.427,1,4
"1195",42,2,55,0,49,0,2.489,1,1
"1196",42,2,56,0,96,1,0.434,1,4
"1197",42,2,57,0,105,1,0.586,1,6
"1198",42,2,58,0,5,0,0.736,1,4
"1199",42,2,59,0,14,0,0.436,1,1
"1200",42,2,60,0,34,0,0.629,1,4
"1201",44,2,1,0,116,0,2.387,1,3
"1202",44,2,2,0,101,0,1.408,0,3
"1203",44,2,3,0,11,1,1.579,1,4
"1204",44,2,4,0,109,0,5.79,0,5
"1205",44,2,5,0,105,0,5.163,1,2
"1206",44,2,6,0,104,0,1.211,1,4
"1207",44,2,7,0,8,1,0.852,1,6
"1208",44,2,8,0,98,0,0.871,1,2
"1209",44,2,9,0,120,0,5.841,1,3
"1210",44,2,10,0,119,0,1.446,1,4
"1211",44,2,11,0,102,0,1.033,1,3
"1212",44,2,12,0,59,1,0.374,1,4
"1213",44,2,13,0,47,1,1.367,1,2
"1214",44,2,14,0,115,0,0.985,1,4
"1215",44,2,15,0,4,1,0.89,1,6
"1216",44,2,16,0,111,0,1.763,1,2
"1217",44,2,17,0,5,1,0.847,1,6
"1218",44,2,18,0,91,0,4.832,0,2
"1219",44,2,19,0,7,1,0.771,1,4
"1220",44,2,20,0,93,0,5.737,0,3
"1221",44,2,21,0,95,0,1.842,1,2
"1222",44,2,22,0,92,0,5.804,0,3
"1223",44,2,23,0,100,0,2.851,0,2
"1224",44,2,24,0,52,1,1.1,1,3
"1225",44,2,25,0,19,1,0.809,1,1
"1226",44,2,26,0,34,1,0.415,1,6
"1227",44,2,27,0,112,0,0.983,0,5
"1228",44,2,28,0,55,1,0.634,1,4
"1229",44,2,29,0,103,0,1.716,0,2
"1230",44,2,30,0,113,0,0.643,1,1
"1231",44,2,31,0,46,1,0.679,1,6
"1232",44,2,32,0,94,0,0.765,1,3
"1233",44,2,33,0,49,1,0.605,1,4
"1234",44,2,34,0,27,1,0.375,1,6
"1235",44,2,35,0,117,0,1.482,1,1
"1236",44,2,36,0,56,1,3.06,1,5
"1237",44,2,37,0,22,1,1.035,1,4
"1238",44,2,38,0,107,0,1.942,1,4
"1239",44,2,39,0,50,1,0.844,1,5
"1240",44,2,40,0,32,1,2.162,0,2
"1241",44,2,41,0,39,1,0.637,1,1
"1242",44,2,42,0,33,1,0.414,1,5
"1243",44,2,43,0,58,1,2.805,0,5
"1244",44,2,44,0,99,0,3.248,1,2
"1245",44,2,45,0,108,0,1.024,0,1
"1246",44,2,46,0,96,0,1.655,0,4
"1247",44,2,47,0,37,1,0.782,1,1
"1248",44,2,48,0,9,1,0.688,1,4
"1249",44,2,49,0,114,0,5.031,1,4
"1250",44,2,50,0,118,0,1.829,1,4
"1251",44,2,51,0,106,0,3.662,1,1
"1252",44,2,52,0,26,1,0.51,0,1
"1253",44,2,53,0,38,1,1.79,0,4
"1254",44,2,54,0,14,1,0.292,1,5
"1255",44,2,55,0,110,0,0.848,1,1
"1256",44,2,56,0,97,0,0.819,0,1
"1257",44,2,57,0,23,1,2.897,0,4
"1258",44,2,58,0,15,1,0.347,1,4
"1259",44,2,59,0,17,1,0.896,0,3
"1260",44,2,60,0,30,1,0.373,1,5
"1261",50,2,1,0,54,0,1.58,1,4
"1262",50,2,2,0,35,0,6.121,0,5
"1263",50,2,3,0,7,1,5.135,1,3
"1264",50,2,4,0,1,0,3.038,0,5
"1265",50,2,5,0,50,1,1.83,1,4
"1266",50,2,6,0,45,0,3.138,0,2
"1267",50,2,7,0,36,0,1.494,1,2
"1268",50,2,8,0,17,1,1.63,1,4
"1269",50,2,9,0,29,0,2.08,0,2
"1270",50,2,10,0,5,1,2.218,1,1
"1271",50,2,11,0,26,1,7.959,0,2
"1272",50,2,12,0,60,0,3.523,1,2
"1273",50,2,13,0,56,1,1.585,0,5
"1274",50,2,14,0,27,1,2.004,1,3
"1275",50,2,15,0,13,0,3.284,0,3
"1276",50,2,16,0,11,1,1.689,0,5
"1277",50,2,17,0,41,0,1.963,0,3
"1278",50,2,18,0,47,1,1.766,1,2
"1279",50,2,19,0,43,0,1.518,1,6
"1280",50,2,20,0,23,1,2.804,1,3
"1281",50,2,21,0,53,0,2.102,1,2
"1282",50,2,22,0,31,0,3.452,0,2
"1283",50,2,23,0,33,1,0.859,0,2
"1284",50,2,24,0,21,0,1.337,0,3
"1285",50,2,25,0,24,0,1.869,1,3
"1286",50,2,26,0,6,0,2.676,1,4
"1287",50,2,27,0,44,0,3.459,0,3
"1288",50,2,28,0,16,0,0.834,0,3
"1289",50,2,29,0,57,0,3.614,1,4
"1290",50,2,30,0,22,1,1.594,1,4
"1291",50,2,31,0,49,1,1.304,1,5
"1292",50,2,32,0,34,1,6.835,0,3
"1293",50,2,33,0,55,1,3.179,1,3
"1294",50,2,34,0,28,0,1.375,1,3
"1295",50,2,35,0,39,1,2.8,0,2
"1296",50,2,36,0,20,0,1.693,0,3
"1297",50,2,37,0,3,0,1.325,1,4
"1298",50,2,38,0,2,0,2.243,1,3
"1299",50,2,39,0,52,1,1.878,1,4
"1300",50,2,40,0,48,0,2.401,0,3
"1301",50,2,41,0,51,0,2.222,1,4
"1302",50,2,42,0,58,1,3.212,0,2
"1303",50,2,43,0,46,1,2.843,1,4
"1304",50,2,44,0,32,1,5.881,1,3
"1305",50,2,45,0,10,0,1.724,1,3
"1306",50,2,46,0,40,0,4.964,0,2
"1307",50,2,47,0,15,1,1.954,1,3
"1308",50,2,48,0,37,1,0.818,0,5
"1309",50,2,49,0,30,1,1.719,1,3
"1310",50,2,50,0,12,0,4.355,0,3
"1311",50,2,51,0,25,0,1.918,1,5
"1312",50,2,52,0,8,1,1.952,1,2
"1313",50,2,53,0,19,1,0.801,1,2
"1314",50,2,54,0,18,0,4.524,1,3
"1315",50,2,55,0,38,1,1.287,0,2
"1316",50,2,56,0,14,1,2.304,0,4
"1317",50,2,57,0,9,1,5.18,0,3
"1318",50,2,58,0,4,1,3.13,1,3
"1319",50,2,59,0,42,0,1.444,1,3
"1320",50,2,60,0,59,1,0.868,0,2
"1321",52,2,1,0,40,1,5.92,0,1
"1322",52,2,2,0,60,1,4.857,0,1
"1323",52,2,3,0,29,1,5.5,1,1
"1324",52,2,4,0,46,0,1.898,0,5
"1325",52,2,5,0,58,0,1.214,0,6
"1326",52,2,6,0,31,1,1.752,0,6
"1327",52,2,7,0,16,1,8.284,1,2
"1328",52,2,8,0,57,1,4.166,1,1
"1329",52,2,9,0,7,0,5.069,0,1
"1330",52,2,10,0,53,1,3.592,1,1
"1331",52,2,11,0,4,0,2.544,1,2
"1332",52,2,12,0,22,0,3.209,1,1
"1333",52,2,13,0,34,0,0.956,0,1
"1334",52,2,14,0,14,0,3.997,0,1
"1335",52,2,15,0,51,1,6.417,1,1
"1336",52,2,16,0,36,1,5.57,0,1
"1337",52,2,17,0,44,1,1.63,0,4
"1338",52,2,18,0,28,1,1.082,1,6
"1339",52,2,19,0,12,1,0.694,1,6
"1340",52,2,20,0,26,0,3.195,0,1
"1341",52,2,21,0,27,0,3.437,0,1
"1342",52,2,22,0,39,0,5.413,1,1
"1343",52,2,23,0,42,1,1.375,0,2
"1344",52,2,24,0,1,1,11.948,0,6
"1345",52,2,25,0,21,1,0.718,1,1
"1346",52,2,26,0,2,1,2.016,1,2
"1347",52,2,27,0,49,0,4.038,0,2
"1348",52,2,28,0,10,1,2.904,0,1
"1349",52,2,29,0,52,0,6.553,1,4
"1350",52,2,30,0,13,1,3.064,1,2
"1351",52,2,31,0,56,0,1.744,1,4
"1352",52,2,32,0,38,0,2.258,0,5
"1353",52,2,33,0,37,0,4.295,1,6
"1354",52,2,34,0,45,1,2.698,0,3
"1355",52,2,35,0,25,1,2.649,1,3
"1356",52,2,36,0,15,0,2.348,1,1
"1357",52,2,37,0,41,1,6.737,0,1
"1358",52,2,38,0,19,0,1.202,1,2
"1359",52,2,39,0,8,0,8.59,1,1
"1360",52,2,40,0,47,0,1.241,0,4
"1361",52,2,41,0,6,1,1.108,1,5
"1362",52,2,42,0,50,0,1.31,0,3
"1363",52,2,43,0,20,1,1.91,0,1
"1364",52,2,44,0,35,1,1.429,1,5
"1365",52,2,45,0,32,0,1.45,0,2
"1366",52,2,46,0,33,0,4.25,0,1
"1367",52,2,47,0,11,0,2.641,1,2
"1368",52,2,48,0,5,0,7.453,0,1
"1369",52,2,49,0,24,1,1.42,0,1
"1370",52,2,50,0,54,1,3.426,1,1
"1371",52,2,51,0,17,0,1.392,1,2
"1372",52,2,52,0,23,0,1.182,0,2
"1373",52,2,53,0,55,0,1.586,0,3
"1374",52,2,54,0,48,1,3.49,0,1
"1375",52,2,55,0,43,1,1.099,1,1
"1376",52,2,56,0,9,0,6.455,0,1
"1377",52,2,57,0,3,1,3.285,1,1
"1378",52,2,58,0,30,0,4.934,1,2
"1379",52,2,59,0,18,1,1.465,0,2
"1380",52,2,60,0,59,0,6.406,0,1
"1381",54,2,1,0,53,0,12.287,1,1
"1382",54,2,2,0,69,1,13.026,0,1
"1383",54,2,3,0,65,1,1.112,1,3
"1384",54,2,4,0,57,0,4.397,1,2
"1385",54,2,5,0,80,1,15.246,0,1
"1386",54,2,6,0,86,1,5.838,1,2
"1387",54,2,7,0,16,0,9.521,0,2
"1388",54,2,8,0,28,0,3.635,1,5
"1389",54,2,9,0,40,0,11.294,1,2
"1390",54,2,10,0,42,0,6.448,0,1
"1391",54,2,11,0,81,1,20.528,1,1
"1392",54,2,12,0,62,1,21.68,1,4
"1393",54,2,13,0,82,1,1.607,1,3
"1394",54,2,14,0,90,1,4.002,1,2
"1395",54,2,15,0,84,1,4.833,0,1
"1396",54,2,16,0,64,1,4.368,1,3
"1397",54,2,17,0,87,1,1.714,1,4
"1398",54,2,18,0,10,0,25.68,0,2
"1399",54,2,19,0,20,0,5.542,0,1
"1400",54,2,20,0,3,0,2.941,1,1
"1401",54,2,21,0,88,1,12.236,1,1
"1402",54,2,22,0,67,1,7.269,1,2
"1403",54,2,23,0,83,1,7.785,1,4
"1404",54,2,24,0,1,0,29.008,0,1
"1405",54,2,25,0,70,1,11.538,0,1
"1406",54,2,26,0,78,1,1.195,1,1
"1407",54,2,27,0,48,0,0.061,1,5
"1408",54,2,28,0,61,1,2.916,1,2
"1409",54,2,29,0,51,0,8.779,1,1
"1410",54,2,30,0,35,0,14.327,1,2
"1411",54,2,31,0,79,1,4.587,1,2
"1412",54,2,32,0,43,0,0.937,0,1
"1413",54,2,33,0,45,0,1.327,0,6
"1414",54,2,34,0,6,0,7.279,1,5
"1415",54,2,35,0,66,1,25.681,1,2
"1416",54,2,36,0,25,0,1.759,0,1
"1417",54,2,37,0,18,0,8.704,1,4
"1418",54,2,38,0,21,0,17.779,0,2
"1419",54,2,39,0,44,0,11.636,0,6
"1420",54,2,40,0,41,0,6.897,0,3
"1421",54,2,41,0,73,1,1.181,1,2
"1422",54,2,42,0,24,0,1.123,1,1
"1423",54,2,43,0,12,0,2.237,1,2
"1424",54,2,44,0,76,1,2.059,0,1
"1425",54,2,45,0,85,1,1.258,0,1
"1426",54,2,46,0,77,1,8.716,0,4
"1427",54,2,47,0,29,0,0.908,0,1
"1428",54,2,48,0,75,1,10.794,0,5
"1429",54,2,49,0,13,0,0.782,1,2
"1430",54,2,50,0,89,1,0.93,1,4
"1431",54,2,51,0,71,1,1.499,1,6
"1432",54,2,52,0,72,1,4.443,0,1
"1433",54,2,53,0,74,1,1.23,1,3
"1434",54,2,54,0,2,0,4.892,1,1
"1435",54,2,55,0,68,1,1.885,1,6
"1436",54,2,56,0,60,0,3.526,1,1
"1437",54,2,57,0,31,0,1.292,1,2
"1438",54,2,58,0,63,1,1.102,1,1
"1439",54,2,59,0,54,0,1.281,1,4
"1440",54,2,60,0,36,0,0.69,0,1
"1441",56,2,1,0,75,0,1.183,1,6
"1442",56,2,2,0,60,1,3.02,0,4
"1443",56,2,3,0,73,0,2.77,1,5
"1444",56,2,4,0,69,0,1.657,1,3
"1445",56,2,5,0,20,1,2.176,1,2
"1446",56,2,6,0,84,0,2.493,0,3
"1447",56,2,7,0,86,0,2.356,1,4
"1448",56,2,8,0,18,1,0.466,1,5
"1449",56,2,9,0,78,0,2.742,1,2
"1450",56,2,10,0,24,1,0.741,0,3
"1451",56,2,11,0,10,1,0.369,1,5
"1452",56,2,12,0,62,0,2.658,1,3
"1453",56,2,13,0,1,1,3.178,0,1
"1454",56,2,14,0,43,1,2.169,1,3
"1455",56,2,15,0,16,1,1.293,0,3
"1456",56,2,16,0,74,0,1.339,1,4
"1457",56,2,17,0,40,1,5.393,0,1
"1458",56,2,18,0,77,0,0.611,1,5
"1459",56,2,19,0,29,1,1.875,1,3
"1460",56,2,20,0,87,0,1.585,1,5
"1461",56,2,21,0,80,0,3.068,0,3
"1462",56,2,22,0,83,0,3.337,0,3
"1463",56,2,23,0,48,1,0.42,1,5
"1464",56,2,24,0,57,1,1.184,1,3
"1465",56,2,25,0,65,0,0.364,0,4
"1466",56,2,26,0,67,0,0.521,1,3
"1467",56,2,27,0,68,0,2.319,1,3
"1468",56,2,28,0,3,1,0.323,0,5
"1469",56,2,29,0,76,0,3.714,0,2
"1470",56,2,30,0,12,1,0.594,1,5
"1471",56,2,31,0,31,1,0.487,1,2
"1472",56,2,32,0,42,1,0.4,0,5
"1473",56,2,33,0,88,0,1.483,0,4
"1474",56,2,34,0,79,0,0.916,1,4
"1475",56,2,35,0,54,1,6.023,0,4
"1476",56,2,36,0,72,0,3.462,0,2
"1477",56,2,37,0,45,1,3.641,1,5
"1478",56,2,38,0,36,1,6.646,0,4
"1479",56,2,39,0,13,1,0.772,1,4
"1480",56,2,40,0,53,1,4.475,0,2
"1481",56,2,41,0,90,0,3.213,0,1
"1482",56,2,42,0,63,0,2.73,1,3
"1483",56,2,43,0,41,1,1.78,1,3
"1484",56,2,44,0,89,0,0.407,1,4
"1485",56,2,45,0,61,0,9.207,0,5
"1486",56,2,46,0,66,0,1.617,1,3
"1487",56,2,47,0,82,0,3.463,0,4
"1488",56,2,48,0,70,0,1.891,1,2
"1489",56,2,49,0,35,1,0.788,1,3
"1490",56,2,50,0,44,1,0.932,1,5
"1491",56,2,51,0,64,0,4.445,1,5
"1492",56,2,52,0,85,0,3.615,1,2
"1493",56,2,53,0,25,1,1.349,0,2
"1494",56,2,54,0,28,1,0.341,1,2
"1495",56,2,55,0,6,1,1.177,1,5
"1496",56,2,56,0,51,1,1.148,0,1
"1497",56,2,57,0,21,1,0.435,1,4
"1498",56,2,58,0,81,0,2.331,1,3
"1499",56,2,59,0,2,1,1.316,1,4
"1500",56,2,60,0,71,0,2.661,1,1
"1501",58,2,1,0,78,1,0.96,1,5
"1502",58,2,2,0,61,1,1.639,1,3
"1503",58,2,3,0,73,1,0.912,1,4
"1504",58,2,4,0,7,0,5.033,0,3
"1505",58,2,5,0,50,0,1.607,0,5
"1506",58,2,6,0,38,0,3.814,0,2
"1507",58,2,7,0,89,1,1.942,1,4
"1508",58,2,8,0,5,0,3.287,0,1
"1509",58,2,9,0,19,0,1.504,0,2
"1510",58,2,10,0,17,0,1.176,1,3
"1511",58,2,11,0,69,1,1,1,5
"1512",58,2,12,0,64,1,1.46,1,3
"1513",58,2,13,0,14,0,2.571,0,2
"1514",58,2,14,0,77,1,5.056,1,5
"1515",58,2,15,0,33,0,1.858,1,3
"1516",58,2,16,0,76,1,1.11,1,4
"1517",58,2,17,0,66,1,0.359,1,6
"1518",58,2,18,0,47,0,2.025,1,2
"1519",58,2,19,0,30,0,1.624,1,3
"1520",58,2,20,0,32,0,6.022,0,2
"1521",58,2,21,0,8,0,3.569,1,1
"1522",58,2,22,0,23,0,5.793,1,4
"1523",58,2,23,0,49,0,4.191,1,3
"1524",58,2,24,0,70,1,1.202,0,6
"1525",58,2,25,0,74,1,1.83,1,4
"1526",58,2,26,0,83,1,7.076,0,1
"1527",58,2,27,0,34,0,2.614,0,2
"1528",58,2,28,0,88,1,0.545,1,5
"1529",58,2,29,0,63,1,4.555,1,3
"1530",58,2,30,0,55,0,0.782,1,3
"1531",58,2,31,0,52,0,10.478,0,5
"1532",58,2,32,0,59,0,0.607,1,6
"1533",58,2,33,0,90,1,13.724,1,3
"1534",58,2,34,0,67,1,0.292,1,6
"1535",58,2,35,0,11,0,3.912,1,6
"1536",58,2,36,0,27,0,2.279,1,2
"1537",58,2,37,0,15,0,2.697,0,4
"1538",58,2,38,0,62,1,1.511,1,5
"1539",58,2,39,0,71,1,2.936,1,6
"1540",58,2,40,0,46,0,7.018,1,1
"1541",58,2,41,0,22,0,3.476,0,2
"1542",58,2,42,0,58,0,1.554,0,6
"1543",58,2,43,0,75,1,1.401,1,6
"1544",58,2,44,0,65,1,1.541,1,3
"1545",58,2,45,0,79,1,1.582,1,2
"1546",58,2,46,0,84,1,1.04,1,5
"1547",58,2,47,0,85,1,1.171,1,4
"1548",58,2,48,0,56,0,1.203,0,4
"1549",58,2,49,0,81,1,1.492,1,4
"1550",58,2,50,0,82,1,2.146,1,3
"1551",58,2,51,0,86,1,1.43,1,5
"1552",58,2,52,0,9,0,3.801,0,1
"1553",58,2,53,0,4,0,4.598,1,5
"1554",58,2,54,0,87,1,1.481,1,6
"1555",58,2,55,0,80,1,2.711,1,2
"1556",58,2,56,0,72,1,0.989,0,2
"1557",58,2,57,0,39,0,1.448,1,3
"1558",58,2,58,0,26,0,6.776,1,4
"1559",58,2,59,0,68,1,3.373,1,3
"1560",58,2,60,0,37,0,0.261,0,5
"1561",60,2,1,0,69,0,2.262,1,5
"1562",60,2,2,0,62,0,12.593,1,2
"1563",60,2,3,0,39,1,1.977,1,1
"1564",60,2,4,0,8,1,1.876,0,1
"1565",60,2,5,0,5,1,4.093,0,3
"1566",60,2,6,0,86,0,2.934,1,3
"1567",60,2,7,0,74,0,6.924,1,2
"1568",60,2,8,0,71,0,0.61,1,5
"1569",60,2,9,0,23,1,6.774,1,5
"1570",60,2,10,0,33,1,1.148,1,4
"1571",60,2,11,0,82,0,3.981,0,1
"1572",60,2,12,0,32,1,2.667,1,5
"1573",60,2,13,0,55,1,0.556,1,5
"1574",60,2,14,0,80,0,3.502,0,6
"1575",60,2,15,0,76,0,2.777,1,2
"1576",60,2,16,0,70,0,7.566,0,5
"1577",60,2,17,0,88,0,3.247,1,5
"1578",60,2,18,0,37,1,3.445,0,5
"1579",60,2,19,0,9,1,1.762,1,4
"1580",60,2,20,0,84,0,2.497,1,2
"1581",60,2,21,0,61,0,5.183,1,2
"1582",60,2,22,0,77,0,2.728,1,5
"1583",60,2,23,0,7,1,1.036,1,5
"1584",60,2,24,0,34,1,4.434,0,1
"1585",60,2,25,0,49,1,1.973,1,1
"1586",60,2,26,0,65,0,4.859,1,2
"1587",60,2,27,0,68,0,1.283,1,4
"1588",60,2,28,0,22,1,0.548,1,5
"1589",60,2,29,0,46,1,0.822,1,5
"1590",60,2,30,0,26,1,1.381,1,2
"1591",60,2,31,0,27,1,1.531,0,2
"1592",60,2,32,0,63,0,3.487,1,1
"1593",60,2,33,0,64,0,2.201,1,4
"1594",60,2,34,0,72,0,1.23,1,4
"1595",60,2,35,0,52,1,5.161,1,4
"1596",60,2,36,0,66,0,2.868,1,5
"1597",60,2,37,0,85,0,2.955,1,2
"1598",60,2,38,0,15,1,0.377,1,4
"1599",60,2,39,0,4,1,8.209,1,2
"1600",60,2,40,0,67,0,0.973,0,2
"1601",60,2,41,0,90,0,3.946,0,1
"1602",60,2,42,0,75,0,2.9,1,5
"1603",60,2,43,0,47,1,2.038,1,2
"1604",60,2,44,0,79,0,2.823,1,4
"1605",60,2,45,0,38,1,2.352,1,2
"1606",60,2,46,0,11,1,1.517,1,6
"1607",60,2,47,0,59,1,0.506,1,6
"1608",60,2,48,0,83,0,2.173,1,5
"1609",60,2,49,0,50,1,1.713,1,2
"1610",60,2,50,0,89,0,1.677,1,1
"1611",60,2,51,0,14,1,4.823,1,2
"1612",60,2,52,0,30,1,6.15,1,1
"1613",60,2,53,0,19,1,2.261,1,3
"1614",60,2,54,0,58,1,3.027,0,1
"1615",60,2,55,0,73,0,2.041,0,1
"1616",60,2,56,0,78,0,0.38,0,1
"1617",60,2,57,0,87,0,4.966,1,6
"1618",60,2,58,0,81,0,1.165,1,3
"1619",60,2,59,0,17,1,6.227,1,5
"1620",60,2,60,0,56,1,0.59,1,6
"1621",62,2,1,0,8,1,1.795,1,3
"1622",62,2,2,0,40,0,1.812,0,2
"1623",62,2,3,0,57,0,1.538,1,5
"1624",62,2,4,0,45,0,4.761,0,4
"1625",62,2,5,0,12,0,2.167,1,3
"1626",62,2,6,0,24,0,3.572,1,3
"1627",62,2,7,0,21,0,0.726,1,4
"1628",62,2,8,0,37,1,1.21,1,2
"1629",62,2,9,0,3,0,0.32,1,4
"1630",62,2,10,0,30,1,2.179,1,3
"1631",62,2,11,0,5,1,0.859,1,2
"1632",62,2,12,0,1,0,4.057,0,5
"1633",62,2,13,0,26,1,2.971,1,1
"1634",62,2,14,0,54,0,2.631,1,5
"1635",62,2,15,0,51,0,0.676,1,1
"1636",62,2,16,0,20,0,0.859,0,2
"1637",62,2,17,0,41,0,0.627,0,3
"1638",62,2,18,0,4,1,0.364,1,5
"1639",62,2,19,0,23,1,1.273,1,5
"1640",62,2,20,0,19,1,0.854,1,3
"1641",62,2,21,0,39,1,2.487,0,3
"1642",62,2,22,0,49,1,1.161,1,3
"1643",62,2,23,0,14,1,1.103,0,5
"1644",62,2,24,0,29,0,0.383,1,4
"1645",62,2,25,0,46,1,1.573,1,5
"1646",62,2,26,0,42,0,3.738,0,2
"1647",62,2,27,0,50,1,1.295,1,1
"1648",62,2,28,0,34,1,2.953,1,2
"1649",62,2,29,0,7,1,0.767,1,1
"1650",62,2,30,0,56,1,1.525,0,3
"1651",62,2,31,0,27,1,0.694,1,4
"1652",62,2,32,0,36,0,0.303,1,5
"1653",62,2,33,0,31,0,0.306,1,1
"1654",62,2,34,0,58,1,0.486,1,4
"1655",62,2,35,0,11,1,0.711,0,4
"1656",62,2,36,0,59,1,2.138,1,4
"1657",62,2,37,0,53,0,0.318,1,4
"1658",62,2,38,0,18,0,0.367,0,2
"1659",62,2,39,0,48,0,1.638,0,4
"1660",62,2,40,0,10,0,2.563,0,2
"1661",62,2,41,0,17,1,1.394,1,2
"1662",62,2,42,0,16,0,0.344,1,5
"1663",62,2,43,0,47,1,0.388,1,1
"1664",62,2,44,0,55,1,0.3,1,4
"1665",62,2,45,0,38,1,0.436,1,1
"1666",62,2,46,0,52,1,3.464,0,5
"1667",62,2,47,0,2,0,1.815,0,2
"1668",62,2,48,0,32,1,0.351,1,4
"1669",62,2,49,0,60,0,0.462,0,3
"1670",62,2,50,0,28,0,3.629,1,5
"1671",62,2,51,0,15,1,0.308,1,1
"1672",62,2,52,0,43,0,0.364,0,2
"1673",62,2,53,0,22,1,0.552,0,2
"1674",62,2,54,0,25,0,1.529,1,5
"1675",62,2,55,0,13,0,0.442,1,3
"1676",62,2,56,0,35,0,0.325,1,4
"1677",62,2,57,0,44,0,0.375,1,1
"1678",62,2,58,0,33,1,0.374,0,3
"1679",62,2,59,0,9,1,3.28,0,3
"1680",62,2,60,0,6,0,0.811,1,4
"1681",64,2,1,0,16,1,5.202,1,1
"1682",64,2,2,0,2,1,1.602,1,1
"1683",64,2,3,0,12,1,1.937,1,5
"1684",64,2,4,0,31,1,0.58,1,2
"1685",64,2,5,0,17,0,2.507,0,1
"1686",64,2,6,0,37,0,1.303,0,2
"1687",64,2,7,0,42,1,1.726,0,2
"1688",64,2,8,0,45,1,1.597,0,3
"1689",64,2,9,0,53,1,0.67,1,2
"1690",64,2,10,0,27,0,0.716,1,1
"1691",64,2,11,0,57,1,0.351,1,3
"1692",64,2,12,0,22,0,0.495,0,1
"1693",64,2,13,0,26,0,5.403,1,1
"1694",64,2,14,0,14,0,2.523,1,1
"1695",64,2,15,0,49,0,3.752,1,1
"1696",64,2,16,0,39,0,1.988,1,1
"1697",64,2,17,0,32,0,0.969,0,2
"1698",64,2,18,0,40,1,0.694,0,1
"1699",64,2,19,0,50,0,2.182,0,1
"1700",64,2,20,0,1,1,0.38,1,4
"1701",64,2,21,0,56,0,0.502,1,1
"1702",64,2,22,0,10,1,0.836,1,2
"1703",64,2,23,0,7,0,2.148,1,1
"1704",64,2,24,0,8,0,2.363,0,1
"1705",64,2,25,0,34,0,0.728,1,1
"1706",64,2,26,0,15,0,0.391,1,1
"1707",64,2,27,0,4,0,1.025,1,2
"1708",64,2,28,0,18,1,0.373,1,3
"1709",64,2,29,0,60,1,0.346,1,1
"1710",64,2,30,0,55,0,0.492,1,2
"1711",64,2,31,0,23,0,1.458,0,6
"1712",64,2,32,0,29,1,2.825,1,4
"1713",64,2,33,0,46,0,0.998,0,2
"1714",64,2,34,0,13,1,0.353,1,3
"1715",64,2,35,0,36,1,0.404,1,2
"1716",64,2,36,0,20,1,0.465,1,4
"1717",64,2,37,0,33,0,1.504,1,6
"1718",64,2,38,0,38,0,2.213,1,2
"1719",64,2,39,0,35,1,0.395,1,4
"1720",64,2,40,0,48,1,0.365,1,5
"1721",64,2,41,0,54,1,0.448,1,3
"1722",64,2,42,0,21,1,0.717,1,1
"1723",64,2,43,0,43,1,0.392,1,3
"1724",64,2,44,0,30,0,0.446,1,1
"1725",64,2,45,0,25,1,0.354,1,4
"1726",64,2,46,0,51,1,0.547,1,5
"1727",64,2,47,0,3,1,0.338,1,3
"1728",64,2,48,0,11,0,1.392,0,2
"1729",64,2,49,0,59,0,2.037,1,1
"1730",64,2,50,0,5,0,1.975,0,1
"1731",64,2,51,0,41,1,0.741,0,1
"1732",64,2,52,0,47,0,1.574,0,1
"1733",64,2,53,0,58,0,1.198,1,1
"1734",64,2,54,0,9,0,1.33,0,1
"1735",64,2,55,0,24,1,0.439,1,3
"1736",64,2,56,0,44,1,1.096,1,6
"1737",64,2,57,0,28,1,0.337,1,6
"1738",64,2,58,0,19,0,2.506,1,2
"1739",64,2,59,0,6,1,0.414,1,3
"1740",64,2,60,0,52,0,11.043,0,3
"1741",66,2,1,0,103,1,2.433,1,3
"1742",66,2,2,0,3,0,1.233,1,2
"1743",66,2,3,0,100,1,1.468,1,4
"1744",66,2,4,0,104,1,4.795,0,2
"1745",66,2,5,0,105,1,3.302,1,6
"1746",66,2,6,0,101,1,1.523,0,6
"1747",66,2,7,0,102,1,1.538,1,6
"1748",66,2,8,0,91,1,2.802,1,2
"1749",66,2,9,0,119,1,5.739,1,3
"1750",66,2,10,0,12,0,1.113,1,4
"1751",66,2,11,0,51,0,1.42,1,1
"1752",66,2,12,0,93,1,1.785,0,4
"1753",66,2,13,0,1,0,0.994,0,2
"1754",66,2,14,0,109,1,1.126,0,5
"1755",66,2,15,0,95,1,1.694,0,1
"1756",66,2,16,0,110,1,2.245,1,2
"1757",66,2,17,0,57,0,4.864,0,4
"1758",66,2,18,0,111,1,1.546,0,2
"1759",66,2,19,0,45,0,1.01,0,6
"1760",66,2,20,0,98,1,1.515,1,4
"1761",66,2,21,0,120,1,1.227,1,2
"1762",66,2,22,0,20,0,3.941,0,3
"1763",66,2,23,0,18,0,4.917,0,3
"1764",66,2,24,0,112,1,0.971,0,2
"1765",66,2,25,0,116,1,1.326,0,2
"1766",66,2,26,0,99,1,1.596,1,4
"1767",66,2,27,0,29,0,1.803,0,1
"1768",66,2,28,0,28,0,2.383,1,3
"1769",66,2,29,0,60,0,1.72,0,2
"1770",66,2,30,0,31,0,1.354,1,3
"1771",66,2,31,0,92,1,1.677,1,3
"1772",66,2,32,0,118,1,1.163,0,3
"1773",66,2,33,0,16,0,0.772,0,3
"1774",66,2,34,0,53,0,1.261,1,1
"1775",66,2,35,0,94,1,2.971,0,6
"1776",66,2,36,0,114,1,3.111,1,4
"1777",66,2,37,0,113,1,1.128,1,3
"1778",66,2,38,0,41,0,1.287,1,2
"1779",66,2,39,0,25,0,2.335,0,2
"1780",66,2,40,0,44,0,2.111,1,4
"1781",66,2,41,0,13,0,1.16,0,1
"1782",66,2,42,0,106,1,0.895,0,5
"1783",66,2,43,0,96,1,1.201,0,5
"1784",66,2,44,0,10,0,3.278,0,3
"1785",66,2,45,0,2,0,8.714,0,3
"1786",66,2,46,0,35,0,2.423,1,4
"1787",66,2,47,0,54,0,0.619,0,2
"1788",66,2,48,0,6,0,1.815,0,5
"1789",66,2,49,0,117,1,0.995,0,3
"1790",66,2,50,0,36,0,0.953,0,1
"1791",66,2,51,0,107,1,1.166,0,5
"1792",66,2,52,0,48,0,1.486,0,2
"1793",66,2,53,0,42,0,1.419,0,3
"1794",66,2,54,0,21,0,2.025,0,4
"1795",66,2,55,0,97,1,0.874,0,6
"1796",66,2,56,0,108,1,1.264,0,3
"1797",66,2,57,0,43,0,1.367,1,1
"1798",66,2,58,0,24,0,1.1,0,4
"1799",66,2,59,0,40,0,0.924,0,2
"1800",66,2,60,0,115,1,1.279,1,4
"1801",68,2,1,0,118,0,0.433,1,2
"1802",68,2,2,0,35,1,0.717,0,1
"1803",68,2,3,0,51,1,0.525,1,3
"1804",68,2,4,0,40,1,0.516,0,1
"1805",68,2,5,0,16,1,3.179,0,1
"1806",68,2,6,0,102,0,0.292,0,4
"1807",68,2,7,0,91,0,1.612,1,2
"1808",68,2,8,0,10,1,0.521,1,3
"1809",68,2,9,0,60,1,1.487,1,2
"1810",68,2,10,0,105,0,0.885,0,1
"1811",68,2,11,0,95,0,0.538,1,2
"1812",68,2,12,0,101,0,1.267,0,3
"1813",68,2,13,0,112,0,0.894,1,2
"1814",68,2,14,0,120,0,2.119,0,1
"1815",68,2,15,0,20,1,0.984,0,1
"1816",68,2,16,0,1,1,4.178,0,3
"1817",68,2,17,0,53,1,0.305,0,2
"1818",68,2,18,0,100,0,0.978,0,4
"1819",68,2,19,0,107,0,0.374,1,2
"1820",68,2,20,0,43,1,2.25,1,2
"1821",68,2,21,0,115,0,5.217,0,1
"1822",68,2,22,0,93,0,0.812,1,2
"1823",68,2,23,0,44,1,0.317,0,3
"1824",68,2,24,0,92,0,0.704,0,6
"1825",68,2,25,0,25,1,2.493,1,3
"1826",68,2,26,0,117,0,0.759,0,1
"1827",68,2,27,0,3,1,0.251,1,2
"1828",68,2,28,0,119,0,1.413,1,3
"1829",68,2,29,0,31,1,0.309,1,1
"1830",68,2,30,0,12,1,0.635,1,4
"1831",68,2,31,0,45,1,0.88,0,1
"1832",68,2,32,0,96,0,0.357,0,2
"1833",68,2,33,0,24,1,0.853,0,1
"1834",68,2,34,0,113,0,0.341,1,2
"1835",68,2,35,0,103,0,0.546,0,1
"1836",68,2,36,0,57,1,1.568,0,1
"1837",68,2,37,0,54,1,0.433,1,2
"1838",68,2,38,0,13,1,0.34,1,2
"1839",68,2,39,0,98,0,2.526,0,1
"1840",68,2,40,0,18,1,0.894,1,3
"1841",68,2,41,0,28,1,1.306,1,3
"1842",68,2,42,0,21,1,1.053,1,3
"1843",68,2,43,0,109,0,0.77,0,1
"1844",68,2,44,0,94,0,0.366,0,1
"1845",68,2,45,0,29,1,0.267,1,2
"1846",68,2,46,0,104,0,0.922,0,1
"1847",68,2,47,0,99,0,1.551,1,2
"1848",68,2,48,0,97,0,1.47,0,1
"1849",68,2,49,0,116,0,1.642,1,2
"1850",68,2,50,0,110,0,1.689,1,4
"1851",68,2,51,0,41,1,0.937,0,1
"1852",68,2,52,0,111,0,1.11,0,1
"1853",68,2,53,0,36,1,0.369,0,1
"1854",68,2,54,0,6,1,0.456,0,4
"1855",68,2,55,0,48,1,2.405,1,2
"1856",68,2,56,0,42,1,0.332,0,4
"1857",68,2,57,0,108,0,1.735,0,1
"1858",68,2,58,0,106,0,0.325,0,2
"1859",68,2,59,0,2,1,0.837,0,1
"1860",68,2,60,0,114,0,0.456,0,1
"1861",70,2,1,0,46,0,1.977,0,5
"1862",70,2,2,0,119,1,2.196,0,6
"1863",70,2,3,0,109,1,2.529,0,3
"1864",70,2,4,0,23,0,2.646,0,5
"1865",70,2,5,0,98,1,1.824,0,6
"1866",70,2,6,0,112,1,3.484,1,2
"1867",70,2,7,0,52,0,6.477,0,4
"1868",70,2,8,0,99,1,1.453,1,4
"1869",70,2,9,0,106,1,2.889,0,2
"1870",70,2,10,0,102,1,2.697,1,3
"1871",70,2,11,0,95,1,2.426,0,1
"1872",70,2,12,0,108,1,1.24,0,4
"1873",70,2,13,0,92,1,2.715,1,3
"1874",70,2,14,0,38,0,2.129,0,5
"1875",70,2,15,0,100,1,2.165,1,4
"1876",70,2,16,0,117,1,1.36,0,5
"1877",70,2,17,0,4,0,1.373,1,5
"1878",70,2,18,0,19,0,1.078,1,1
"1879",70,2,19,0,91,1,0.805,1,2
"1880",70,2,20,0,103,1,2.201,0,2
"1881",70,2,21,0,113,1,1.851,0,1
"1882",70,2,22,0,22,0,0.608,1,1
"1883",70,2,23,0,58,0,0.912,1,4
"1884",70,2,24,0,107,1,5.591,0,2
"1885",70,2,25,0,101,1,1.563,0,6
"1886",70,2,26,0,59,0,1.945,0,3
"1887",70,2,27,0,26,0,3.497,0,4
"1888",70,2,28,0,93,1,0.56,1,4
"1889",70,2,29,0,49,0,1.565,0,5
"1890",70,2,30,0,33,0,0.661,1,4
"1891",70,2,31,0,115,1,0.427,1,4
"1892",70,2,32,0,8,0,2.911,0,2
"1893",70,2,33,0,118,1,1.997,0,3
"1894",70,2,34,0,110,1,0.786,0,4
"1895",70,2,35,0,27,0,1.141,0,5
"1896",70,2,36,0,34,0,0.898,1,3
"1897",70,2,37,0,104,1,1.299,0,5
"1898",70,2,38,0,11,0,0.898,1,4
"1899",70,2,39,0,105,1,4.07,0,1
"1900",70,2,40,0,55,0,0.517,1,4
"1901",70,2,41,0,30,0,0.704,0,3
"1902",70,2,42,0,37,0,2.93,1,3
"1903",70,2,43,0,120,1,0.989,0,3
"1904",70,2,44,0,5,0,0.828,0,5
"1905",70,2,45,0,39,0,1.493,1,3
"1906",70,2,46,0,32,0,4.286,1,2
"1907",70,2,47,0,114,1,2.548,0,4
"1908",70,2,48,0,7,0,0.836,1,2
"1909",70,2,49,0,56,0,7.304,0,1
"1910",70,2,50,0,9,0,0.722,0,5
"1911",70,2,51,0,116,1,2.189,1,3
"1912",70,2,52,0,14,0,1.286,0,5
"1913",70,2,53,0,97,1,1.323,0,6
"1914",70,2,54,0,111,1,2.629,0,3
"1915",70,2,55,0,94,1,1.207,1,6
"1916",70,2,56,0,17,0,1.187,0,4
"1917",70,2,57,0,50,0,1.117,1,1
"1918",70,2,58,0,96,1,0.406,0,4
"1919",70,2,59,0,47,0,0.842,1,1
"1920",70,2,60,0,15,0,1.951,1,2
"1921",72,2,1,0,99,0,1.127,0,3
"1922",72,2,2,0,93,0,8.498,1,2
"1923",72,2,3,0,108,0,1.753,1,3
"1924",72,2,4,0,111,0,1.551,0,1
"1925",72,2,5,0,32,1,16.754,1,1
"1926",72,2,6,0,27,1,0.528,1,4
"1927",72,2,7,0,102,0,1.026,0,1
"1928",72,2,8,0,104,0,1.505,1,1
"1929",72,2,9,0,103,0,1.912,0,1
"1930",72,2,10,0,22,1,1.362,1,1
"1931",72,2,11,0,19,1,1.214,0,1
"1932",72,2,12,0,39,1,2.608,0,1
"1933",72,2,13,0,9,1,1.06,0,3
"1934",72,2,14,0,97,0,2.42,0,1
"1935",72,2,15,0,47,1,1.639,1,1
"1936",72,2,16,0,5,1,1.014,1,1
"1937",72,2,17,0,105,0,12.269,1,1
"1938",72,2,18,0,112,0,19.062,1,1
"1939",72,2,19,0,23,1,2.813,0,4
"1940",72,2,20,0,117,0,1.402,1,1
"1941",72,2,21,0,30,1,0.827,1,1
"1942",72,2,22,0,46,1,0.962,1,5
"1943",72,2,23,0,120,0,2.645,0,1
"1944",72,2,24,0,106,0,1.127,1,1
"1945",72,2,25,0,14,1,4.101,0,1
"1946",72,2,26,0,34,1,7.318,1,1
"1947",72,2,27,0,55,1,2.002,1,1
"1948",72,2,28,0,100,0,0.209,0,1
"1949",72,2,29,0,96,0,1.863,1,1
"1950",72,2,30,0,94,0,4.711,0,2
"1951",72,2,31,0,11,1,1.122,0,4
"1952",72,2,32,0,101,0,1.617,0,1
"1953",72,2,33,0,49,1,0.704,1,3
"1954",72,2,34,0,8,1,0.465,0,1
"1955",72,2,35,0,98,0,0.371,0,3
"1956",72,2,36,0,37,1,0.402,1,1
"1957",72,2,37,0,15,1,0.367,1,1
"1958",72,2,38,0,4,1,0.592,1,3
"1959",72,2,39,0,107,0,5.828,0,2
"1960",72,2,40,0,109,0,6.799,0,1
"1961",72,2,41,0,17,1,4.783,1,1
"1962",72,2,42,0,116,0,0.956,1,1
"1963",72,2,43,0,91,0,1.022,0,1
"1964",72,2,44,0,110,0,0.957,1,2
"1965",72,2,45,0,52,1,1.137,1,5
"1966",72,2,46,0,50,1,1.093,1,4
"1967",72,2,47,0,26,1,1.043,0,1
"1968",72,2,48,0,95,0,1.542,0,1
"1969",72,2,49,0,119,0,1.082,1,3
"1970",72,2,50,0,59,1,1.495,1,1
"1971",72,2,51,0,58,1,1.875,0,1
"1972",72,2,52,0,114,0,1.074,1,2
"1973",72,2,53,0,118,0,1.447,0,1
"1974",72,2,54,0,92,0,2.248,0,1
"1975",72,2,55,0,115,0,3.005,0,1
"1976",72,2,56,0,33,1,1.347,0,1
"1977",72,2,57,0,7,1,0.972,1,1
"1978",72,2,58,0,38,1,1.154,1,1
"1979",72,2,59,0,56,1,2.287,0,1
"1980",72,2,60,0,113,0,1.067,0,1
"1981",74,2,1,0,1,0,3.563,1,2
"1982",74,2,2,0,84,1,2.96,1,1
"1983",74,2,3,0,16,0,1.93,0,2
"1984",74,2,4,0,6,0,1.673,1,1
"1985",74,2,5,0,53,0,1.179,1,1
"1986",74,2,6,0,2,0,1.88,1,1
"1987",74,2,7,0,87,1,1.859,1,1
"1988",74,2,8,0,65,1,1.392,0,2
"1989",74,2,9,0,3,0,1.247,1,3
"1990",74,2,10,0,68,1,1.261,1,1
"1991",74,2,11,0,77,1,1.339,1,3
"1992",74,2,12,0,41,0,1.104,1,1
"1993",74,2,13,0,35,0,1.777,1,1
"1994",74,2,14,0,20,0,1.337,1,2
"1995",74,2,15,0,63,1,1.664,1,1
"1996",74,2,16,0,60,0,1.192,0,1
"1997",74,2,17,0,73,1,1.251,1,1
"1998",74,2,18,0,80,1,1.238,1,6
"1999",74,2,19,0,85,1,0.982,1,1
"2000",74,2,20,0,29,0,1.272,1,4
"2001",74,2,21,0,45,0,1.665,0,5
"2002",74,2,22,0,75,1,1.329,1,2
"2003",74,2,23,0,81,1,1.103,1,1
"2004",74,2,24,0,44,0,1.481,0,3
"2005",74,2,25,0,66,1,1.529,0,2
"2006",74,2,26,0,64,1,1.333,1,2
"2007",74,2,27,0,10,0,2.06,1,1
"2008",74,2,28,0,18,0,1.285,0,3
"2009",74,2,29,0,36,0,2.08,0,2
"2010",74,2,30,0,25,0,2.051,0,1
"2011",74,2,31,0,43,0,1.624,0,1
"2012",74,2,32,0,21,0,1.239,1,1
"2013",74,2,33,0,71,1,1.49,1,1
"2014",74,2,34,0,62,1,1.296,1,1
"2015",74,2,35,0,76,1,0.929,1,1
"2016",74,2,36,0,61,1,1.28,1,1
"2017",74,2,37,0,42,0,1.246,1,1
"2018",74,2,38,0,82,1,1.701,0,1
"2019",74,2,39,0,78,1,1.331,0,1
"2020",74,2,40,0,54,0,1.38,1,2
"2021",74,2,41,0,13,0,1.196,1,1
"2022",74,2,42,0,72,1,1.917,0,1
"2023",74,2,43,0,70,1,1.306,1,1
"2024",74,2,44,0,69,1,1.75,1,1
"2025",74,2,45,0,12,0,1.46,1,1
"2026",74,2,46,0,83,1,0.982,1,1
"2027",74,2,47,0,90,1,1.497,1,1
"2028",74,2,48,0,40,0,1.601,0,1
"2029",74,2,49,0,74,1,3.949,0,6
"2030",74,2,50,0,86,1,0.92,1,1
"2031",74,2,51,0,57,0,0.92,0,1
"2032",74,2,52,0,79,1,1.363,1,1
"2033",74,2,53,0,51,0,1.497,0,1
"2034",74,2,54,0,89,1,2.281,1,1
"2035",74,2,55,0,67,1,1.359,1,1
"2036",74,2,56,0,31,0,2.655,0,1
"2037",74,2,57,0,28,0,1.714,1,3
"2038",74,2,58,0,48,0,1.14,1,2
"2039",74,2,59,0,24,0,1.959,0,1
"2040",74,2,60,0,88,1,1.342,0,1
"2041",76,2,1,0,51,1,1.612,1,2
"2042",76,2,2,0,1,1,6.385,0,3
"2043",76,2,3,0,45,1,2.232,0,6
"2044",76,2,4,0,64,0,4.99,1,1
"2045",76,2,5,0,20,1,5.028,1,2
"2046",76,2,6,0,87,0,8.855,1,3
"2047",76,2,7,0,61,0,5.976,0,5
"2048",76,2,8,0,6,1,3.765,0,6
"2049",76,2,9,0,74,0,4.156,1,3
"2050",76,2,10,0,53,1,0.818,1,1
"2051",76,2,11,0,76,0,1.891,0,1
"2052",76,2,12,0,73,0,3.621,1,1
"2053",76,2,13,0,81,0,3.329,0,1
"2054",76,2,14,0,13,1,3.777,0,1
"2055",76,2,15,0,57,1,5.354,0,1
"2056",76,2,16,0,83,0,5.861,0,1
"2057",76,2,17,0,12,1,4.678,1,4
"2058",76,2,18,0,2,1,1.94,1,1
"2059",76,2,19,0,54,1,1.879,1,2
"2060",76,2,20,0,82,0,4.435,1,2
"2061",76,2,21,0,28,1,1.518,0,5
"2062",76,2,22,0,40,1,3.021,1,1
"2063",76,2,23,0,85,0,2.161,1,2
"2064",76,2,24,0,78,0,2.587,1,1
"2065",76,2,25,0,67,0,8.906,1,2
"2066",76,2,26,0,42,1,4.571,0,2
"2067",76,2,27,0,70,0,0.831,1,2
"2068",76,2,28,0,43,1,3.353,0,1
"2069",76,2,29,0,80,0,3.783,0,5
"2070",76,2,30,0,77,0,4.135,0,1
"2071",76,2,31,0,18,1,2.285,0,1
"2072",76,2,32,0,44,1,1.712,0,1
"2073",76,2,33,0,71,0,4.184,0,4
"2074",76,2,34,0,89,0,2.056,0,1
"2075",76,2,35,0,41,1,3.052,0,1
"2076",76,2,36,0,60,1,0.591,0,1
"2077",76,2,37,0,75,0,4.619,1,2
"2078",76,2,38,0,65,0,0.424,0,1
"2079",76,2,39,0,36,1,1.178,0,1
"2080",76,2,40,0,21,1,5.86,0,3
"2081",76,2,41,0,69,0,1.528,1,2
"2082",76,2,42,0,25,1,1.675,0,5
"2083",76,2,43,0,90,0,1.089,0,1
"2084",76,2,44,0,88,0,6.967,0,1
"2085",76,2,45,0,3,1,0.984,0,2
"2086",76,2,46,0,29,1,0.863,1,1
"2087",76,2,47,0,10,1,1.396,0,2
"2088",76,2,48,0,72,0,0.917,0,5
"2089",76,2,49,0,63,0,1.927,0,1
"2090",76,2,50,0,86,0,5.453,0,1
"2091",76,2,51,0,35,1,0.31,0,1
"2092",76,2,52,0,68,0,0.995,0,2
"2093",76,2,53,0,66,0,2.725,0,6
"2094",76,2,54,0,62,0,3.812,0,1
"2095",76,2,55,0,24,1,0.461,0,1
"2096",76,2,56,0,16,1,4.109,0,1
"2097",76,2,57,0,31,1,2.287,0,2
"2098",76,2,58,0,84,0,0.681,0,1
"2099",76,2,59,0,48,1,0.624,0,2
"2100",76,2,60,0,79,0,2.249,1,1
"2101",78,2,1,0,111,1,4.023,1,2
"2102",78,2,2,0,54,0,2.207,1,4
"2103",78,2,3,0,44,0,2.483,0,5
"2104",78,2,4,0,29,0,3.372,0,2
"2105",78,2,5,0,108,1,1.694,1,4
"2106",78,2,6,0,16,0,2.954,1,2
"2107",78,2,7,0,94,1,1.37,1,6
"2108",78,2,8,0,96,1,5.165,1,2
"2109",78,2,9,0,1,0,7.197,0,5
"2110",78,2,10,0,114,1,3.643,1,3
"2111",78,2,11,0,60,0,1.64,1,1
"2112",78,2,12,0,106,1,1.598,0,1
"2113",78,2,13,0,105,1,1.222,1,2
"2114",78,2,14,0,93,1,1.068,1,5
"2115",78,2,15,0,18,0,1.012,1,4
"2116",78,2,16,0,12,0,2.426,1,6
"2117",78,2,17,0,92,1,1.257,1,4
"2118",78,2,18,0,21,0,4.023,0,3
"2119",78,2,19,0,104,1,2.637,1,3
"2120",78,2,20,0,2,0,1.778,0,1
"2121",78,2,21,0,116,1,1.37,1,4
"2122",78,2,22,0,102,1,1.418,1,2
"2123",78,2,23,0,91,1,1.294,1,2
"2124",78,2,24,0,119,1,4.558,0,4
"2125",78,2,25,0,120,1,3.061,1,2
"2126",78,2,26,0,107,1,1.801,0,3
"2127",78,2,27,0,99,1,6.64,1,2
"2128",78,2,28,0,97,1,1.632,1,1
"2129",78,2,29,0,98,1,1.032,0,2
"2130",78,2,30,0,113,1,1.154,1,1
"2131",78,2,31,0,35,0,1.509,1,2
"2132",78,2,32,0,112,1,2.721,0,5
"2133",78,2,33,0,101,1,0.879,1,6
"2134",78,2,34,0,36,0,1.199,0,3
"2135",78,2,35,0,95,1,1.769,1,1
"2136",78,2,36,0,117,1,1.521,1,1
"2137",78,2,37,0,43,0,1.499,0,1
"2138",78,2,38,0,10,0,1.636,0,5
"2139",78,2,39,0,53,0,4.257,1,2
"2140",78,2,40,0,31,0,4.612,0,3
"2141",78,2,41,0,103,1,1.034,1,4
"2142",78,2,42,0,42,0,1.142,0,3
"2143",78,2,43,0,40,0,1.284,0,2
"2144",78,2,44,0,3,0,3.119,0,5
"2145",78,2,45,0,57,0,2.396,1,1
"2146",78,2,46,0,24,0,4.411,0,2
"2147",78,2,47,0,118,1,3.298,1,2
"2148",78,2,48,0,110,1,3.429,1,4
"2149",78,2,49,0,100,1,4.423,0,1
"2150",78,2,50,0,45,0,2.004,0,6
"2151",78,2,51,0,28,0,1.228,0,4
"2152",78,2,52,0,48,0,3.47,1,2
"2153",78,2,53,0,115,1,1.94,1,4
"2154",78,2,54,0,51,0,4.787,1,4
"2155",78,2,55,0,25,0,2.424,0,6
"2156",78,2,56,0,20,0,5.189,1,4
"2157",78,2,57,0,6,0,5.038,0,4
"2158",78,2,58,0,13,0,1.364,1,4
"2159",78,2,59,0,109,1,6.918,1,3
"2160",78,2,60,0,41,0,0.847,0,3
"2161",80,2,1,0,116,0,3.589,0,3
"2162",80,2,2,0,35,1,0.72,1,3
"2163",80,2,3,0,97,0,1.197,0,4
"2164",80,2,4,0,120,0,3.679,1,4
"2165",80,2,5,0,118,0,1.188,0,3
"2166",80,2,6,0,45,1,1.331,0,2
"2167",80,2,7,0,114,0,1.19,1,3
"2168",80,2,8,0,53,1,0.852,1,3
"2169",80,2,9,0,100,0,4.879,0,2
"2170",80,2,10,0,31,1,1.46,0,3
"2171",80,2,11,0,36,1,1.213,1,4
"2172",80,2,12,0,95,0,1.18,0,2
"2173",80,2,13,0,10,1,1.117,0,3
"2174",80,2,14,0,1,1,0.338,1,3
"2175",80,2,15,0,41,1,2.162,0,3
"2176",80,2,16,0,21,1,0.803,0,4
"2177",80,2,17,0,117,0,1.669,0,3
"2178",80,2,18,0,57,1,0.764,1,4
"2179",80,2,19,0,94,0,1.613,1,5
"2180",80,2,20,0,18,1,0.39,0,3
"2181",80,2,21,0,107,0,2.893,0,3
"2182",80,2,22,0,25,1,0.394,0,3
"2183",80,2,23,0,12,1,0.365,1,4
"2184",80,2,24,0,102,0,0.64,0,3
"2185",80,2,25,0,112,0,0.661,1,4
"2186",80,2,26,0,54,1,0.375,1,4
"2187",80,2,27,0,115,0,1.082,1,3
"2188",80,2,28,0,110,0,1.194,0,5
"2189",80,2,29,0,3,1,0.643,1,4
"2190",80,2,30,0,108,0,0.91,1,4
"2191",80,2,31,0,92,0,0.664,1,3
"2192",80,2,32,0,28,1,0.39,1,4
"2193",80,2,33,0,20,1,1.988,1,5
"2194",80,2,34,0,111,0,1.645,1,3
"2195",80,2,35,0,103,0,0.806,0,3
"2196",80,2,36,0,91,0,1.144,0,2
"2197",80,2,37,0,99,0,0.376,0,4
"2198",80,2,38,0,51,1,0.659,1,4
"2199",80,2,39,0,113,0,0.34,1,4
"2200",80,2,40,0,29,1,0.46,1,3
"2201",80,2,41,0,43,1,2.05,0,5
"2202",80,2,42,0,101,0,0.65,0,5
"2203",80,2,43,0,44,1,4.152,0,3
"2204",80,2,44,0,93,0,0.582,0,3
"2205",80,2,45,0,16,1,1.27,0,3
"2206",80,2,46,0,96,0,1.458,0,3
"2207",80,2,47,0,6,1,1.752,1,3
"2208",80,2,48,0,13,1,0.464,1,3
"2209",80,2,49,0,60,1,0.345,0,3
"2210",80,2,50,0,48,1,0.403,1,4
"2211",80,2,51,0,98,0,0.385,0,5
"2212",80,2,52,0,109,0,1.02,0,3
"2213",80,2,53,0,40,1,0.824,1,3
"2214",80,2,54,0,24,1,0.773,0,3
"2215",80,2,55,0,105,0,1.185,0,3
"2216",80,2,56,0,106,0,1.071,0,4
"2217",80,2,57,0,119,0,3.041,1,2
"2218",80,2,58,0,42,1,1.146,0,3
"2219",80,2,59,0,2,1,0.589,1,3
"2220",80,2,60,0,104,0,16.164,0,5
"2221",82,2,1,0,62,0,2.335,1,1
"2222",82,2,2,0,72,0,2.164,1,1
"2223",82,2,3,0,75,0,2.744,0,1
"2224",82,2,4,0,96,1,3.612,1,1
"2225",82,2,5,0,82,0,2.217,1,1
"2226",82,2,6,0,111,1,6.671,1,1
"2227",82,2,7,0,78,0,0.708,0,1
"2228",82,2,8,0,105,1,3.142,1,1
"2229",82,2,9,0,91,1,0.838,0,1
"2230",82,2,10,0,114,1,0.561,1,1
"2231",82,2,11,0,92,1,0.333,1,3
"2232",82,2,12,0,104,1,1.484,1,1
"2233",82,2,13,0,100,1,0.879,1,3
"2234",82,2,14,0,63,0,0.892,1,3
"2235",82,2,15,0,99,1,0.726,1,4
"2236",82,2,16,0,119,1,0.748,1,2
"2237",82,2,17,0,115,1,0.555,1,4
"2238",82,2,18,0,120,1,2.1,1,1
"2239",82,2,19,0,64,0,1.881,1,1
"2240",82,2,20,0,101,1,2.054,0,1
"2241",82,2,21,0,113,1,1.42,0,1
"2242",82,2,22,0,73,0,0.971,1,1
"2243",82,2,23,0,94,1,1.366,0,1
"2244",82,2,24,0,117,1,2.443,0,1
"2245",82,2,25,0,74,0,1.274,1,1
"2246",82,2,26,0,68,0,1.246,1,1
"2247",82,2,27,0,88,0,0.631,0,1
"2248",82,2,28,0,112,1,0.992,1,2
"2249",82,2,29,0,65,0,0.992,0,1
"2250",82,2,30,0,85,0,1.234,0,1
"2251",82,2,31,0,98,1,0.631,1,1
"2252",82,2,32,0,110,1,0.408,1,6
"2253",82,2,33,0,90,0,2.157,0,1
"2254",82,2,34,0,76,0,1.847,0,1
"2255",82,2,35,0,93,1,0.931,1,1
"2256",82,2,36,0,61,0,1.516,0,1
"2257",82,2,37,0,80,0,3.079,1,1
"2258",82,2,38,0,106,1,1.008,0,1
"2259",82,2,39,0,118,1,1.959,1,1
"2260",82,2,40,0,86,0,0.794,0,1
"2261",82,2,41,0,84,0,1.557,1,1
"2262",82,2,42,0,95,1,0.521,1,4
"2263",82,2,43,0,69,0,0.353,1,3
"2264",82,2,44,0,116,1,1.391,1,1
"2265",82,2,45,0,66,0,3.107,1,1
"2266",82,2,46,0,89,0,1.803,1,4
"2267",82,2,47,0,102,1,0.363,1,5
"2268",82,2,48,0,107,1,1.599,0,1
"2269",82,2,49,0,97,1,1.48,0,6
"2270",82,2,50,0,83,0,2.4,1,1
"2271",82,2,51,0,108,1,0.986,1,1
"2272",82,2,52,0,79,0,0.922,1,1
"2273",82,2,53,0,109,1,7.149,1,3
"2274",82,2,54,0,77,0,2.294,1,1
"2275",82,2,55,0,103,1,1.171,0,1
"2276",82,2,56,0,81,0,3.058,0,1
"2277",82,2,57,0,71,0,1.473,1,1
"2278",82,2,58,0,87,0,3.148,1,1
"2279",82,2,59,0,67,0,2.404,1,1
"2280",82,2,60,0,70,0,1.158,0,1
"2281",84,2,1,0,86,1,1.112,0,3
"2282",84,2,2,0,76,1,1.66,1,2
"2283",84,2,3,0,107,0,3.523,0,5
"2284",84,2,4,0,111,0,1.977,0,1
"2285",84,2,5,0,100,0,1.747,1,5
"2286",84,2,6,0,84,1,2.077,0,2
"2287",84,2,7,0,98,0,1.177,1,3
"2288",84,2,8,0,105,0,2.011,0,2
"2289",84,2,9,0,64,1,0.744,1,3
"2290",84,2,10,0,87,1,1.578,1,4
"2291",84,2,11,0,114,0,1.303,0,3
"2292",84,2,12,0,99,0,1.058,1,5
"2293",84,2,13,0,77,1,1.548,0,5
"2294",84,2,14,0,89,1,0.374,1,5
"2295",84,2,15,0,118,0,2.596,0,2
"2296",84,2,16,0,113,0,1.779,1,2
"2297",84,2,17,0,72,1,2.836,1,2
"2298",84,2,18,0,108,0,0.621,1,3
"2299",84,2,19,0,115,0,0.538,1,2
"2300",84,2,20,0,112,0,0.73,0,4
"2301",84,2,21,0,82,1,1.026,1,3
"2302",84,2,22,0,68,1,1.582,0,2
"2303",84,2,23,0,116,0,1.054,1,3
"2304",84,2,24,0,81,1,0.687,0,1
"2305",84,2,25,0,67,1,0.483,0,2
"2306",84,2,26,0,80,1,1.187,0,4
"2307",84,2,27,0,63,1,0.6,1,2
"2308",84,2,28,0,109,0,2.028,0,4
"2309",84,2,29,0,101,0,0.667,0,4
"2310",84,2,30,0,92,0,1.446,0,6
"2311",84,2,31,0,74,1,1.437,1,5
"2312",84,2,32,0,65,1,1.11,0,5
"2313",84,2,33,0,85,1,0.943,1,1
"2314",84,2,34,0,90,1,3.959,1,3
"2315",84,2,35,0,62,1,2.467,0,2
"2316",84,2,36,0,95,0,0.502,0,2
"2317",84,2,37,0,93,0,2.146,1,5
"2318",84,2,38,0,61,1,0.427,0,4
"2319",84,2,39,0,91,0,1.38,1,2
"2320",84,2,40,0,75,1,2.642,1,3
"2321",84,2,41,0,70,1,1.292,0,6
"2322",84,2,42,0,97,0,0.945,0,6
"2323",84,2,43,0,73,1,1.2,1,3
"2324",84,2,44,0,78,1,1.741,0,4
"2325",84,2,45,0,96,0,0.767,0,6
"2326",84,2,46,0,83,1,6.262,1,5
"2327",84,2,47,0,69,1,5.77,0,6
"2328",84,2,48,0,102,0,1.965,1,2
"2329",84,2,49,0,103,0,1.516,0,2
"2330",84,2,50,0,119,0,0.896,1,4
"2331",84,2,51,0,120,0,3.221,0,4
"2332",84,2,52,0,110,0,0.776,0,2
"2333",84,2,53,0,71,1,3.577,1,4
"2334",84,2,54,0,66,1,0.954,1,4
"2335",84,2,55,0,88,1,1.994,1,5
"2336",84,2,56,0,94,0,0.377,0,5
"2337",84,2,57,0,104,0,3.322,1,3
"2338",84,2,58,0,106,0,0.92,1,2
"2339",84,2,59,0,117,0,0.737,0,5
"2340",84,2,60,0,79,1,3.354,1,5
"2341",86,2,1,0,15,0,2.431,0,3
"2342",86,2,2,0,23,0,2.94,0,4
"2343",86,2,3,0,50,0,0.845,0,6
"2344",86,2,4,0,22,0,1.532,1,2
"2345",86,2,5,0,82,1,1.661,1,2
"2346",86,2,6,0,9,0,3.157,1,4
"2347",86,2,7,0,5,0,1.799,0,3
"2348",86,2,8,0,46,0,2.111,0,4
"2349",86,2,9,0,76,1,2.907,1,3
"2350",86,2,10,0,58,0,0.902,1,4
"2351",86,2,11,0,27,0,2.004,0,4
"2352",86,2,12,0,56,0,2.272,0,4
"2353",86,2,13,0,8,0,3.14,1,3
"2354",86,2,14,0,65,1,1.34,0,5
"2355",86,2,15,0,11,0,0.57,1,5
"2356",86,2,16,0,55,0,0.985,1,5
"2357",86,2,17,0,81,1,2.167,0,2
"2358",86,2,18,0,37,0,2.512,0,2
"2359",86,2,19,0,77,1,3.929,0,4
"2360",86,2,20,0,26,0,4.909,1,3
"2361",86,2,21,0,79,1,1.601,1,5
"2362",86,2,22,0,75,1,2.051,1,4
"2363",86,2,23,0,39,0,1.645,1,2
"2364",86,2,24,0,34,0,0.762,1,2
"2365",86,2,25,0,85,1,1.62,1,4
"2366",86,2,26,0,30,0,0.528,1,3
"2367",86,2,27,0,33,0,4.152,1,2
"2368",86,2,28,0,66,1,9.371,0,1
"2369",86,2,29,0,84,1,1.959,1,3
"2370",86,2,30,0,32,0,1.177,1,3
"2371",86,2,31,0,89,1,0.515,1,6
"2372",86,2,32,0,17,0,1.745,1,4
"2373",86,2,33,0,38,0,5.485,0,3
"2374",86,2,34,0,47,0,1.038,1,2
"2375",86,2,35,0,83,1,1.866,1,4
"2376",86,2,36,0,71,1,0.853,1,5
"2377",86,2,37,0,63,1,4.819,0,4
"2378",86,2,38,0,62,1,4.838,1,3
"2379",86,2,39,0,68,1,1.333,1,2
"2380",86,2,40,0,59,0,2.013,0,5
"2381",86,2,41,0,87,1,1.655,1,4
"2382",86,2,42,0,52,0,4.821,1,4
"2383",86,2,43,0,49,0,0.898,1,3
"2384",86,2,44,0,78,1,0.662,1,5
"2385",86,2,45,0,88,1,2.307,1,4
"2386",86,2,46,0,19,0,0.918,1,4
"2387",86,2,47,0,90,1,2.86,1,4
"2388",86,2,48,0,64,1,1.987,1,2
"2389",86,2,49,0,69,1,3.34,1,5
"2390",86,2,50,0,14,0,2.28,0,3
"2391",86,2,51,0,86,1,3.129,1,5
"2392",86,2,52,0,7,0,2.644,0,5
"2393",86,2,53,0,4,0,2.203,1,5
"2394",86,2,54,0,80,1,1.77,0,5
"2395",86,2,55,0,61,1,3.463,0,3
"2396",86,2,56,0,74,1,0.609,1,5
"2397",86,2,57,0,72,1,1.252,0,6
"2398",86,2,58,0,70,1,2.038,1,5
"2399",86,2,59,0,67,1,1.912,1,2
"2400",86,2,60,0,73,1,2.325,0,2
"2401",1,2,1,1,60,0,1.078,0,3
"2402",1,2,2,1,41,0,0.862,1,3
"2403",1,2,3,1,19,1,1.87,0,4
"2404",1,2,4,1,52,1,2.852,1,5
"2405",1,2,5,1,31,0,1.476,1,4
"2406",1,2,6,1,1,0,2.802,0,1
"2407",1,2,7,1,59,1,1.3,0,1
"2408",1,2,8,1,53,0,1.174,1,4
"2409",1,2,9,1,22,1,2.405,1,5
"2410",1,2,10,1,33,1,1.605,0,4
"2411",1,2,11,1,35,0,1.009,1,5
"2412",1,2,12,1,51,0,1.71,1,2
"2413",1,2,13,1,42,0,1.5,0,4
"2414",1,2,14,1,4,1,1.37,0,3
"2415",1,2,15,1,8,1,1.733,0,1
"2416",1,2,16,1,16,0,4.5,1,3
"2417",1,2,17,1,57,0,0.955,1,3
"2418",1,2,18,1,55,1,1.546,0,4
"2419",1,2,19,1,47,1,0.169,1,3
"2420",1,2,20,1,21,0,1.087,1,4
"2421",1,2,21,1,15,1,1.446,1,4
"2422",1,2,22,1,45,0,1.487,0,4
"2423",1,2,23,1,9,1,3.774,1,4
"2424",1,2,24,1,24,0,2.139,0,3
"2425",1,2,25,1,56,1,2.379,1,4
"2426",1,2,26,1,39,1,0.778,1,4
"2427",1,2,27,1,30,1,0.128,1,4
"2428",1,2,28,1,18,0,1.755,1,4
"2429",1,2,29,1,2,0,1.103,0,4
"2430",1,2,30,1,32,1,2.413,1,5
"2431",1,2,31,1,25,0,2.235,0,4
"2432",1,2,32,1,43,0,1.893,1,3
"2433",1,2,33,1,27,1,2.247,1,4
"2434",1,2,34,1,46,1,2.011,1,5
"2435",1,2,35,1,58,1,1.318,1,6
"2436",1,2,36,1,50,1,1.339,1,2
"2437",1,2,37,1,26,1,1.41,0,4
"2438",1,2,38,1,29,0,1.13,1,3
"2439",1,2,39,1,23,1,2.669,0,5
"2440",1,2,40,1,34,1,1.1,0,2
"2441",1,2,41,1,36,0,1.345,0,2
"2442",1,2,42,1,49,1,4.298,1,5
"2443",1,2,43,1,12,0,6.574,0,1
"2444",1,2,44,1,54,0,2.22,0,3
"2445",1,2,45,1,6,0,1.774,1,5
"2446",1,2,46,1,38,1,1.995,1,4
"2447",1,2,47,1,13,0,6.548,1,3
"2448",1,2,48,1,3,0,3.028,0,5
"2449",1,2,49,1,44,0,4.763,1,3
"2450",1,2,50,1,5,1,2.694,0,2
"2451",1,2,51,1,11,1,0.703,1,4
"2452",1,2,52,1,14,1,3.233,0,4
"2453",1,2,53,1,17,1,2.701,1,4
"2454",1,2,54,1,37,1,1.117,1,5
"2455",1,2,55,1,48,0,1.482,1,5
"2456",1,2,56,1,40,0,1.44,0,5
"2457",1,2,57,1,28,0,0.954,0,6
"2458",1,2,58,1,7,1,1.546,0,2
"2459",1,2,59,1,20,0,2.217,0,2
"2460",1,2,60,1,10,0,1.975,1,4
"2461",3,2,1,1,20,1,3.181,1,4
"2462",3,2,2,1,16,1,0.878,0,3
"2463",3,2,3,1,31,1,0.894,1,5
"2464",3,2,4,1,46,0,0.56,1,4
"2465",3,2,5,1,25,1,0.789,0,3
"2466",3,2,6,1,8,0,1.161,1,2
"2467",3,2,7,1,24,1,0.67,1,3
"2468",3,2,8,1,21,1,0.383,1,4
"2469",3,2,9,1,6,1,1.035,0,6
"2470",3,2,10,1,29,1,0.586,1,4
"2471",3,2,11,1,1,1,1.636,0,3
"2472",3,2,12,1,42,1,0.699,1,4
"2473",3,2,13,1,52,0,0.653,0,2
"2474",3,2,14,1,28,1,0.322,1,4
"2475",3,2,15,1,12,1,0.338,1,6
"2476",3,2,16,1,7,0,0.968,0,4
"2477",3,2,17,1,48,1,0.409,1,3
"2478",3,2,18,1,33,0,2.77,0,1
"2479",3,2,19,1,39,0,1.909,1,1
"2480",3,2,20,1,49,0,0.746,1,3
"2481",3,2,21,1,30,0,0.72,1,3
"2482",3,2,22,1,10,1,0.806,0,4
"2483",3,2,23,1,58,0,0.482,1,4
"2484",3,2,24,1,2,1,0.313,1,4
"2485",3,2,25,1,23,0,1.17,0,4
"2486",3,2,26,1,11,0,0.926,0,4
"2487",3,2,27,1,9,0,0.67,1,4
"2488",3,2,28,1,40,1,0.359,1,5
"2489",3,2,29,1,19,0,0.413,1,4
"2490",3,2,30,1,41,1,1.3,0,1
"2491",3,2,31,1,18,1,0.688,1,4
"2492",3,2,32,1,47,0,1.793,1,3
"2493",3,2,33,1,54,1,0.272,1,2
"2494",3,2,34,1,4,0,0.696,1,4
"2495",3,2,35,1,36,1,0.687,1,5
"2496",3,2,36,1,45,1,0.967,0,6
"2497",3,2,37,1,26,0,1.068,1,4
"2498",3,2,38,1,59,0,0.335,1,3
"2499",3,2,39,1,43,1,1.51,0,2
"2500",3,2,40,1,32,0,1.644,1,3
"2501",3,2,41,1,27,0,0.826,0,2
"2502",3,2,42,1,55,0,1.254,1,1
"2503",3,2,43,1,14,0,0.783,1,2
"2504",3,2,44,1,60,1,0.317,1,4
"2505",3,2,45,1,13,1,0.327,1,3
"2506",3,2,46,1,57,1,0.761,1,5
"2507",3,2,47,1,5,0,0.688,1,1
"2508",3,2,48,1,37,0,0.919,1,1
"2509",3,2,49,1,15,0,1.016,1,2
"2510",3,2,50,1,3,1,0.843,0,2
"2511",3,2,51,1,35,1,0.628,1,5
"2512",3,2,52,1,56,0,0.717,1,5
"2513",3,2,53,1,34,0,0.404,1,1
"2514",3,2,54,1,51,1,0.521,1,6
"2515",3,2,55,1,17,0,0.495,1,3
"2516",3,2,56,1,53,1,0.379,0,2
"2517",3,2,57,1,44,1,0.819,0,4
"2518",3,2,58,1,50,0,3.313,0,2
"2519",3,2,59,1,22,0,0.375,1,1
"2520",3,2,60,1,38,0,0.439,0,1
"2521",5,2,1,1,77,1,1.993,0,2
"2522",5,2,2,1,72,1,1.981,0,3
"2523",5,2,3,1,87,1,1.409,1,5
"2524",5,2,4,1,66,1,1.471,0,6
"2525",5,2,5,1,48,0,1.263,0,4
"2526",5,2,6,1,68,1,2.419,1,2
"2527",5,2,7,1,40,0,1.103,0,3
"2528",5,2,8,1,25,0,1.725,1,5
"2529",5,2,9,1,69,1,1.441,0,2
"2530",5,2,10,1,18,0,1.578,1,3
"2531",5,2,11,1,54,0,1.142,1,4
"2532",5,2,12,1,85,1,1.02,0,2
"2533",5,2,13,1,45,0,2.837,1,3
"2534",5,2,14,1,64,1,1.751,1,3
"2535",5,2,15,1,57,0,1.351,1,3
"2536",5,2,16,1,73,1,1.781,0,1
"2537",5,2,17,1,76,1,1.039,1,4
"2538",5,2,18,1,12,0,0.706,0,1
"2539",5,2,19,1,75,1,0.487,1,3
"2540",5,2,20,1,83,1,4.466,0,2
"2541",5,2,21,1,71,1,1.496,1,4
"2542",5,2,22,1,20,0,1.774,1,5
"2543",5,2,23,1,82,1,2.448,1,3
"2544",5,2,24,1,74,1,1.621,0,2
"2545",5,2,25,1,6,0,1.511,1,3
"2546",5,2,26,1,10,0,0.625,1,3
"2547",5,2,27,1,41,0,1.049,1,3
"2548",5,2,28,1,21,0,0.44,1,5
"2549",5,2,29,1,81,1,1.111,0,2
"2550",5,2,30,1,2,0,2.379,0,2
"2551",5,2,31,1,70,1,1.735,0,2
"2552",5,2,32,1,51,0,1.358,0,1
"2553",5,2,33,1,42,0,0.675,0,4
"2554",5,2,34,1,13,0,2.186,1,2
"2555",5,2,35,1,28,0,1.043,1,3
"2556",5,2,36,1,16,0,1.029,0,2
"2557",5,2,37,1,78,1,1.011,0,2
"2558",5,2,38,1,89,1,1.345,0,2
"2559",5,2,39,1,1,0,1.124,0,1
"2560",5,2,40,1,79,1,1.095,1,2
"2561",5,2,41,1,24,0,1.253,0,3
"2562",5,2,42,1,29,0,0.868,0,4
"2563",5,2,43,1,65,1,0.201,0,5
"2564",5,2,44,1,44,0,0.578,1,4
"2565",5,2,45,1,60,0,0.919,1,3
"2566",5,2,46,1,67,1,1.164,1,3
"2567",5,2,47,1,90,1,2.278,1,4
"2568",5,2,48,1,62,1,0.737,0,2
"2569",5,2,49,1,53,0,0.827,1,3
"2570",5,2,50,1,84,1,0.336,1,5
"2571",5,2,51,1,36,0,1.437,0,2
"2572",5,2,52,1,43,0,1.004,0,2
"2573",5,2,53,1,31,0,1.947,0,2
"2574",5,2,54,1,80,1,1.152,0,3
"2575",5,2,55,1,86,1,0.959,1,6
"2576",5,2,56,1,63,1,1.066,0,4
"2577",5,2,57,1,3,0,0.816,1,4
"2578",5,2,58,1,35,0,0.94,1,4
"2579",5,2,59,1,61,1,1.148,1,2
"2580",5,2,60,1,88,1,2.556,1,3
"2581",9,2,1,1,74,1,3.573,1,1
"2582",9,2,2,1,87,1,2.139,1,3
"2583",9,2,3,1,82,1,2.058,1,5
"2584",9,2,4,1,5,0,2.146,1,3
"2585",9,2,5,1,63,1,1.97,0,1
"2586",9,2,6,1,50,0,1.487,0,1
"2587",9,2,7,1,67,1,1.009,1,5
"2588",9,2,8,1,30,0,1.632,1,4
"2589",9,2,9,1,14,0,1.206,0,1
"2590",9,2,10,1,64,1,1.046,1,1
"2591",9,2,11,1,77,1,0.442,1,1
"2592",9,2,12,1,61,1,1.067,1,1
"2593",9,2,13,1,81,1,0.674,1,1
"2594",9,2,14,1,4,0,2.968,1,4
"2595",9,2,15,1,19,0,1.314,1,1
"2596",9,2,16,1,71,1,1.5,1,1
"2597",9,2,17,1,58,0,2.185,1,1
"2598",9,2,18,1,37,0,2.969,0,1
"2599",9,2,19,1,27,0,2.446,0,1
"2600",9,2,20,1,69,1,0.379,1,1
"2601",9,2,21,1,8,0,0.502,1,1
"2602",9,2,22,1,88,1,4.141,1,6
"2603",9,2,23,1,80,1,1.179,1,6
"2604",9,2,24,1,15,0,0.501,0,1
"2605",9,2,25,1,47,0,6.887,1,1
"2606",9,2,26,1,39,0,1.077,1,1
"2607",9,2,27,1,7,0,2.214,1,1
"2608",9,2,28,1,62,1,0.508,0,1
"2609",9,2,29,1,26,0,0.498,1,1
"2610",9,2,30,1,84,1,0.882,1,1
"2611",9,2,31,1,72,1,0.748,0,1
"2612",9,2,32,1,86,1,0.92,0,1
"2613",9,2,33,1,73,1,1.249,1,6
"2614",9,2,34,1,76,1,0.434,1,6
"2615",9,2,35,1,55,0,2.142,1,1
"2616",9,2,36,1,79,1,1.642,1,6
"2617",9,2,37,1,11,0,2.81,0,1
"2618",9,2,38,1,49,0,1.854,1,6
"2619",9,2,39,1,78,1,0.617,1,6
"2620",9,2,40,1,22,0,0.54,1,1
"2621",9,2,41,1,56,0,1.765,0,1
"2622",9,2,42,1,9,0,1.6,1,1
"2623",9,2,43,1,89,1,0.574,1,1
"2624",9,2,44,1,85,1,0.6,1,6
"2625",9,2,45,1,32,0,0.661,0,1
"2626",9,2,46,1,38,0,0.417,0,1
"2627",9,2,47,1,52,0,0.712,1,1
"2628",9,2,48,1,66,1,0.386,1,6
"2629",9,2,49,1,33,0,1.491,0,1
"2630",9,2,50,1,83,1,0.435,1,6
"2631",9,2,51,1,65,1,1.245,1,3
"2632",9,2,52,1,34,0,0.709,1,1
"2633",9,2,53,1,23,0,0.492,1,1
"2634",9,2,54,1,75,1,0.474,0,1
"2635",9,2,55,1,59,0,0.782,0,1
"2636",9,2,56,1,90,1,1.212,0,1
"2637",9,2,57,1,17,0,0.372,1,1
"2638",9,2,58,1,68,1,0.517,0,1
"2639",9,2,59,1,46,0,0.439,1,1
"2640",9,2,60,1,70,1,0.459,1,6
"2641",11,2,1,1,58,1,2.112,1,2
"2642",11,2,2,1,49,1,5.062,1,4
"2643",11,2,3,1,11,1,1.568,1,5
"2644",11,2,4,1,68,0,6.223,0,4
"2645",11,2,5,1,62,0,4.216,0,5
"2646",11,2,6,1,66,0,2.87,0,6
"2647",11,2,7,1,37,1,1.474,1,5
"2648",11,2,8,1,34,1,3.164,1,5
"2649",11,2,9,1,65,0,1.878,1,4
"2650",11,2,10,1,55,1,2.596,1,6
"2651",11,2,11,1,47,1,18.056,1,1
"2652",11,2,12,1,71,0,5.28,0,4
"2653",11,2,13,1,86,0,4.063,0,4
"2654",11,2,14,1,76,0,2.639,1,5
"2655",11,2,15,1,8,1,2.356,1,5
"2656",11,2,16,1,5,1,4.078,1,5
"2657",11,2,17,1,75,0,1.6,0,6
"2658",11,2,18,1,14,1,3.853,0,5
"2659",11,2,19,1,79,0,4.658,1,4
"2660",11,2,20,1,23,1,1.295,0,2
"2661",11,2,21,1,72,0,1.345,0,6
"2662",11,2,22,1,27,1,1.589,0,4
"2663",11,2,23,1,83,0,1.56,1,4
"2664",11,2,24,1,67,0,2.616,1,5
"2665",11,2,25,1,56,1,5.022,1,4
"2666",11,2,26,1,33,1,0.868,1,5
"2667",11,2,27,1,73,0,1.788,1,3
"2668",11,2,28,1,81,0,3.987,0,1
"2669",11,2,29,1,7,1,3.139,1,4
"2670",11,2,30,1,69,0,3.183,0,4
"2671",11,2,31,1,84,0,1.562,1,2
"2672",11,2,32,1,89,0,1.407,1,5
"2673",11,2,33,1,87,0,0.98,1,5
"2674",11,2,34,1,61,0,5.491,0,3
"2675",11,2,35,1,46,1,1.823,0,5
"2676",11,2,36,1,15,1,3.062,1,1
"2677",11,2,37,1,63,0,1.89,1,1
"2678",11,2,38,1,52,1,4.252,1,5
"2679",11,2,39,1,22,1,2.234,0,4
"2680",11,2,40,1,82,0,7.121,1,3
"2681",11,2,41,1,30,1,3.328,0,5
"2682",11,2,42,1,26,1,4.218,0,4
"2683",11,2,43,1,39,1,3.615,0,4
"2684",11,2,44,1,50,1,2.421,0,4
"2685",11,2,45,1,77,0,4.388,0,3
"2686",11,2,46,1,32,1,1.764,1,4
"2687",11,2,47,1,64,0,1.548,1,5
"2688",11,2,48,1,70,0,3.937,0,4
"2689",11,2,49,1,59,1,1.102,1,4
"2690",11,2,50,1,38,1,3.354,0,2
"2691",11,2,51,1,74,0,4.651,0,2
"2692",11,2,52,1,4,1,4.773,0,4
"2693",11,2,53,1,85,0,4.371,1,4
"2694",11,2,54,1,9,1,5.073,1,4
"2695",11,2,55,1,80,0,5.962,0,4
"2696",11,2,56,1,88,0,5.246,1,4
"2697",11,2,57,1,78,0,1.902,1,1
"2698",11,2,58,1,19,1,2.478,1,1
"2699",11,2,59,1,17,1,1.462,1,3
"2700",11,2,60,1,90,0,7.934,1,1
"2701",13,2,1,1,41,0,3.773,0,2
"2702",13,2,2,1,57,0,0.792,0,3
"2703",13,2,3,1,11,1,1.242,0,2
"2704",13,2,4,1,25,0,2.974,1,3
"2705",13,2,5,1,15,1,1.894,1,4
"2706",13,2,6,1,46,1,1.954,0,2
"2707",13,2,7,1,55,1,1.514,1,4
"2708",13,2,8,1,44,0,1.957,1,4
"2709",13,2,9,1,36,0,0.99,0,1
"2710",13,2,10,1,7,1,2.741,1,3
"2711",13,2,11,1,13,0,4.687,1,3
"2712",13,2,12,1,49,1,1.206,1,3
"2713",13,2,13,1,58,1,0.805,1,4
"2714",13,2,14,1,19,1,2.543,1,2
"2715",13,2,15,1,27,1,1.589,0,1
"2716",13,2,16,1,39,1,1.228,0,3
"2717",13,2,17,1,9,1,1.205,1,5
"2718",13,2,18,1,37,1,0.915,1,1
"2719",13,2,19,1,18,0,0.876,0,4
"2720",13,2,20,1,52,1,5.931,0,1
"2721",13,2,21,1,34,1,1.213,0,2
"2722",13,2,22,1,3,0,0.872,0,3
"2723",13,2,23,1,2,0,0.922,0,5
"2724",13,2,24,1,51,0,1.35,0,1
"2725",13,2,25,1,17,1,0.85,1,3
"2726",13,2,26,1,30,1,1.93,0,2
"2727",13,2,27,1,21,0,0.913,0,4
"2728",13,2,28,1,50,1,0.882,0,3
"2729",13,2,29,1,60,0,0.857,1,2
"2730",13,2,30,1,53,0,1.296,0,1
"2731",13,2,31,1,10,0,0.689,0,6
"2732",13,2,32,1,8,1,1.652,1,2
"2733",13,2,33,1,20,0,1.161,0,1
"2734",13,2,34,1,43,0,1.997,1,1
"2735",13,2,35,1,45,0,0.869,1,6
"2736",13,2,36,1,24,0,2.831,1,2
"2737",13,2,37,1,12,0,0.684,1,6
"2738",13,2,38,1,35,0,0.775,1,4
"2739",13,2,39,1,23,1,2.701,0,3
"2740",13,2,40,1,29,0,0.84,0,1
"2741",13,2,41,1,5,1,2.189,1,2
"2742",13,2,42,1,47,1,1.851,1,2
"2743",13,2,43,1,59,1,0.966,0,1
"2744",13,2,44,1,1,0,1.294,0,3
"2745",13,2,45,1,14,1,1.164,1,2
"2746",13,2,46,1,22,1,0.864,1,3
"2747",13,2,47,1,42,0,0.805,1,3
"2748",13,2,48,1,32,1,0.719,0,4
"2749",13,2,49,1,48,0,1.888,1,2
"2750",13,2,50,1,56,1,0.719,1,4
"2751",13,2,51,1,26,1,0.791,0,3
"2752",13,2,52,1,54,0,0.888,1,3
"2753",13,2,53,1,40,0,2.778,1,1
"2754",13,2,54,1,28,0,0.835,0,1
"2755",13,2,55,1,6,0,1.15,0,1
"2756",13,2,56,1,31,0,1.9,1,1
"2757",13,2,57,1,4,1,0.885,1,6
"2758",13,2,58,1,38,1,1.246,1,4
"2759",13,2,59,1,33,1,2.894,1,3
"2760",13,2,60,1,16,0,0.794,0,1
"2761",15,2,1,1,20,1,1.2,1,4
"2762",15,2,2,1,25,1,1.868,0,3
"2763",15,2,3,1,11,0,5.17,1,4
"2764",15,2,4,1,35,1,1.409,1,5
"2765",15,2,5,1,10,1,2.158,1,2
"2766",15,2,6,1,52,0,4.655,0,2
"2767",15,2,7,1,32,0,1.645,0,4
"2768",15,2,8,1,44,1,8.827,1,2
"2769",15,2,9,1,27,0,2.393,1,1
"2770",15,2,10,1,46,0,2.63,0,2
"2771",15,2,11,1,39,0,2.212,1,1
"2772",15,2,12,1,8,0,2.2,1,1
"2773",15,2,13,1,21,1,1.517,0,4
"2774",15,2,14,1,57,1,2.884,1,1
"2775",15,2,15,1,7,0,1.149,1,1
"2776",15,2,16,1,30,0,1.258,0,4
"2777",15,2,17,1,2,1,4.561,0,1
"2778",15,2,18,1,5,0,1.592,0,5
"2779",15,2,19,1,28,1,1.456,1,3
"2780",15,2,20,1,4,0,1.82,1,3
"2781",15,2,21,1,3,1,1.282,1,2
"2782",15,2,22,1,43,1,0.833,1,1
"2783",15,2,23,1,12,1,1.501,1,5
"2784",15,2,24,1,59,0,1.418,0,3
"2785",15,2,25,1,34,0,3.723,0,1
"2786",15,2,26,1,54,1,1.224,1,4
"2787",15,2,27,1,51,1,1.193,1,1
"2788",15,2,28,1,55,0,1.212,1,2
"2789",15,2,29,1,14,0,1.983,0,1
"2790",15,2,30,1,47,0,2.324,1,1
"2791",15,2,31,1,1,1,16.533,0,3
"2792",15,2,32,1,13,1,1.273,1,2
"2793",15,2,33,1,40,1,1.384,1,2
"2794",15,2,34,1,17,0,5.12,1,2
"2795",15,2,35,1,9,0,2.711,1,4
"2796",15,2,36,1,29,1,0.918,1,1
"2797",15,2,37,1,41,1,2.313,0,3
"2798",15,2,38,1,19,0,1.243,1,2
"2799",15,2,39,1,15,0,1.35,1,3
"2800",15,2,40,1,38,0,3.564,0,2
"2801",15,2,41,1,37,0,2.044,0,2
"2802",15,2,42,1,50,0,0.918,1,4
"2803",15,2,43,1,24,1,2.629,0,2
"2804",15,2,44,1,33,0,8.277,1,1
"2805",15,2,45,1,36,1,1.068,1,1
"2806",15,2,46,1,22,0,0.951,1,1
"2807",15,2,47,1,18,1,0.883,0,3
"2808",15,2,48,1,56,0,4.141,1,2
"2809",15,2,49,1,53,1,0.976,1,2
"2810",15,2,50,1,16,1,2.404,0,1
"2811",15,2,51,1,58,0,2.936,0,2
"2812",15,2,52,1,48,1,3.316,0,2
"2813",15,2,53,1,23,0,1.733,1,1
"2814",15,2,54,1,26,0,1.158,0,2
"2815",15,2,55,1,31,1,0.942,1,1
"2816",15,2,56,1,42,1,1.183,0,2
"2817",15,2,57,1,6,1,9.942,0,2
"2818",15,2,58,1,45,1,1.181,0,6
"2819",15,2,59,1,60,1,1.485,1,2
"2820",15,2,60,1,49,0,1.487,1,1
"2821",17,2,1,1,13,0,0.978,1,5
"2822",17,2,2,1,94,1,0.726,1,3
"2823",17,2,3,1,98,1,0.495,1,2
"2824",17,2,4,1,113,1,1.053,1,1
"2825",17,2,5,1,92,1,0.442,1,1
"2826",17,2,6,1,96,1,2.229,0,2
"2827",17,2,7,1,97,1,1.972,1,1
"2828",17,2,8,1,111,1,3.898,0,1
"2829",17,2,9,1,21,0,1.409,1,1
"2830",17,2,10,1,116,1,0.885,1,3
"2831",17,2,11,1,99,1,0.335,1,4
"2832",17,2,12,1,20,0,1.055,0,1
"2833",17,2,13,1,117,1,0.376,0,6
"2834",17,2,14,1,12,0,0.674,1,2
"2835",17,2,15,1,93,1,0.451,1,1
"2836",17,2,16,1,54,0,0.508,1,2
"2837",17,2,17,1,107,1,0.929,0,4
"2838",17,2,18,1,119,1,1.647,0,5
"2839",17,2,19,1,10,0,0.953,0,3
"2840",17,2,20,1,43,0,1.292,0,2
"2841",17,2,21,1,41,0,0.419,0,1
"2842",17,2,22,1,112,1,0.519,1,2
"2843",17,2,23,1,1,0,2.313,1,1
"2844",17,2,24,1,105,1,1.844,1,1
"2845",17,2,25,1,91,1,1.169,1,2
"2846",17,2,26,1,48,0,1.403,1,1
"2847",17,2,27,1,102,1,0.323,0,6
"2848",17,2,28,1,44,0,1.818,1,3
"2849",17,2,29,1,6,0,6.458,1,1
"2850",17,2,30,1,25,0,2.931,0,6
"2851",17,2,31,1,3,0,0.363,0,1
"2852",17,2,32,1,103,1,1.132,1,2
"2853",17,2,33,1,35,0,1.576,1,4
"2854",17,2,34,1,24,0,0.551,0,2
"2855",17,2,35,1,45,0,0.593,0,6
"2856",17,2,36,1,57,0,1.921,0,3
"2857",17,2,37,1,28,0,0.282,1,3
"2858",17,2,38,1,109,1,0.662,1,3
"2859",17,2,39,1,104,1,0.317,1,4
"2860",17,2,40,1,106,1,1.385,1,1
"2861",17,2,41,1,115,1,0.342,1,1
"2862",17,2,42,1,51,0,0.97,1,1
"2863",17,2,43,1,95,1,1.196,1,2
"2864",17,2,44,1,101,1,1.323,0,4
"2865",17,2,45,1,110,1,2.364,0,1
"2866",17,2,46,1,108,1,1.037,1,2
"2867",17,2,47,1,2,0,2.222,1,1
"2868",17,2,48,1,60,0,1.044,0,1
"2869",17,2,49,1,118,1,0.681,1,1
"2870",17,2,50,1,36,0,0.575,0,1
"2871",17,2,51,1,16,0,1.685,0,1
"2872",17,2,52,1,42,0,0.499,0,3
"2873",17,2,53,1,100,1,0.594,0,3
"2874",17,2,54,1,18,0,1.955,0,3
"2875",17,2,55,1,29,0,0.944,0,1
"2876",17,2,56,1,114,1,0.458,1,2
"2877",17,2,57,1,120,1,1.033,1,1
"2878",17,2,58,1,40,0,3.484,0,1
"2879",17,2,59,1,53,0,1.614,1,3
"2880",17,2,60,1,31,0,0.851,0,4
"2881",19,2,1,1,44,1,8.375,0,2
"2882",19,2,2,1,103,0,1.093,1,2
"2883",19,2,3,1,24,1,2.005,1,3
"2884",19,2,4,1,40,1,2.293,0,3
"2885",19,2,5,1,92,0,10.394,0,5
"2886",19,2,6,1,51,1,1.266,1,1
"2887",19,2,7,1,98,0,3.369,0,4
"2888",19,2,8,1,60,1,2.144,1,3
"2889",19,2,9,1,116,0,3.435,0,5
"2890",19,2,10,1,12,1,2.928,0,2
"2891",19,2,11,1,42,1,4.725,0,2
"2892",19,2,12,1,102,0,2.09,1,1
"2893",19,2,13,1,21,1,1.309,1,5
"2894",19,2,14,1,115,0,4.107,0,2
"2895",19,2,15,1,29,1,6.245,1,1
"2896",19,2,16,1,28,1,0.932,1,5
"2897",19,2,17,1,105,0,6.658,1,4
"2898",19,2,18,1,109,0,20.295,1,5
"2899",19,2,19,1,120,0,0.906,1,1
"2900",19,2,20,1,45,1,1.832,1,3
"2901",19,2,21,1,2,1,2.142,1,5
"2902",19,2,22,1,99,0,3.953,0,6
"2903",19,2,23,1,18,1,0.994,1,5
"2904",19,2,24,1,104,0,2.898,0,6
"2905",19,2,25,1,110,0,1.712,1,2
"2906",19,2,26,1,57,1,2.249,1,4
"2907",19,2,27,1,41,1,6.861,0,3
"2908",19,2,28,1,97,0,0.99,0,6
"2909",19,2,29,1,6,1,1.101,0,4
"2910",19,2,30,1,94,0,4.474,0,4
"2911",19,2,31,1,100,0,2.841,1,4
"2912",19,2,32,1,93,0,10.886,1,1
"2913",19,2,33,1,10,1,0.927,1,5
"2914",19,2,34,1,20,1,1.847,0,3
"2915",19,2,35,1,13,1,2.787,1,2
"2916",19,2,36,1,1,1,3.254,1,3
"2917",19,2,37,1,96,0,2.297,0,2
"2918",19,2,38,1,108,0,9.323,0,3
"2919",19,2,39,1,54,1,0.857,1,4
"2920",19,2,40,1,25,1,2.415,1,1
"2921",19,2,41,1,95,0,2.336,1,2
"2922",19,2,42,1,31,1,3.891,1,4
"2923",19,2,43,1,118,0,7.219,0,4
"2924",19,2,44,1,119,0,3.494,0,4
"2925",19,2,45,1,53,1,0.393,1,4
"2926",19,2,46,1,111,0,2.568,0,4
"2927",19,2,47,1,114,0,1.026,1,3
"2928",19,2,48,1,16,1,2.319,0,4
"2929",19,2,49,1,43,1,1.213,1,5
"2930",19,2,50,1,3,1,0.718,1,3
"2931",19,2,51,1,107,0,4.491,0,4
"2932",19,2,52,1,35,1,0.49,1,6
"2933",19,2,53,1,106,0,5.042,1,2
"2934",19,2,54,1,112,0,28.262,0,4
"2935",19,2,55,1,117,0,2.557,0,2
"2936",19,2,56,1,48,1,1.572,0,4
"2937",19,2,57,1,91,0,1.23,1,2
"2938",19,2,58,1,101,0,0.92,0,4
"2939",19,2,59,1,36,1,2.168,0,4
"2940",19,2,60,1,113,0,0.733,1,1
"2941",21,2,1,1,14,0,2.116,0,6
"2942",21,2,2,1,50,0,3.298,0,5
"2943",21,2,3,1,120,1,3.293,1,5
"2944",21,2,4,1,106,1,4.297,1,5
"2945",21,2,5,1,119,1,2.256,1,4
"2946",21,2,6,1,107,1,1.735,0,5
"2947",21,2,7,1,32,0,2.508,1,1
"2948",21,2,8,1,94,1,1.227,1,6
"2949",21,2,9,1,27,0,1.361,0,4
"2950",21,2,10,1,93,1,2.089,0,5
"2951",21,2,11,1,9,0,2.807,0,6
"2952",21,2,12,1,7,0,2.732,1,3
"2953",21,2,13,1,118,1,1.352,0,6
"2954",21,2,14,1,98,1,0.572,1,3
"2955",21,2,15,1,23,0,0.679,0,6
"2956",21,2,16,1,103,1,2.992,1,1
"2957",21,2,17,1,11,0,3.369,1,4
"2958",21,2,18,1,47,0,3.857,1,1
"2959",21,2,19,1,115,1,0.751,1,4
"2960",21,2,20,1,99,1,1.788,1,2
"2961",21,2,21,1,113,1,0.403,1,5
"2962",21,2,22,1,39,0,5.442,0,1
"2963",21,2,23,1,15,0,2.19,1,1
"2964",21,2,24,1,96,1,0.87,1,1
"2965",21,2,25,1,95,1,0.499,1,6
"2966",21,2,26,1,100,1,0.712,1,6
"2967",21,2,27,1,101,1,6.705,1,4
"2968",21,2,28,1,46,0,0.971,1,2
"2969",21,2,29,1,104,1,3.188,1,5
"2970",21,2,30,1,17,0,2.663,1,6
"2971",21,2,31,1,56,0,1.051,1,6
"2972",21,2,32,1,55,0,0.492,1,6
"2973",21,2,33,1,109,1,0.586,1,6
"2974",21,2,34,1,19,0,0.817,1,2
"2975",21,2,35,1,22,0,1.588,0,1
"2976",21,2,36,1,59,0,1.429,1,1
"2977",21,2,37,1,108,1,0.508,1,6
"2978",21,2,38,1,4,0,0.713,1,6
"2979",21,2,39,1,5,0,2.261,1,1
"2980",21,2,40,1,110,1,0.773,0,1
"2981",21,2,41,1,114,1,0.407,1,6
"2982",21,2,42,1,112,1,0.562,1,6
"2983",21,2,43,1,49,0,4.198,1,1
"2984",21,2,44,1,91,1,8.558,0,1
"2985",21,2,45,1,92,1,1.105,1,1
"2986",21,2,46,1,105,1,7.588,0,2
"2987",21,2,47,1,37,0,6.805,1,6
"2988",21,2,48,1,111,1,3.58,1,1
"2989",21,2,49,1,8,0,0.716,1,1
"2990",21,2,50,1,26,0,3.097,0,4
"2991",21,2,51,1,97,1,2.845,1,2
"2992",21,2,52,1,58,0,4.615,0,6
"2993",21,2,53,1,33,0,2.97,0,1
"2994",21,2,54,1,116,1,3.124,1,1
"2995",21,2,55,1,117,1,0.739,0,6
"2996",21,2,56,1,34,0,6.098,1,1
"2997",21,2,57,1,30,0,1.579,1,3
"2998",21,2,58,1,102,1,1.487,1,1
"2999",21,2,59,1,52,0,4.189,0,6
"3000",21,2,60,1,38,0,1.882,0,4
"3001",23,2,1,1,117,0,1.796,0,1
"3002",23,2,2,1,55,1,1.362,1,2
"3003",23,2,3,1,15,1,1.315,0,1
"3004",23,2,4,1,94,0,1.148,0,1
"3005",23,2,5,1,100,0,2.413,0,3
"3006",23,2,6,1,11,1,2.316,1,4
"3007",23,2,7,1,33,1,3.459,1,1
"3008",23,2,8,1,109,0,9.206,1,3
"3009",23,2,9,1,106,0,1.721,1,2
"3010",23,2,10,1,17,1,4.168,1,3
"3011",23,2,11,1,46,1,6.36,0,1
"3012",23,2,12,1,7,1,3.368,1,1
"3013",23,2,13,1,108,0,3.928,0,1
"3014",23,2,14,1,105,0,9.231,0,1
"3015",23,2,15,1,95,0,0.976,0,1
"3016",23,2,16,1,113,0,1.088,1,1
"3017",23,2,17,1,102,0,1.059,0,1
"3018",23,2,18,1,91,0,3.401,1,1
"3019",23,2,19,1,22,1,1.279,1,1
"3020",23,2,20,1,114,0,4.91,0,1
"3021",23,2,21,1,50,1,2.141,0,1
"3022",23,2,22,1,104,0,1.456,1,1
"3023",23,2,23,1,26,1,4.825,1,3
"3024",23,2,24,1,112,0,2.326,1,2
"3025",23,2,25,1,27,1,3.256,0,1
"3026",23,2,26,1,39,1,9.819,1,1
"3027",23,2,27,1,120,0,5.81,1,1
"3028",23,2,28,1,37,1,1.671,0,1
"3029",23,2,29,1,115,0,1.538,1,1
"3030",23,2,30,1,99,0,10.249,0,1
"3031",23,2,31,1,98,0,3.561,0,1
"3032",23,2,32,1,14,1,1.545,1,1
"3033",23,2,33,1,97,0,3.687,1,3
"3034",23,2,34,1,56,1,6.724,0,1
"3035",23,2,35,1,30,1,4.633,0,1
"3036",23,2,36,1,32,1,2.734,0,1
"3037",23,2,37,1,103,0,2.747,0,1
"3038",23,2,38,1,5,1,0.855,0,1
"3039",23,2,39,1,101,0,1.364,0,1
"3040",23,2,40,1,111,0,3.247,0,1
"3041",23,2,41,1,58,1,3.142,0,1
"3042",23,2,42,1,19,1,0.494,1,1
"3043",23,2,43,1,118,0,7.325,0,1
"3044",23,2,44,1,93,0,3.382,1,1
"3045",23,2,45,1,59,1,4.345,0,1
"3046",23,2,46,1,107,0,4.169,1,1
"3047",23,2,47,1,8,1,0.86,1,2
"3048",23,2,48,1,119,0,0.951,1,3
"3049",23,2,49,1,34,1,1.794,1,1
"3050",23,2,50,1,52,1,16.099,0,2
"3051",23,2,51,1,116,0,2.976,1,1
"3052",23,2,52,1,96,0,6.005,0,1
"3053",23,2,53,1,110,0,2.984,0,1
"3054",23,2,54,1,92,0,1.268,1,2
"3055",23,2,55,1,47,1,4.231,1,1
"3056",23,2,56,1,9,1,3.709,1,2
"3057",23,2,57,1,23,1,3.264,1,2
"3058",23,2,58,1,49,1,1.204,1,4
"3059",23,2,59,1,4,1,4.923,1,3
"3060",23,2,60,1,38,1,1.059,0,3
"3061",25,2,1,1,36,0,2.258,0,2
"3062",25,2,2,1,1,0,1.314,1,3
"3063",25,2,3,1,29,0,2.616,0,3
"3064",25,2,4,1,76,1,0.926,1,3
"3065",25,2,5,1,13,0,0.736,1,1
"3066",25,2,6,1,43,0,0.731,1,1
"3067",25,2,7,1,20,0,0.564,1,3
"3068",25,2,8,1,79,1,3.899,0,1
"3069",25,2,9,1,81,1,2.217,1,4
"3070",25,2,10,1,42,0,0.708,1,4
"3071",25,2,11,1,85,1,0.992,1,4
"3072",25,2,12,1,61,1,0.332,1,3
"3073",25,2,13,1,72,1,0.392,1,2
"3074",25,2,14,1,60,0,1.358,1,1
"3075",25,2,15,1,6,0,12.069,1,2
"3076",25,2,16,1,44,0,0.8,1,2
"3077",25,2,17,1,16,0,1.425,0,3
"3078",25,2,18,1,48,0,1.106,1,5
"3079",25,2,19,1,54,0,3.978,1,3
"3080",25,2,20,1,67,1,0.79,1,6
"3081",25,2,21,1,69,1,0.38,1,4
"3082",25,2,22,1,80,1,8.402,1,2
"3083",25,2,23,1,87,1,0.375,1,6
"3084",25,2,24,1,25,0,3.569,0,2
"3085",25,2,25,1,57,0,1.304,1,4
"3086",25,2,26,1,84,1,0.562,1,1
"3087",25,2,27,1,21,0,0.354,1,2
"3088",25,2,28,1,68,1,0.74,1,5
"3089",25,2,29,1,90,1,0.668,1,6
"3090",25,2,30,1,51,0,0.573,1,4
"3091",25,2,31,1,83,1,0.383,1,4
"3092",25,2,32,1,10,0,0.344,1,6
"3093",25,2,33,1,31,0,0.548,1,1
"3094",25,2,34,1,86,1,0.508,1,6
"3095",25,2,35,1,53,0,0.356,1,1
"3096",25,2,36,1,62,1,2.702,0,2
"3097",25,2,37,1,82,1,0.55,1,5
"3098",25,2,38,1,2,0,2.671,1,1
"3099",25,2,39,1,75,1,0.331,1,2
"3100",25,2,40,1,77,1,0.995,1,4
"3101",25,2,41,1,63,1,0.45,1,3
"3102",25,2,42,1,74,1,0.353,1,5
"3103",25,2,43,1,35,0,0.349,1,4
"3104",25,2,44,1,65,1,0.376,1,6
"3105",25,2,45,1,89,1,0.294,1,6
"3106",25,2,46,1,12,0,0.411,1,4
"3107",25,2,47,1,41,0,0.326,1,2
"3108",25,2,48,1,71,1,1.165,1,4
"3109",25,2,49,1,88,1,1.112,1,3
"3110",25,2,50,1,70,1,0.674,1,2
"3111",25,2,51,1,28,0,1.44,1,1
"3112",25,2,52,1,45,0,1.764,0,5
"3113",25,2,53,1,18,0,0.815,1,5
"3114",25,2,54,1,64,1,1.073,1,4
"3115",25,2,55,1,66,1,0.968,1,6
"3116",25,2,56,1,78,1,0.794,1,2
"3117",25,2,57,1,3,0,0.887,1,1
"3118",25,2,58,1,24,0,1.017,1,1
"3119",25,2,59,1,40,0,1.081,1,3
"3120",25,2,60,1,73,1,1.292,1,5
"3121",27,2,1,1,65,0,3.932,0,3
"3122",27,2,2,1,51,1,7.418,1,2
"3123",27,2,3,1,20,1,4.531,0,2
"3124",27,2,4,1,84,0,1.617,0,3
"3125",27,2,5,1,79,0,9.425,0,2
"3126",27,2,6,1,75,0,2.514,0,3
"3127",27,2,7,1,31,1,2.483,0,3
"3128",27,2,8,1,24,1,2.406,0,2
"3129",27,2,9,1,13,1,6.581,1,1
"3130",27,2,10,1,45,1,3.249,1,2
"3131",27,2,11,1,68,0,10.077,0,2
"3132",27,2,12,1,42,1,7.281,0,2
"3133",27,2,13,1,72,0,1.934,0,2
"3134",27,2,14,1,18,1,1.854,0,3
"3135",27,2,15,1,70,0,3.214,1,1
"3136",27,2,16,1,66,0,4.15,0,4
"3137",27,2,17,1,21,1,3.038,1,2
"3138",27,2,18,1,48,1,4.973,0,2
"3139",27,2,19,1,76,0,4.902,0,2
"3140",27,2,20,1,77,0,12.167,0,1
"3141",27,2,21,1,87,0,19.554,0,2
"3142",27,2,22,1,64,0,4.762,1,1
"3143",27,2,23,1,88,0,4.038,1,2
"3144",27,2,24,1,40,1,1.92,0,3
"3145",27,2,25,1,78,0,1.975,0,2
"3146",27,2,26,1,6,1,1.618,0,4
"3147",27,2,27,1,67,0,5.588,0,2
"3148",27,2,28,1,2,1,1.922,0,3
"3149",27,2,29,1,12,1,3.557,1,1
"3150",27,2,30,1,63,0,4.696,0,1
"3151",27,2,31,1,80,0,1.97,0,3
"3152",27,2,32,1,53,1,4.368,0,2
"3153",27,2,33,1,36,1,1.228,0,2
"3154",27,2,34,1,83,0,1.519,1,2
"3155",27,2,35,1,62,0,8.491,0,2
"3156",27,2,36,1,44,1,1.18,1,3
"3157",27,2,37,1,69,0,7.131,0,2
"3158",27,2,38,1,41,1,3.773,0,3
"3159",27,2,39,1,43,1,1.78,0,2
"3160",27,2,40,1,89,0,6.1,1,1
"3161",27,2,41,1,29,1,5.366,1,2
"3162",27,2,42,1,74,0,1.783,0,1
"3163",27,2,43,1,3,1,0.763,0,2
"3164",27,2,44,1,25,1,2.384,0,2
"3165",27,2,45,1,90,0,2.453,1,2
"3166",27,2,46,1,71,0,2.564,0,2
"3167",27,2,47,1,35,1,1.238,0,3
"3168",27,2,48,1,86,0,1.951,1,2
"3169",27,2,49,1,10,1,3.221,0,2
"3170",27,2,50,1,1,1,4.248,1,2
"3171",27,2,51,1,82,0,8.021,0,2
"3172",27,2,52,1,28,1,3.879,0,2
"3173",27,2,53,1,16,1,1.796,0,2
"3174",27,2,54,1,54,1,5.197,1,3
"3175",27,2,55,1,57,1,4.879,1,1
"3176",27,2,56,1,85,0,1.362,0,3
"3177",27,2,57,1,60,1,3.18,0,2
"3178",27,2,58,1,73,0,3.62,1,1
"3179",27,2,59,1,61,0,5.806,1,2
"3180",27,2,60,1,81,0,9.188,1,1
"3181",31,2,1,1,54,1,1.115,1,6
"3182",31,2,2,1,29,1,0.294,1,6
"3183",31,2,3,1,20,1,1.401,0,4
"3184",31,2,4,1,57,1,0.75,1,3
"3185",31,2,5,1,102,0,2.068,0,6
"3186",31,2,6,1,105,0,2.001,0,2
"3187",31,2,7,1,45,1,0.837,1,6
"3188",31,2,8,1,21,1,1.257,1,6
"3189",31,2,9,1,91,0,2.005,0,3
"3190",31,2,10,1,118,0,1.194,1,5
"3191",31,2,11,1,109,0,2.034,0,6
