"","subject","presentation_identifier","within_identifier","between_identifier","trial","statement_identifier","rt","response","repeated"
"1",1,"warning_0",1,1,NA,1,NA,6,1
"2",1,"warning_0",1,1,NA,2,NA,1,1
"3",1,"warning_0",1,1,NA,3,NA,1,1
"4",1,"warning_0",1,1,NA,4,NA,6,1
"5",1,"warning_0",1,1,NA,5,NA,6,1
"6",1,"warning_0",1,1,NA,6,NA,1,1
"7",1,"warning_0",1,1,NA,7,NA,6,1
"8",1,"warning_0",1,1,NA,8,NA,1,1
"9",1,"warning_0",1,1,NA,9,NA,6,1
"10",1,"warning_0",1,1,NA,10,NA,6,1
"11",1,"warning_0",1,1,NA,11,NA,6,1
"12",1,"warning_0",1,1,NA,12,NA,6,1
"13",1,"warning_0",1,1,NA,13,NA,6,1
"14",1,"warning_0",1,1,NA,14,NA,1,1
"15",1,"warning_0",1,1,NA,15,NA,6,1
"16",1,"warning_0",1,1,NA,16,NA,6,1
"17",1,"warning_0",1,1,NA,17,NA,6,1
"18",1,"warning_0",1,1,NA,18,NA,6,1
"19",1,"warning_0",1,1,NA,19,NA,1,1
"20",1,"warning_0",1,1,NA,20,NA,6,1
"21",1,"warning_0",1,1,NA,21,NA,6,1
"22",1,"warning_0",1,1,NA,22,NA,6,1
"23",1,"warning_0",1,1,NA,23,NA,1,1
"24",1,"warning_0",1,1,NA,24,NA,1,1
"25",1,"warning_0",1,1,NA,25,NA,1,1
"26",1,"warning_0",1,1,NA,26,NA,6,1
"27",1,"warning_0",1,1,NA,27,NA,6,1
"28",1,"warning_0",1,1,NA,28,NA,6,1
"29",1,"warning_0",1,1,NA,29,NA,6,1
"30",1,"warning_0",1,1,NA,30,NA,1,1
"31",1,"warning_0",1,1,NA,31,NA,6,1
"32",1,"warning_0",1,1,NA,32,NA,1,1
"33",1,"warning_0",1,1,NA,33,NA,6,1
"34",1,"warning_0",1,1,NA,34,NA,6,1
"35",1,"warning_0",1,1,NA,35,NA,1,1
"36",1,"warning_0",1,1,NA,36,NA,1,1
"37",1,"warning_0",1,1,NA,37,NA,6,0
"38",1,"warning_0",1,1,NA,38,NA,1,0
"39",1,"warning_0",1,1,NA,39,NA,1,0
"40",1,"warning_0",1,1,NA,40,NA,6,0
"41",1,"warning_0",1,1,NA,41,NA,1,0
"42",1,"warning_0",1,1,NA,42,NA,1,0
"43",1,"warning_0",1,1,NA,43,NA,6,0
"44",1,"warning_0",1,1,NA,44,NA,1,0
"45",1,"warning_0",1,1,NA,45,NA,1,0
"46",1,"warning_0",1,1,NA,46,NA,1,0
"47",1,"warning_0",1,1,NA,47,NA,6,0
"48",1,"warning_0",1,1,NA,48,NA,1,0
"49",1,"warning_0",1,1,NA,49,NA,1,0
"50",1,"warning_0",1,1,NA,50,NA,1,0
"51",1,"warning_0",1,1,NA,51,NA,1,0
"52",1,"warning_0",1,1,NA,52,NA,6,0
"53",1,"warning_0",1,1,NA,53,NA,1,0
"54",1,"warning_0",1,1,NA,54,NA,6,0
"55",1,"warning_0",1,1,NA,55,NA,6,0
"56",1,"warning_0",1,1,NA,56,NA,1,0
"57",1,"warning_0",1,1,NA,57,NA,6,0
"58",1,"warning_0",1,1,NA,58,NA,1,0
"59",1,"warning_0",1,1,NA,59,NA,1,0
"60",1,"warning_0",1,1,NA,60,NA,6,0
"61",1,"warning_0",1,1,NA,61,NA,1,0
"62",1,"warning_0",1,1,NA,62,NA,6,0
"63",1,"warning_0",1,1,NA,63,NA,1,0
"64",1,"warning_0",1,1,NA,64,NA,6,0
"65",1,"warning_0",1,1,NA,65,NA,6,0
"66",1,"warning_0",1,1,NA,66,NA,1,0
"67",1,"warning_0",1,1,NA,67,NA,1,0
"68",1,"warning_0",1,1,NA,68,NA,1,0
"69",1,"warning_0",1,1,NA,69,NA,6,0
"70",1,"warning_0",1,1,NA,70,NA,6,0
"71",1,"warning_0",1,1,NA,71,NA,6,0
"72",1,"warning_0",1,1,NA,72,NA,1,0
"73",2,"warning_0",1,1,NA,1,NA,3,1
"74",2,"warning_0",1,1,NA,2,NA,6,1
"75",2,"warning_0",1,1,NA,3,NA,3,1
"76",2,"warning_0",1,1,NA,4,NA,6,1
"77",2,"warning_0",1,1,NA,5,NA,6,1
"78",2,"warning_0",1,1,NA,6,NA,3,1
"79",2,"warning_0",1,1,NA,7,NA,6,1
"80",2,"warning_0",1,1,NA,8,NA,3,1
"81",2,"warning_0",1,1,NA,9,NA,6,1
"82",2,"warning_0",1,1,NA,10,NA,3,1
"83",2,"warning_0",1,1,NA,11,NA,6,1
"84",2,"warning_0",1,1,NA,12,NA,6,1
"85",2,"warning_0",1,1,NA,13,NA,6,1
"86",2,"warning_0",1,1,NA,14,NA,6,1
"87",2,"warning_0",1,1,NA,15,NA,4,1
"88",2,"warning_0",1,1,NA,16,NA,6,1
"89",2,"warning_0",1,1,NA,17,NA,6,1
"90",2,"warning_0",1,1,NA,18,NA,6,1
"91",2,"warning_0",1,1,NA,19,NA,6,1
"92",2,"warning_0",1,1,NA,20,NA,6,1
"93",2,"warning_0",1,1,NA,21,NA,6,1
"94",2,"warning_0",1,1,NA,22,NA,6,1
"95",2,"warning_0",1,1,NA,23,NA,6,1
"96",2,"warning_0",1,1,NA,24,NA,6,1
"97",2,"warning_0",1,1,NA,25,NA,3,1
"98",2,"warning_0",1,1,NA,26,NA,6,1
"99",2,"warning_0",1,1,NA,27,NA,6,1
"100",2,"warning_0",1,1,NA,28,NA,4,1
"101",2,"warning_0",1,1,NA,29,NA,6,1
"102",2,"warning_0",1,1,NA,30,NA,6,1
"103",2,"warning_0",1,1,NA,31,NA,3,1
"104",2,"warning_0",1,1,NA,32,NA,6,1
"105",2,"warning_0",1,1,NA,33,NA,4,1
"106",2,"warning_0",1,1,NA,34,NA,6,1
"107",2,"warning_0",1,1,NA,35,NA,4,1
"108",2,"warning_0",1,1,NA,36,NA,4,1
"109",2,"warning_0",1,1,NA,37,NA,3,0
"110",2,"warning_0",1,1,NA,38,NA,3,0
"111",2,"warning_0",1,1,NA,39,NA,4,0
"112",2,"warning_0",1,1,NA,40,NA,4,0
"113",2,"warning_0",1,1,NA,41,NA,3,0
"114",2,"warning_0",1,1,NA,42,NA,4,0
"115",2,"warning_0",1,1,NA,43,NA,3,0
"116",2,"warning_0",1,1,NA,44,NA,3,0
"117",2,"warning_0",1,1,NA,45,NA,3,0
"118",2,"warning_0",1,1,NA,46,NA,4,0
"119",2,"warning_0",1,1,NA,47,NA,4,0
"120",2,"warning_0",1,1,NA,48,NA,4,0
"121",2,"warning_0",1,1,NA,49,NA,4,0
"122",2,"warning_0",1,1,NA,50,NA,3,0
"123",2,"warning_0",1,1,NA,51,NA,4,0
"124",2,"warning_0",1,1,NA,52,NA,3,0
"125",2,"warning_0",1,1,NA,53,NA,1,0
"126",2,"warning_0",1,1,NA,54,NA,4,0
"127",2,"warning_0",1,1,NA,55,NA,3,0
"128",2,"warning_0",1,1,NA,56,NA,4,0
"129",2,"warning_0",1,1,NA,57,NA,4,0
"130",2,"warning_0",1,1,NA,58,NA,4,0
"131",2,"warning_0",1,1,NA,59,NA,4,0
"132",2,"warning_0",1,1,NA,60,NA,3,0
"133",2,"warning_0",1,1,NA,61,NA,3,0
"134",2,"warning_0",1,1,NA,62,NA,3,0
"135",2,"warning_0",1,1,NA,63,NA,3,0
"136",2,"warning_0",1,1,NA,64,NA,4,0
"137",2,"warning_0",1,1,NA,65,NA,3,0
"138",2,"warning_0",1,1,NA,66,NA,3,0
"139",2,"warning_0",1,1,NA,67,NA,4,0
"140",2,"warning_0",1,1,NA,68,NA,5,0
"141",2,"warning_0",1,1,NA,69,NA,3,0
"142",2,"warning_0",1,1,NA,70,NA,4,0
"143",2,"warning_0",1,1,NA,71,NA,4,0
"144",2,"warning_0",1,1,NA,72,NA,3,0
"145",3,"warning_0",1,1,NA,1,NA,3,0
"146",3,"warning_0",1,1,NA,2,NA,3,0
"147",3,"warning_0",1,1,NA,3,NA,6,0
"148",3,"warning_0",1,1,NA,4,NA,3,0
"149",3,"warning_0",1,1,NA,5,NA,3,0
"150",3,"warning_0",1,1,NA,6,NA,3,0
"151",3,"warning_0",1,1,NA,7,NA,3,0
"152",3,"warning_0",1,1,NA,8,NA,6,0
"153",3,"warning_0",1,1,NA,9,NA,3,0
"154",3,"warning_0",1,1,NA,10,NA,3,0
"155",3,"warning_0",1,1,NA,11,NA,3,0
"156",3,"warning_0",1,1,NA,12,NA,3,0
"157",3,"warning_0",1,1,NA,13,NA,3,0
"158",3,"warning_0",1,1,NA,14,NA,3,0
"159",3,"warning_0",1,1,NA,15,NA,3,0
"160",3,"warning_0",1,1,NA,16,NA,3,0
"161",3,"warning_0",1,1,NA,17,NA,3,0
"162",3,"warning_0",1,1,NA,18,NA,3,0
"163",3,"warning_0",1,1,NA,19,NA,3,0
"164",3,"warning_0",1,1,NA,20,NA,3,0
"165",3,"warning_0",1,1,NA,21,NA,3,0
"166",3,"warning_0",1,1,NA,22,NA,3,0
"167",3,"warning_0",1,1,NA,23,NA,3,0
"168",3,"warning_0",1,1,NA,24,NA,3,0
"169",3,"warning_0",1,1,NA,25,NA,3,0
"170",3,"warning_0",1,1,NA,26,NA,3,0
"171",3,"warning_0",1,1,NA,27,NA,1,0
"172",3,"warning_0",1,1,NA,28,NA,3,0
"173",3,"warning_0",1,1,NA,29,NA,3,0
"174",3,"warning_0",1,1,NA,30,NA,3,0
"175",3,"warning_0",1,1,NA,31,NA,3,0
"176",3,"warning_0",1,1,NA,32,NA,3,0
"177",3,"warning_0",1,1,NA,33,NA,3,0
"178",3,"warning_0",1,1,NA,34,NA,3,0
"179",3,"warning_0",1,1,NA,35,NA,3,0
"180",3,"warning_0",1,1,NA,36,NA,3,0
"181",3,"warning_0",1,1,NA,37,NA,6,1
"182",3,"warning_0",1,1,NA,38,NA,6,1
"183",3,"warning_0",1,1,NA,39,NA,6,1
"184",3,"warning_0",1,1,NA,40,NA,6,1
"185",3,"warning_0",1,1,NA,41,NA,6,1
"186",3,"warning_0",1,1,NA,42,NA,6,1
"187",3,"warning_0",1,1,NA,43,NA,6,1
"188",3,"warning_0",1,1,NA,44,NA,6,1
"189",3,"warning_0",1,1,NA,45,NA,6,1
"190",3,"warning_0",1,1,NA,46,NA,6,1
"191",3,"warning_0",1,1,NA,47,NA,6,1
"192",3,"warning_0",1,1,NA,48,NA,6,1
"193",3,"warning_0",1,1,NA,49,NA,6,1
"194",3,"warning_0",1,1,NA,50,NA,6,1
"195",3,"warning_0",1,1,NA,51,NA,6,1
"196",3,"warning_0",1,1,NA,52,NA,3,1
"197",3,"warning_0",1,1,NA,53,NA,6,1
"198",3,"warning_0",1,1,NA,54,NA,6,1
"199",3,"warning_0",1,1,NA,55,NA,6,1
"200",3,"warning_0",1,1,NA,56,NA,6,1
"201",3,"warning_0",1,1,NA,57,NA,6,1
"202",3,"warning_0",1,1,NA,58,NA,6,1
"203",3,"warning_0",1,1,NA,59,NA,6,1
"204",3,"warning_0",1,1,NA,60,NA,3,1
"205",3,"warning_0",1,1,NA,61,NA,6,1
"206",3,"warning_0",1,1,NA,62,NA,6,1
"207",3,"warning_0",1,1,NA,63,NA,6,1
"208",3,"warning_0",1,1,NA,64,NA,6,1
"209",3,"warning_0",1,1,NA,65,NA,6,1
"210",3,"warning_0",1,1,NA,66,NA,6,1
"211",3,"warning_0",1,1,NA,67,NA,6,1
"212",3,"warning_0",1,1,NA,68,NA,6,1
"213",3,"warning_0",1,1,NA,69,NA,3,1
"214",3,"warning_0",1,1,NA,70,NA,6,1
"215",3,"warning_0",1,1,NA,71,NA,6,1
"216",3,"warning_0",1,1,NA,72,NA,6,1
"217",4,"warning_0",1,1,NA,1,NA,3,0
"218",4,"warning_0",1,1,NA,2,NA,3,0
"219",4,"warning_0",1,1,NA,3,NA,4,0
"220",4,"warning_0",1,1,NA,4,NA,4,0
"221",4,"warning_0",1,1,NA,5,NA,2,0
"222",4,"warning_0",1,1,NA,6,NA,4,0
"223",4,"warning_0",1,1,NA,7,NA,3,0
"224",4,"warning_0",1,1,NA,8,NA,4,0
"225",4,"warning_0",1,1,NA,9,NA,3,0
"226",4,"warning_0",1,1,NA,10,NA,3,0
"227",4,"warning_0",1,1,NA,11,NA,4,0
"228",4,"warning_0",1,1,NA,12,NA,3,0
"229",4,"warning_0",1,1,NA,13,NA,3,0
"230",4,"warning_0",1,1,NA,14,NA,3,0
"231",4,"warning_0",1,1,NA,15,NA,4,0
"232",4,"warning_0",1,1,NA,16,NA,5,0
"233",4,"warning_0",1,1,NA,17,NA,3,0
"234",4,"warning_0",1,1,NA,18,NA,3,0
"235",4,"warning_0",1,1,NA,19,NA,3,0
"236",4,"warning_0",1,1,NA,20,NA,4,0
"237",4,"warning_0",1,1,NA,21,NA,4,0
"238",4,"warning_0",1,1,NA,22,NA,3,0
"239",4,"warning_0",1,1,NA,23,NA,3,0
"240",4,"warning_0",1,1,NA,24,NA,3,0
"241",4,"warning_0",1,1,NA,25,NA,3,0
"242",4,"warning_0",1,1,NA,26,NA,3,0
"243",4,"warning_0",1,1,NA,27,NA,3,0
"244",4,"warning_0",1,1,NA,28,NA,5,0
"245",4,"warning_0",1,1,NA,29,NA,3,0
"246",4,"warning_0",1,1,NA,30,NA,3,0
"247",4,"warning_0",1,1,NA,31,NA,3,0
"248",4,"warning_0",1,1,NA,32,NA,3,0
"249",4,"warning_0",1,1,NA,33,NA,3,0
"250",4,"warning_0",1,1,NA,34,NA,3,0
"251",4,"warning_0",1,1,NA,35,NA,3,0
"252",4,"warning_0",1,1,NA,36,NA,4,0
"253",4,"warning_0",1,1,NA,37,NA,6,1
"254",4,"warning_0",1,1,NA,38,NA,6,1
"255",4,"warning_0",1,1,NA,39,NA,6,1
"256",4,"warning_0",1,1,NA,40,NA,6,1
"257",4,"warning_0",1,1,NA,41,NA,6,1
"258",4,"warning_0",1,1,NA,42,NA,3,1
"259",4,"warning_0",1,1,NA,43,NA,6,1
"260",4,"warning_0",1,1,NA,44,NA,6,1
"261",4,"warning_0",1,1,NA,45,NA,6,1
"262",4,"warning_0",1,1,NA,46,NA,6,1
"263",4,"warning_0",1,1,NA,47,NA,6,1
"264",4,"warning_0",1,1,NA,48,NA,6,1
"265",4,"warning_0",1,1,NA,49,NA,4,1
"266",4,"warning_0",1,1,NA,50,NA,6,1
"267",4,"warning_0",1,1,NA,51,NA,4,1
"268",4,"warning_0",1,1,NA,52,NA,6,1
"269",4,"warning_0",1,1,NA,53,NA,6,1
"270",4,"warning_0",1,1,NA,54,NA,6,1
"271",4,"warning_0",1,1,NA,55,NA,6,1
"272",4,"warning_0",1,1,NA,56,NA,6,1
"273",4,"warning_0",1,1,NA,57,NA,6,1
"274",4,"warning_0",1,1,NA,58,NA,6,1
"275",4,"warning_0",1,1,NA,59,NA,6,1
"276",4,"warning_0",1,1,NA,60,NA,6,1
"277",4,"warning_0",1,1,NA,61,NA,6,1
"278",4,"warning_0",1,1,NA,62,NA,6,1
"279",4,"warning_0",1,1,NA,63,NA,6,1
"280",4,"warning_0",1,1,NA,64,NA,6,1
"281",4,"warning_0",1,1,NA,65,NA,6,1
"282",4,"warning_0",1,1,NA,66,NA,6,1
"283",4,"warning_0",1,1,NA,67,NA,3,1
"284",4,"warning_0",1,1,NA,68,NA,6,1
"285",4,"warning_0",1,1,NA,69,NA,6,1
"286",4,"warning_0",1,1,NA,70,NA,6,1
"287",4,"warning_0",1,1,NA,71,NA,6,1
"288",4,"warning_0",1,1,NA,72,NA,3,1
"289",5,"warning_0",1,1,NA,1,NA,2,0
"290",5,"warning_0",1,1,NA,2,NA,2,0
"291",5,"warning_0",1,1,NA,3,NA,2,0
"292",5,"warning_0",1,1,NA,4,NA,2,0
"293",5,"warning_0",1,1,NA,5,NA,2,0
"294",5,"warning_0",1,1,NA,6,NA,2,0
"295",5,"warning_0",1,1,NA,7,NA,2,0
"296",5,"warning_0",1,1,NA,8,NA,3,0
"297",5,"warning_0",1,1,NA,9,NA,2,0
"298",5,"warning_0",1,1,NA,10,NA,2,0
"299",5,"warning_0",1,1,NA,11,NA,2,0
"300",5,"warning_0",1,1,NA,12,NA,2,0
"301",5,"warning_0",1,1,NA,13,NA,2,0
"302",5,"warning_0",1,1,NA,14,NA,2,0
"303",5,"warning_0",1,1,NA,15,NA,2,0
"304",5,"warning_0",1,1,NA,16,NA,2,0
"305",5,"warning_0",1,1,NA,17,NA,2,0
"306",5,"warning_0",1,1,NA,18,NA,2,0
"307",5,"warning_0",1,1,NA,19,NA,2,0
"308",5,"warning_0",1,1,NA,20,NA,2,0
"309",5,"warning_0",1,1,NA,21,NA,4,0
"310",5,"warning_0",1,1,NA,22,NA,2,0
"311",5,"warning_0",1,1,NA,23,NA,2,0
"312",5,"warning_0",1,1,NA,24,NA,2,0
"313",5,"warning_0",1,1,NA,25,NA,2,0
"314",5,"warning_0",1,1,NA,26,NA,2,0
"315",5,"warning_0",1,1,NA,27,NA,2,0
"316",5,"warning_0",1,1,NA,28,NA,2,0
"317",5,"warning_0",1,1,NA,29,NA,2,0
"318",5,"warning_0",1,1,NA,30,NA,4,0
"319",5,"warning_0",1,1,NA,31,NA,2,0
"320",5,"warning_0",1,1,NA,32,NA,2,0
"321",5,"warning_0",1,1,NA,33,NA,2,0
"322",5,"warning_0",1,1,NA,34,NA,2,0
"323",5,"warning_0",1,1,NA,35,NA,2,0
"324",5,"warning_0",1,1,NA,36,NA,3,0
"325",5,"warning_0",1,1,NA,37,NA,6,1
"326",5,"warning_0",1,1,NA,38,NA,6,1
"327",5,"warning_0",1,1,NA,39,NA,6,1
"328",5,"warning_0",1,1,NA,40,NA,6,1
"329",5,"warning_0",1,1,NA,41,NA,6,1
"330",5,"warning_0",1,1,NA,42,NA,6,1
"331",5,"warning_0",1,1,NA,43,NA,6,1
"332",5,"warning_0",1,1,NA,44,NA,6,1
"333",5,"warning_0",1,1,NA,45,NA,6,1
"334",5,"warning_0",1,1,NA,46,NA,6,1
"335",5,"warning_0",1,1,NA,47,NA,6,1
"336",5,"warning_0",1,1,NA,48,NA,6,1
"337",5,"warning_0",1,1,NA,49,NA,6,1
"338",5,"warning_0",1,1,NA,50,NA,6,1
"339",5,"warning_0",1,1,NA,51,NA,6,1
"340",5,"warning_0",1,1,NA,52,NA,6,1
"341",5,"warning_0",1,1,NA,53,NA,6,1
"342",5,"warning_0",1,1,NA,54,NA,6,1
"343",5,"warning_0",1,1,NA,55,NA,6,1
"344",5,"warning_0",1,1,NA,56,NA,6,1
"345",5,"warning_0",1,1,NA,57,NA,6,1
"346",5,"warning_0",1,1,NA,58,NA,6,1
"347",5,"warning_0",1,1,NA,59,NA,6,1
"348",5,"warning_0",1,1,NA,60,NA,6,1
"349",5,"warning_0",1,1,NA,61,NA,6,1
"350",5,"warning_0",1,1,NA,62,NA,6,1
"351",5,"warning_0",1,1,NA,63,NA,6,1
"352",5,"warning_0",1,1,NA,64,NA,6,1
"353",5,"warning_0",1,1,NA,65,NA,6,1
"354",5,"warning_0",1,1,NA,66,NA,6,1
"355",5,"warning_0",1,1,NA,67,NA,6,1
"356",5,"warning_0",1,1,NA,68,NA,6,1
"357",5,"warning_0",1,1,NA,69,NA,6,1
"358",5,"warning_0",1,1,NA,70,NA,6,1
"359",5,"warning_0",1,1,NA,71,NA,6,1
"360",5,"warning_0",1,1,NA,72,NA,6,1
"361",6,"warning_0",1,1,NA,1,NA,5,1
"362",6,"warning_0",1,1,NA,2,NA,2,1
"363",6,"warning_0",1,1,NA,3,NA,5,1
"364",6,"warning_0",1,1,NA,4,NA,2,1
"365",6,"warning_0",1,1,NA,5,NA,4,1
"366",6,"warning_0",1,1,NA,6,NA,6,1
"367",6,"warning_0",1,1,NA,7,NA,3,1
"368",6,"warning_0",1,1,NA,8,NA,3,1
"369",6,"warning_0",1,1,NA,9,NA,3,1
"370",6,"warning_0",1,1,NA,10,NA,3,1
"371",6,"warning_0",1,1,NA,11,NA,4,1
"372",6,"warning_0",1,1,NA,12,NA,2,1
"373",6,"warning_0",1,1,NA,13,NA,6,1
"374",6,"warning_0",1,1,NA,14,NA,4,1
"375",6,"warning_0",1,1,NA,15,NA,2,1
"376",6,"warning_0",1,1,NA,16,NA,1,1
"377",6,"warning_0",1,1,NA,17,NA,3,1
"378",6,"warning_0",1,1,NA,18,NA,3,1
"379",6,"warning_0",1,1,NA,19,NA,3,1
"380",6,"warning_0",1,1,NA,20,NA,2,1
"381",6,"warning_0",1,1,NA,21,NA,4,1
"382",6,"warning_0",1,1,NA,22,NA,3,1
"383",6,"warning_0",1,1,NA,23,NA,5,1
"384",6,"warning_0",1,1,NA,24,NA,4,1
"385",6,"warning_0",1,1,NA,25,NA,2,1
"386",6,"warning_0",1,1,NA,26,NA,4,1
"387",6,"warning_0",1,1,NA,27,NA,4,1
"388",6,"warning_0",1,1,NA,28,NA,6,1
"389",6,"warning_0",1,1,NA,29,NA,4,1
"390",6,"warning_0",1,1,NA,30,NA,3,1
"391",6,"warning_0",1,1,NA,31,NA,4,1
"392",6,"warning_0",1,1,NA,32,NA,4,1
"393",6,"warning_0",1,1,NA,33,NA,3,1
"394",6,"warning_0",1,1,NA,34,NA,3,1
"395",6,"warning_0",1,1,NA,35,NA,3,1
"396",6,"warning_0",1,1,NA,36,NA,4,1
"397",6,"warning_0",1,1,NA,37,NA,3,0
"398",6,"warning_0",1,1,NA,38,NA,2,0
"399",6,"warning_0",1,1,NA,39,NA,3,0
"400",6,"warning_0",1,1,NA,40,NA,2,0
"401",6,"warning_0",1,1,NA,41,NA,2,0
"402",6,"warning_0",1,1,NA,42,NA,3,0
"403",6,"warning_0",1,1,NA,43,NA,3,0
"404",6,"warning_0",1,1,NA,44,NA,5,0
"405",6,"warning_0",1,1,NA,45,NA,2,0
"406",6,"warning_0",1,1,NA,46,NA,4,0
"407",6,"warning_0",1,1,NA,47,NA,3,0
"408",6,"warning_0",1,1,NA,48,NA,4,0
"409",6,"warning_0",1,1,NA,49,NA,4,0
"410",6,"warning_0",1,1,NA,50,NA,2,0
"411",6,"warning_0",1,1,NA,51,NA,1,0
"412",6,"warning_0",1,1,NA,52,NA,4,0
"413",6,"warning_0",1,1,NA,53,NA,4,0
"414",6,"warning_0",1,1,NA,54,NA,4,0
"415",6,"warning_0",1,1,NA,55,NA,2,0
"416",6,"warning_0",1,1,NA,56,NA,4,0
"417",6,"warning_0",1,1,NA,57,NA,4,0
"418",6,"warning_0",1,1,NA,58,NA,2,0
"419",6,"warning_0",1,1,NA,59,NA,5,0
"420",6,"warning_0",1,1,NA,60,NA,3,0
"421",6,"warning_0",1,1,NA,61,NA,1,0
"422",6,"warning_0",1,1,NA,62,NA,3,0
"423",6,"warning_0",1,1,NA,63,NA,3,0
"424",6,"warning_0",1,1,NA,64,NA,3,0
"425",6,"warning_0",1,1,NA,65,NA,4,0
"426",6,"warning_0",1,1,NA,66,NA,2,0
"427",6,"warning_0",1,1,NA,67,NA,3,0
"428",6,"warning_0",1,1,NA,68,NA,3,0
"429",6,"warning_0",1,1,NA,69,NA,4,0
"430",6,"warning_0",1,1,NA,70,NA,3,0
"431",6,"warning_0",1,1,NA,71,NA,4,0
"432",6,"warning_0",1,1,NA,72,NA,2,0
"433",7,"warning_0",1,1,NA,1,NA,3,0
"434",7,"warning_0",1,1,NA,2,NA,2,0
"435",7,"warning_0",1,1,NA,3,NA,4,0
"436",7,"warning_0",1,1,NA,4,NA,3,0
"437",7,"warning_0",1,1,NA,5,NA,3,0
"438",7,"warning_0",1,1,NA,6,NA,3,0
"439",7,"warning_0",1,1,NA,7,NA,2,0
"440",7,"warning_0",1,1,NA,8,NA,4,0
"441",7,"warning_0",1,1,NA,9,NA,3,0
"442",7,"warning_0",1,1,NA,10,NA,3,0
"443",7,"warning_0",1,1,NA,11,NA,4,0
"444",7,"warning_0",1,1,NA,12,NA,3,0
"445",7,"warning_0",1,1,NA,13,NA,3,0
"446",7,"warning_0",1,1,NA,14,NA,3,0
"447",7,"warning_0",1,1,NA,15,NA,4,0
"448",7,"warning_0",1,1,NA,16,NA,3,0
"449",7,"warning_0",1,1,NA,17,NA,2,0
"450",7,"warning_0",1,1,NA,18,NA,6,0
"451",7,"warning_0",1,1,NA,19,NA,3,0
"452",7,"warning_0",1,1,NA,20,NA,2,0
"453",7,"warning_0",1,1,NA,21,NA,2,0
"454",7,"warning_0",1,1,NA,22,NA,4,0
"455",7,"warning_0",1,1,NA,23,NA,4,0
"456",7,"warning_0",1,1,NA,24,NA,2,0
"457",7,"warning_0",1,1,NA,25,NA,4,0
"458",7,"warning_0",1,1,NA,26,NA,3,0
"459",7,"warning_0",1,1,NA,27,NA,4,0
"460",7,"warning_0",1,1,NA,28,NA,3,0
"461",7,"warning_0",1,1,NA,29,NA,4,0
"462",7,"warning_0",1,1,NA,30,NA,3,0
"463",7,"warning_0",1,1,NA,31,NA,4,0
"464",7,"warning_0",1,1,NA,32,NA,3,0
"465",7,"warning_0",1,1,NA,33,NA,5,0
"466",7,"warning_0",1,1,NA,34,NA,3,0
"467",7,"warning_0",1,1,NA,35,NA,2,0
"468",7,"warning_0",1,1,NA,36,NA,3,0
"469",7,"warning_0",1,1,NA,37,NA,4,1
"470",7,"warning_0",1,1,NA,38,NA,6,1
"471",7,"warning_0",1,1,NA,39,NA,5,1
"472",7,"warning_0",1,1,NA,40,NA,5,1
"473",7,"warning_0",1,1,NA,41,NA,2,1
"474",7,"warning_0",1,1,NA,42,NA,5,1
"475",7,"warning_0",1,1,NA,43,NA,2,1
"476",7,"warning_0",1,1,NA,44,NA,3,1
"477",7,"warning_0",1,1,NA,45,NA,3,1
"478",7,"warning_0",1,1,NA,46,NA,3,1
"479",7,"warning_0",1,1,NA,47,NA,3,1
"480",7,"warning_0",1,1,NA,48,NA,6,1
"481",7,"warning_0",1,1,NA,49,NA,4,1
"482",7,"warning_0",1,1,NA,50,NA,6,1
"483",7,"warning_0",1,1,NA,51,NA,6,1
"484",7,"warning_0",1,1,NA,52,NA,3,1
"485",7,"warning_0",1,1,NA,53,NA,6,1
"486",7,"warning_0",1,1,NA,54,NA,6,1
"487",7,"warning_0",1,1,NA,55,NA,5,1
"488",7,"warning_0",1,1,NA,56,NA,4,1
"489",7,"warning_0",1,1,NA,57,NA,4,1
"490",7,"warning_0",1,1,NA,58,NA,6,1
"491",7,"warning_0",1,1,NA,59,NA,6,1
"492",7,"warning_0",1,1,NA,60,NA,5,1
"493",7,"warning_0",1,1,NA,61,NA,6,1
"494",7,"warning_0",1,1,NA,62,NA,4,1
"495",7,"warning_0",1,1,NA,63,NA,4,1
"496",7,"warning_0",1,1,NA,64,NA,3,1
"497",7,"warning_0",1,1,NA,65,NA,2,1
"498",7,"warning_0",1,1,NA,66,NA,3,1
"499",7,"warning_0",1,1,NA,67,NA,4,1
"500",7,"warning_0",1,1,NA,68,NA,6,1
"501",7,"warning_0",1,1,NA,69,NA,5,1
"502",7,"warning_0",1,1,NA,70,NA,3,1
"503",7,"warning_0",1,1,NA,71,NA,4,1
"504",7,"warning_0",1,1,NA,72,NA,3,1
"505",8,"warning_0",1,1,NA,1,NA,1,0
"506",8,"warning_0",1,1,NA,2,NA,2,0
"507",8,"warning_0",1,1,NA,3,NA,6,0
"508",8,"warning_0",1,1,NA,4,NA,1,0
"509",8,"warning_0",1,1,NA,5,NA,6,0
"510",8,"warning_0",1,1,NA,6,NA,1,0
"511",8,"warning_0",1,1,NA,7,NA,6,0
"512",8,"warning_0",1,1,NA,8,NA,6,0
"513",8,"warning_0",1,1,NA,9,NA,6,0
"514",8,"warning_0",1,1,NA,10,NA,6,0
"515",8,"warning_0",1,1,NA,11,NA,5,0
"516",8,"warning_0",1,1,NA,12,NA,6,0
"517",8,"warning_0",1,1,NA,13,NA,1,0
"518",8,"warning_0",1,1,NA,14,NA,6,0
"519",8,"warning_0",1,1,NA,15,NA,3,0
"520",8,"warning_0",1,1,NA,16,NA,6,0
"521",8,"warning_0",1,1,NA,17,NA,2,0
"522",8,"warning_0",1,1,NA,18,NA,6,0
"523",8,"warning_0",1,1,NA,19,NA,2,0
"524",8,"warning_0",1,1,NA,20,NA,1,0
"525",8,"warning_0",1,1,NA,21,NA,6,0
"526",8,"warning_0",1,1,NA,22,NA,6,0
"527",8,"warning_0",1,1,NA,23,NA,6,0
"528",8,"warning_0",1,1,NA,24,NA,6,0
"529",8,"warning_0",1,1,NA,25,NA,6,0
"530",8,"warning_0",1,1,NA,26,NA,1,0
"531",8,"warning_0",1,1,NA,27,NA,1,0
"532",8,"warning_0",1,1,NA,28,NA,6,0
"533",8,"warning_0",1,1,NA,29,NA,6,0
"534",8,"warning_0",1,1,NA,30,NA,6,0
"535",8,"warning_0",1,1,NA,31,NA,5,0
"536",8,"warning_0",1,1,NA,32,NA,2,0
"537",8,"warning_0",1,1,NA,33,NA,6,0
"538",8,"warning_0",1,1,NA,34,NA,6,0
"539",8,"warning_0",1,1,NA,35,NA,2,0
"540",8,"warning_0",1,1,NA,36,NA,6,0
"541",8,"warning_0",1,1,NA,37,NA,6,1
"542",8,"warning_0",1,1,NA,38,NA,1,1
"543",8,"warning_0",1,1,NA,39,NA,6,1
"544",8,"warning_0",1,1,NA,40,NA,6,1
"545",8,"warning_0",1,1,NA,41,NA,6,1
"546",8,"warning_0",1,1,NA,42,NA,6,1
"547",8,"warning_0",1,1,NA,43,NA,6,1
"548",8,"warning_0",1,1,NA,44,NA,6,1
"549",8,"warning_0",1,1,NA,45,NA,6,1
"550",8,"warning_0",1,1,NA,46,NA,6,1
"551",8,"warning_0",1,1,NA,47,NA,6,1
"552",8,"warning_0",1,1,NA,48,NA,6,1
"553",8,"warning_0",1,1,NA,49,NA,6,1
"554",8,"warning_0",1,1,NA,50,NA,6,1
"555",8,"warning_0",1,1,NA,51,NA,6,1
"556",8,"warning_0",1,1,NA,52,NA,6,1
"557",8,"warning_0",1,1,NA,53,NA,6,1
"558",8,"warning_0",1,1,NA,54,NA,1,1
"559",8,"warning_0",1,1,NA,55,NA,6,1
"560",8,"warning_0",1,1,NA,56,NA,1,1
"561",8,"warning_0",1,1,NA,57,NA,6,1
"562",8,"warning_0",1,1,NA,58,NA,6,1
"563",8,"warning_0",1,1,NA,59,NA,6,1
"564",8,"warning_0",1,1,NA,60,NA,6,1
"565",8,"warning_0",1,1,NA,61,NA,6,1
"566",8,"warning_0",1,1,NA,62,NA,6,1
"567",8,"warning_0",1,1,NA,63,NA,6,1
"568",8,"warning_0",1,1,NA,64,NA,6,1
"569",8,"warning_0",1,1,NA,65,NA,6,1
"570",8,"warning_0",1,1,NA,66,NA,6,1
"571",8,"warning_0",1,1,NA,67,NA,6,1
"572",8,"warning_0",1,1,NA,68,NA,2,1
"573",8,"warning_0",1,1,NA,69,NA,6,1
"574",8,"warning_0",1,1,NA,70,NA,6,1
"575",8,"warning_0",1,1,NA,71,NA,6,1
"576",8,"warning_0",1,1,NA,72,NA,6,1
"577",9,"warning_0",1,1,NA,1,NA,6,1
"578",9,"warning_0",1,1,NA,2,NA,6,1
"579",9,"warning_0",1,1,NA,3,NA,6,1
"580",9,"warning_0",1,1,NA,4,NA,3,1
"581",9,"warning_0",1,1,NA,5,NA,6,1
"582",9,"warning_0",1,1,NA,6,NA,6,1
"583",9,"warning_0",1,1,NA,7,NA,6,1
"584",9,"warning_0",1,1,NA,8,NA,5,1
"585",9,"warning_0",1,1,NA,9,NA,4,1
"586",9,"warning_0",1,1,NA,10,NA,6,1
"587",9,"warning_0",1,1,NA,11,NA,4,1
"588",9,"warning_0",1,1,NA,12,NA,2,1
"589",9,"warning_0",1,1,NA,13,NA,6,1
"590",9,"warning_0",1,1,NA,14,NA,6,1
"591",9,"warning_0",1,1,NA,15,NA,4,1
"592",9,"warning_0",1,1,NA,16,NA,4,1
"593",9,"warning_0",1,1,NA,17,NA,2,1
"594",9,"warning_0",1,1,NA,18,NA,1,1
"595",9,"warning_0",1,1,NA,19,NA,3,1
"596",9,"warning_0",1,1,NA,20,NA,6,1
"597",9,"warning_0",1,1,NA,21,NA,1,1
"598",9,"warning_0",1,1,NA,22,NA,6,1
"599",9,"warning_0",1,1,NA,23,NA,5,1
"600",9,"warning_0",1,1,NA,24,NA,2,1
"601",9,"warning_0",1,1,NA,25,NA,1,1
"602",9,"warning_0",1,1,NA,26,NA,6,1
"603",9,"warning_0",1,1,NA,27,NA,6,1
"604",9,"warning_0",1,1,NA,28,NA,6,1
"605",9,"warning_0",1,1,NA,29,NA,2,1
"606",9,"warning_0",1,1,NA,30,NA,6,1
"607",9,"warning_0",1,1,NA,31,NA,6,1
"608",9,"warning_0",1,1,NA,32,NA,5,1
"609",9,"warning_0",1,1,NA,33,NA,3,1
"610",9,"warning_0",1,1,NA,34,NA,2,1
"611",9,"warning_0",1,1,NA,35,NA,2,1
"612",9,"warning_0",1,1,NA,36,NA,6,1
"613",9,"warning_0",1,1,NA,37,NA,3,0
"614",9,"warning_0",1,1,NA,38,NA,5,0
"615",9,"warning_0",1,1,NA,39,NA,3,0
"616",9,"warning_0",1,1,NA,40,NA,3,0
"617",9,"warning_0",1,1,NA,41,NA,1,0
"618",9,"warning_0",1,1,NA,42,NA,3,0
"619",9,"warning_0",1,1,NA,43,NA,5,0
"620",9,"warning_0",1,1,NA,44,NA,6,0
"621",9,"warning_0",1,1,NA,45,NA,1,0
"622",9,"warning_0",1,1,NA,46,NA,6,0
"623",9,"warning_0",1,1,NA,47,NA,2,0
"624",9,"warning_0",1,1,NA,48,NA,6,0
"625",9,"warning_0",1,1,NA,49,NA,5,0
"626",9,"warning_0",1,1,NA,50,NA,5,0
"627",9,"warning_0",1,1,NA,51,NA,2,0
"628",9,"warning_0",1,1,NA,52,NA,3,0
"629",9,"warning_0",1,1,NA,53,NA,1,0
"630",9,"warning_0",1,1,NA,54,NA,4,0
"631",9,"warning_0",1,1,NA,55,NA,3,0
"632",9,"warning_0",1,1,NA,56,NA,4,0
"633",9,"warning_0",1,1,NA,57,NA,1,0
"634",9,"warning_0",1,1,NA,58,NA,3,0
"635",9,"warning_0",1,1,NA,59,NA,3,0
"636",9,"warning_0",1,1,NA,60,NA,5,0
"637",9,"warning_0",1,1,NA,61,NA,1,0
"638",9,"warning_0",1,1,NA,62,NA,5,0
"639",9,"warning_0",1,1,NA,63,NA,5,0
"640",9,"warning_0",1,1,NA,64,NA,4,0
"641",9,"warning_0",1,1,NA,65,NA,5,0
"642",9,"warning_0",1,1,NA,66,NA,2,0
"643",9,"warning_0",1,1,NA,67,NA,5,0
"644",9,"warning_0",1,1,NA,68,NA,6,0
"645",9,"warning_0",1,1,NA,69,NA,6,0
"646",9,"warning_0",1,1,NA,70,NA,6,0
"647",9,"warning_0",1,1,NA,71,NA,6,0
"648",9,"warning_0",1,1,NA,72,NA,2,0
"649",10,"warning_0",1,1,NA,1,NA,3,0
"650",10,"warning_0",1,1,NA,2,NA,4,0
"651",10,"warning_0",1,1,NA,3,NA,3,0
"652",10,"warning_0",1,1,NA,4,NA,3,0
"653",10,"warning_0",1,1,NA,5,NA,2,0
"654",10,"warning_0",1,1,NA,6,NA,3,0
"655",10,"warning_0",1,1,NA,7,NA,4,0
"656",10,"warning_0",1,1,NA,8,NA,4,0
"657",10,"warning_0",1,1,NA,9,NA,5,0
"658",10,"warning_0",1,1,NA,10,NA,4,0
"659",10,"warning_0",1,1,NA,11,NA,4,0
"660",10,"warning_0",1,1,NA,12,NA,5,0
"661",10,"warning_0",1,1,NA,13,NA,3,0
"662",10,"warning_0",1,1,NA,14,NA,5,0
"663",10,"warning_0",1,1,NA,15,NA,5,0
"664",10,"warning_0",1,1,NA,16,NA,5,0
"665",10,"warning_0",1,1,NA,17,NA,4,0
"666",10,"warning_0",1,1,NA,18,NA,6,0
"667",10,"warning_0",1,1,NA,19,NA,2,0
"668",10,"warning_0",1,1,NA,20,NA,4,0
"669",10,"warning_0",1,1,NA,21,NA,3,0
"670",10,"warning_0",1,1,NA,22,NA,4,0
"671",10,"warning_0",1,1,NA,23,NA,4,0
"672",10,"warning_0",1,1,NA,24,NA,2,0
"673",10,"warning_0",1,1,NA,25,NA,5,0
"674",10,"warning_0",1,1,NA,26,NA,3,0
"675",10,"warning_0",1,1,NA,27,NA,3,0
"676",10,"warning_0",1,1,NA,28,NA,4,0
"677",10,"warning_0",1,1,NA,29,NA,3,0
"678",10,"warning_0",1,1,NA,30,NA,6,0
"679",10,"warning_0",1,1,NA,31,NA,4,0
"680",10,"warning_0",1,1,NA,32,NA,4,0
"681",10,"warning_0",1,1,NA,33,NA,5,0
"682",10,"warning_0",1,1,NA,34,NA,4,0
"683",10,"warning_0",1,1,NA,35,NA,4,0
"684",10,"warning_0",1,1,NA,36,NA,5,0
"685",10,"warning_0",1,1,NA,37,NA,4,1
"686",10,"warning_0",1,1,NA,38,NA,5,1
"687",10,"warning_0",1,1,NA,39,NA,5,1
"688",10,"warning_0",1,1,NA,40,NA,5,1
"689",10,"warning_0",1,1,NA,41,NA,5,1
"690",10,"warning_0",1,1,NA,42,NA,5,1
"691",10,"warning_0",1,1,NA,43,NA,5,1
"692",10,"warning_0",1,1,NA,44,NA,5,1
"693",10,"warning_0",1,1,NA,45,NA,6,1
"694",10,"warning_0",1,1,NA,46,NA,4,1
"695",10,"warning_0",1,1,NA,47,NA,3,1
"696",10,"warning_0",1,1,NA,48,NA,6,1
"697",10,"warning_0",1,1,NA,49,NA,5,1
"698",10,"warning_0",1,1,NA,50,NA,4,1
"699",10,"warning_0",1,1,NA,51,NA,4,1
"700",10,"warning_0",1,1,NA,52,NA,5,1
"701",10,"warning_0",1,1,NA,53,NA,5,1
"702",10,"warning_0",1,1,NA,54,NA,5,1
"703",10,"warning_0",1,1,NA,55,NA,5,1
"704",10,"warning_0",1,1,NA,56,NA,4,1
"705",10,"warning_0",1,1,NA,57,NA,3,1
"706",10,"warning_0",1,1,NA,58,NA,4,1
"707",10,"warning_0",1,1,NA,59,NA,4,1
"708",10,"warning_0",1,1,NA,60,NA,4,1
"709",10,"warning_0",1,1,NA,61,NA,5,1
"710",10,"warning_0",1,1,NA,62,NA,5,1
"711",10,"warning_0",1,1,NA,63,NA,5,1
"712",10,"warning_0",1,1,NA,64,NA,5,1
"713",10,"warning_0",1,1,NA,65,NA,5,1
"714",10,"warning_0",1,1,NA,66,NA,4,1
"715",10,"warning_0",1,1,NA,67,NA,4,1
"716",10,"warning_0",1,1,NA,68,NA,6,1
"717",10,"warning_0",1,1,NA,69,NA,5,1
"718",10,"warning_0",1,1,NA,70,NA,4,1
"719",10,"warning_0",1,1,NA,71,NA,5,1
"720",10,"warning_0",1,1,NA,72,NA,5,1
"721",11,"warning_0",1,1,NA,1,NA,3,0
"722",11,"warning_0",1,1,NA,2,NA,4,0
"723",11,"warning_0",1,1,NA,3,NA,2,0
"724",11,"warning_0",1,1,NA,4,NA,4,0
"725",11,"warning_0",1,1,NA,5,NA,4,0
"726",11,"warning_0",1,1,NA,6,NA,4,0
"727",11,"warning_0",1,1,NA,7,NA,4,0
"728",11,"warning_0",1,1,NA,8,NA,3,0
"729",11,"warning_0",1,1,NA,9,NA,4,0
"730",11,"warning_0",1,1,NA,10,NA,4,0
"731",11,"warning_0",1,1,NA,11,NA,3,0
"732",11,"warning_0",1,1,NA,12,NA,4,0
"733",11,"warning_0",1,1,NA,13,NA,4,0
"734",11,"warning_0",1,1,NA,14,NA,5,0
"735",11,"warning_0",1,1,NA,15,NA,4,0
"736",11,"warning_0",1,1,NA,16,NA,4,0
"737",11,"warning_0",1,1,NA,17,NA,4,0
"738",11,"warning_0",1,1,NA,18,NA,5,0
"739",11,"warning_0",1,1,NA,19,NA,3,0
"740",11,"warning_0",1,1,NA,20,NA,3,0
"741",11,"warning_0",1,1,NA,21,NA,4,0
"742",11,"warning_0",1,1,NA,22,NA,3,0
"743",11,"warning_0",1,1,NA,23,NA,4,0
"744",11,"warning_0",1,1,NA,24,NA,4,0
"745",11,"warning_0",1,1,NA,25,NA,3,0
"746",11,"warning_0",1,1,NA,26,NA,2,0
"747",11,"warning_0",1,1,NA,27,NA,4,0
"748",11,"warning_0",1,1,NA,28,NA,4,0
"749",11,"warning_0",1,1,NA,29,NA,4,0
"750",11,"warning_0",1,1,NA,30,NA,4,0
"751",11,"warning_0",1,1,NA,31,NA,3,0
"752",11,"warning_0",1,1,NA,32,NA,4,0
"753",11,"warning_0",1,1,NA,33,NA,3,0
"754",11,"warning_0",1,1,NA,34,NA,2,0
"755",11,"warning_0",1,1,NA,35,NA,3,0
"756",11,"warning_0",1,1,NA,36,NA,3,0
"757",11,"warning_0",1,1,NA,37,NA,6,1
"758",11,"warning_0",1,1,NA,38,NA,5,1
"759",11,"warning_0",1,1,NA,39,NA,6,1
"760",11,"warning_0",1,1,NA,40,NA,6,1
"761",11,"warning_0",1,1,NA,41,NA,6,1
"762",11,"warning_0",1,1,NA,42,NA,6,1
"763",11,"warning_0",1,1,NA,43,NA,6,1
"764",11,"warning_0",1,1,NA,44,NA,6,1
"765",11,"warning_0",1,1,NA,45,NA,6,1
"766",11,"warning_0",1,1,NA,46,NA,6,1
"767",11,"warning_0",1,1,NA,47,NA,5,1
"768",11,"warning_0",1,1,NA,48,NA,6,1
"769",11,"warning_0",1,1,NA,49,NA,5,1
"770",11,"warning_0",1,1,NA,50,NA,6,1
"771",11,"warning_0",1,1,NA,51,NA,5,1
"772",11,"warning_0",1,1,NA,52,NA,5,1
"773",11,"warning_0",1,1,NA,53,NA,6,1
"774",11,"warning_0",1,1,NA,54,NA,6,1
"775",11,"warning_0",1,1,NA,55,NA,5,1
"776",11,"warning_0",1,1,NA,56,NA,6,1
"777",11,"warning_0",1,1,NA,57,NA,6,1
"778",11,"warning_0",1,1,NA,58,NA,6,1
"779",11,"warning_0",1,1,NA,59,NA,5,1
"780",11,"warning_0",1,1,NA,60,NA,6,1
"781",11,"warning_0",1,1,NA,61,NA,6,1
"782",11,"warning_0",1,1,NA,62,NA,6,1
"783",11,"warning_0",1,1,NA,63,NA,6,1
"784",11,"warning_0",1,1,NA,64,NA,6,1
"785",11,"warning_0",1,1,NA,65,NA,5,1
"786",11,"warning_0",1,1,NA,66,NA,6,1
"787",11,"warning_0",1,1,NA,67,NA,3,1
"788",11,"warning_0",1,1,NA,68,NA,6,1
"789",11,"warning_0",1,1,NA,69,NA,6,1
"790",11,"warning_0",1,1,NA,70,NA,6,1
"791",11,"warning_0",1,1,NA,71,NA,6,1
"792",11,"warning_0",1,1,NA,72,NA,6,1
"793",12,"warning_0",1,1,NA,1,NA,6,1
"794",12,"warning_0",1,1,NA,2,NA,6,1
"795",12,"warning_0",1,1,NA,3,NA,6,1
"796",12,"warning_0",1,1,NA,4,NA,2,1
"797",12,"warning_0",1,1,NA,5,NA,6,1
"798",12,"warning_0",1,1,NA,6,NA,6,1
"799",12,"warning_0",1,1,NA,7,NA,6,1
"800",12,"warning_0",1,1,NA,8,NA,6,1
"801",12,"warning_0",1,1,NA,9,NA,6,1
"802",12,"warning_0",1,1,NA,10,NA,6,1
"803",12,"warning_0",1,1,NA,11,NA,4,1
"804",12,"warning_0",1,1,NA,12,NA,3,1
"805",12,"warning_0",1,1,NA,13,NA,3,1
"806",12,"warning_0",1,1,NA,14,NA,6,1
"807",12,"warning_0",1,1,NA,15,NA,6,1
"808",12,"warning_0",1,1,NA,16,NA,6,1
"809",12,"warning_0",1,1,NA,17,NA,6,1
"810",12,"warning_0",1,1,NA,18,NA,6,1
"811",12,"warning_0",1,1,NA,19,NA,6,1
"812",12,"warning_0",1,1,NA,20,NA,3,1
"813",12,"warning_0",1,1,NA,21,NA,6,1
"814",12,"warning_0",1,1,NA,22,NA,6,1
"815",12,"warning_0",1,1,NA,23,NA,6,1
"816",12,"warning_0",1,1,NA,24,NA,6,1
"817",12,"warning_0",1,1,NA,25,NA,6,1
"818",12,"warning_0",1,1,NA,26,NA,6,1
"819",12,"warning_0",1,1,NA,27,NA,6,1
"820",12,"warning_0",1,1,NA,28,NA,6,1
"821",12,"warning_0",1,1,NA,29,NA,6,1
"822",12,"warning_0",1,1,NA,30,NA,6,1
"823",12,"warning_0",1,1,NA,31,NA,6,1
"824",12,"warning_0",1,1,NA,32,NA,5,1
"825",12,"warning_0",1,1,NA,33,NA,6,1
"826",12,"warning_0",1,1,NA,34,NA,6,1
"827",12,"warning_0",1,1,NA,35,NA,6,1
"828",12,"warning_0",1,1,NA,36,NA,6,1
"829",12,"warning_0",1,1,NA,37,NA,3,0
"830",12,"warning_0",1,1,NA,38,NA,6,0
"831",12,"warning_0",1,1,NA,39,NA,1,0
"832",12,"warning_0",1,1,NA,40,NA,6,0
"833",12,"warning_0",1,1,NA,41,NA,2,0
"834",12,"warning_0",1,1,NA,42,NA,4,0
"835",12,"warning_0",1,1,NA,43,NA,2,0
"836",12,"warning_0",1,1,NA,44,NA,3,0
"837",12,"warning_0",1,1,NA,45,NA,2,0
"838",12,"warning_0",1,1,NA,46,NA,1,0
"839",12,"warning_0",1,1,NA,47,NA,2,0
"840",12,"warning_0",1,1,NA,48,NA,6,0
"841",12,"warning_0",1,1,NA,49,NA,6,0
"842",12,"warning_0",1,1,NA,50,NA,5,0
"843",12,"warning_0",1,1,NA,51,NA,4,0
"844",12,"warning_0",1,1,NA,52,NA,3,0
"845",12,"warning_0",1,1,NA,53,NA,6,0
"846",12,"warning_0",1,1,NA,54,NA,3,0
"847",12,"warning_0",1,1,NA,55,NA,4,0
"848",12,"warning_0",1,1,NA,56,NA,1,0
"849",12,"warning_0",1,1,NA,57,NA,3,0
"850",12,"warning_0",1,1,NA,58,NA,5,0
"851",12,"warning_0",1,1,NA,59,NA,4,0
"852",12,"warning_0",1,1,NA,60,NA,1,0
"853",12,"warning_0",1,1,NA,61,NA,1,0
"854",12,"warning_0",1,1,NA,62,NA,3,0
"855",12,"warning_0",1,1,NA,63,NA,2,0
"856",12,"warning_0",1,1,NA,64,NA,3,0
"857",12,"warning_0",1,1,NA,65,NA,3,0
"858",12,"warning_0",1,1,NA,66,NA,3,0
"859",12,"warning_0",1,1,NA,67,NA,2,0
"860",12,"warning_0",1,1,NA,68,NA,3,0
"861",12,"warning_0",1,1,NA,69,NA,2,0
"862",12,"warning_0",1,1,NA,70,NA,3,0
"863",12,"warning_0",1,1,NA,71,NA,6,0
"864",12,"warning_0",1,1,NA,72,NA,3,0
"865",13,"warning_0",1,1,NA,1,NA,2,1
"866",13,"warning_0",1,1,NA,2,NA,2,1
"867",13,"warning_0",1,1,NA,3,NA,4,1
"868",13,"warning_0",1,1,NA,4,NA,4,1
"869",13,"warning_0",1,1,NA,5,NA,5,1
"870",13,"warning_0",1,1,NA,6,NA,4,1
"871",13,"warning_0",1,1,NA,7,NA,3,1
"872",13,"warning_0",1,1,NA,8,NA,2,1
"873",13,"warning_0",1,1,NA,9,NA,5,1
"874",13,"warning_0",1,1,NA,10,NA,3,1
"875",13,"warning_0",1,1,NA,11,NA,5,1
"876",13,"warning_0",1,1,NA,12,NA,5,1
"877",13,"warning_0",1,1,NA,13,NA,4,1
"878",13,"warning_0",1,1,NA,14,NA,5,1
"879",13,"warning_0",1,1,NA,15,NA,4,1
"880",13,"warning_0",1,1,NA,16,NA,5,1
"881",13,"warning_0",1,1,NA,17,NA,5,1
"882",13,"warning_0",1,1,NA,18,NA,6,1
"883",13,"warning_0",1,1,NA,19,NA,2,1
"884",13,"warning_0",1,1,NA,20,NA,2,1
"885",13,"warning_0",1,1,NA,21,NA,4,1
"886",13,"warning_0",1,1,NA,22,NA,4,1
"887",13,"warning_0",1,1,NA,23,NA,2,1
"888",13,"warning_0",1,1,NA,24,NA,2,1
"889",13,"warning_0",1,1,NA,25,NA,2,1
"890",13,"warning_0",1,1,NA,26,NA,2,1
"891",13,"warning_0",1,1,NA,27,NA,1,1
"892",13,"warning_0",1,1,NA,28,NA,5,1
"893",13,"warning_0",1,1,NA,29,NA,2,1
"894",13,"warning_0",1,1,NA,30,NA,4,1
"895",13,"warning_0",1,1,NA,31,NA,5,1
"896",13,"warning_0",1,1,NA,32,NA,5,1
"897",13,"warning_0",1,1,NA,33,NA,2,1
"898",13,"warning_0",1,1,NA,34,NA,5,1
"899",13,"warning_0",1,1,NA,35,NA,2,1
"900",13,"warning_0",1,1,NA,36,NA,4,1
"901",13,"warning_0",1,1,NA,37,NA,3,0
"902",13,"warning_0",1,1,NA,38,NA,2,0
"903",13,"warning_0",1,1,NA,39,NA,5,0
"904",13,"warning_0",1,1,NA,40,NA,4,0
"905",13,"warning_0",1,1,NA,41,NA,4,0
"906",13,"warning_0",1,1,NA,42,NA,1,0
"907",13,"warning_0",1,1,NA,43,NA,5,0
"908",13,"warning_0",1,1,NA,44,NA,3,0
"909",13,"warning_0",1,1,NA,45,NA,5,0
"910",13,"warning_0",1,1,NA,46,NA,3,0
"911",13,"warning_0",1,1,NA,47,NA,3,0
"912",13,"warning_0",1,1,NA,48,NA,1,0
"913",13,"warning_0",1,1,NA,49,NA,6,0
"914",13,"warning_0",1,1,NA,50,NA,3,0
"915",13,"warning_0",1,1,NA,51,NA,5,0
"916",13,"warning_0",1,1,NA,52,NA,3,0
"917",13,"warning_0",1,1,NA,53,NA,4,0
"918",13,"warning_0",1,1,NA,54,NA,5,0
"919",13,"warning_0",1,1,NA,55,NA,1,0
"920",13,"warning_0",1,1,NA,56,NA,2,0
"921",13,"warning_0",1,1,NA,57,NA,2,0
"922",13,"warning_0",1,1,NA,58,NA,3,0
"923",13,"warning_0",1,1,NA,59,NA,3,0
"924",13,"warning_0",1,1,NA,60,NA,3,0
"925",13,"warning_0",1,1,NA,61,NA,2,0
"926",13,"warning_0",1,1,NA,62,NA,5,0
"927",13,"warning_0",1,1,NA,63,NA,3,0
"928",13,"warning_0",1,1,NA,64,NA,5,0
"929",13,"warning_0",1,1,NA,65,NA,4,0
"930",13,"warning_0",1,1,NA,66,NA,5,0
"931",13,"warning_0",1,1,NA,67,NA,1,0
"932",13,"warning_0",1,1,NA,68,NA,3,0
"933",13,"warning_0",1,1,NA,69,NA,1,0
"934",13,"warning_0",1,1,NA,70,NA,1,0
"935",13,"warning_0",1,1,NA,71,NA,2,0
"936",13,"warning_0",1,1,NA,72,NA,5,0
"937",14,"warning_0",1,1,NA,1,NA,1,0
"938",14,"warning_0",1,1,NA,2,NA,1,0
"939",14,"warning_0",1,1,NA,3,NA,1,0
"940",14,"warning_0",1,1,NA,4,NA,1,0
"941",14,"warning_0",1,1,NA,5,NA,1,0
"942",14,"warning_0",1,1,NA,6,NA,1,0
"943",14,"warning_0",1,1,NA,7,NA,1,0
"944",14,"warning_0",1,1,NA,8,NA,1,0
"945",14,"warning_0",1,1,NA,9,NA,1,0
"946",14,"warning_0",1,1,NA,10,NA,1,0
"947",14,"warning_0",1,1,NA,11,NA,1,0
"948",14,"warning_0",1,1,NA,12,NA,1,0
"949",14,"warning_0",1,1,NA,13,NA,1,0
"950",14,"warning_0",1,1,NA,14,NA,1,0
"951",14,"warning_0",1,1,NA,15,NA,1,0
"952",14,"warning_0",1,1,NA,16,NA,1,0
"953",14,"warning_0",1,1,NA,17,NA,1,0
"954",14,"warning_0",1,1,NA,18,NA,1,0
"955",14,"warning_0",1,1,NA,19,NA,1,0
"956",14,"warning_0",1,1,NA,20,NA,1,0
"957",14,"warning_0",1,1,NA,21,NA,1,0
"958",14,"warning_0",1,1,NA,22,NA,1,0
"959",14,"warning_0",1,1,NA,23,NA,1,0
"960",14,"warning_0",1,1,NA,24,NA,1,0
"961",14,"warning_0",1,1,NA,25,NA,1,0
"962",14,"warning_0",1,1,NA,26,NA,1,0
"963",14,"warning_0",1,1,NA,27,NA,1,0
"964",14,"warning_0",1,1,NA,28,NA,1,0
"965",14,"warning_0",1,1,NA,29,NA,1,0
"966",14,"warning_0",1,1,NA,30,NA,1,0
"967",14,"warning_0",1,1,NA,31,NA,1,0
"968",14,"warning_0",1,1,NA,32,NA,1,0
"969",14,"warning_0",1,1,NA,33,NA,1,0
"970",14,"warning_0",1,1,NA,34,NA,1,0
"971",14,"warning_0",1,1,NA,35,NA,1,0
"972",14,"warning_0",1,1,NA,36,NA,1,0
"973",14,"warning_0",1,1,NA,37,NA,6,1
"974",14,"warning_0",1,1,NA,38,NA,6,1
"975",14,"warning_0",1,1,NA,39,NA,6,1
"976",14,"warning_0",1,1,NA,40,NA,6,1
"977",14,"warning_0",1,1,NA,41,NA,6,1
"978",14,"warning_0",1,1,NA,42,NA,6,1
"979",14,"warning_0",1,1,NA,43,NA,6,1
"980",14,"warning_0",1,1,NA,44,NA,6,1
"981",14,"warning_0",1,1,NA,45,NA,6,1
"982",14,"warning_0",1,1,NA,46,NA,6,1
"983",14,"warning_0",1,1,NA,47,NA,6,1
"984",14,"warning_0",1,1,NA,48,NA,6,1
"985",14,"warning_0",1,1,NA,49,NA,6,1
"986",14,"warning_0",1,1,NA,50,NA,6,1
"987",14,"warning_0",1,1,NA,51,NA,6,1
"988",14,"warning_0",1,1,NA,52,NA,6,1
"989",14,"warning_0",1,1,NA,53,NA,6,1
"990",14,"warning_0",1,1,NA,54,NA,6,1
"991",14,"warning_0",1,1,NA,55,NA,6,1
"992",14,"warning_0",1,1,NA,56,NA,6,1
"993",14,"warning_0",1,1,NA,57,NA,6,1
"994",14,"warning_0",1,1,NA,58,NA,6,1
"995",14,"warning_0",1,1,NA,59,NA,6,1
"996",14,"warning_0",1,1,NA,60,NA,6,1
"997",14,"warning_0",1,1,NA,61,NA,6,1
"998",14,"warning_0",1,1,NA,62,NA,6,1
"999",14,"warning_0",1,1,NA,63,NA,6,1
"1000",14,"warning_0",1,1,NA,64,NA,6,1
"1001",14,"warning_0",1,1,NA,65,NA,6,1
"1002",14,"warning_0",1,1,NA,66,NA,6,1
"1003",14,"warning_0",1,1,NA,67,NA,6,1
"1004",14,"warning_0",1,1,NA,68,NA,6,1
"1005",14,"warning_0",1,1,NA,69,NA,6,1
"1006",14,"warning_0",1,1,NA,70,NA,6,1
"1007",14,"warning_0",1,1,NA,71,NA,6,1
"1008",14,"warning_0",1,1,NA,72,NA,6,1
"1009",15,"warning_0",1,1,NA,1,NA,6,1
"1010",15,"warning_0",1,1,NA,2,NA,6,1
"1011",15,"warning_0",1,1,NA,3,NA,6,1
"1012",15,"warning_0",1,1,NA,4,NA,2,1
"1013",15,"warning_0",1,1,NA,5,NA,6,1
"1014",15,"warning_0",1,1,NA,6,NA,3,1
"1015",15,"warning_0",1,1,NA,7,NA,6,1
"1016",15,"warning_0",1,1,NA,8,NA,6,1
"1017",15,"warning_0",1,1,NA,9,NA,6,1
"1018",15,"warning_0",1,1,NA,10,NA,6,1
"1019",15,"warning_0",1,1,NA,11,NA,6,1
"1020",15,"warning_0",1,1,NA,12,NA,6,1
"1021",15,"warning_0",1,1,NA,13,NA,6,1
"1022",15,"warning_0",1,1,NA,14,NA,6,1
"1023",15,"warning_0",1,1,NA,15,NA,6,1
"1024",15,"warning_0",1,1,NA,16,NA,6,1
"1025",15,"warning_0",1,1,NA,17,NA,6,1
"1026",15,"warning_0",1,1,NA,18,NA,6,1
"1027",15,"warning_0",1,1,NA,19,NA,6,1
"1028",15,"warning_0",1,1,NA,20,NA,6,1
"1029",15,"warning_0",1,1,NA,21,NA,6,1
"1030",15,"warning_0",1,1,NA,22,NA,6,1
"1031",15,"warning_0",1,1,NA,23,NA,6,1
"1032",15,"warning_0",1,1,NA,24,NA,6,1
"1033",15,"warning_0",1,1,NA,25,NA,6,1
"1034",15,"warning_0",1,1,NA,26,NA,6,1
"1035",15,"warning_0",1,1,NA,27,NA,6,1
"1036",15,"warning_0",1,1,NA,28,NA,6,1
"1037",15,"warning_0",1,1,NA,29,NA,2,1
"1038",15,"warning_0",1,1,NA,30,NA,6,1
"1039",15,"warning_0",1,1,NA,31,NA,6,1
"1040",15,"warning_0",1,1,NA,32,NA,6,1
"1041",15,"warning_0",1,1,NA,33,NA,6,1
"1042",15,"warning_0",1,1,NA,34,NA,6,1
"1043",15,"warning_0",1,1,NA,35,NA,6,1
"1044",15,"warning_0",1,1,NA,36,NA,6,1
"1045",15,"warning_0",1,1,NA,37,NA,2,0
"1046",15,"warning_0",1,1,NA,38,NA,2,0
"1047",15,"warning_0",1,1,NA,39,NA,2,0
"1048",15,"warning_0",1,1,NA,40,NA,2,0
"1049",15,"warning_0",1,1,NA,41,NA,2,0
"1050",15,"warning_0",1,1,NA,42,NA,2,0
"1051",15,"warning_0",1,1,NA,43,NA,2,0
"1052",15,"warning_0",1,1,NA,44,NA,2,0
"1053",15,"warning_0",1,1,NA,45,NA,2,0
"1054",15,"warning_0",1,1,NA,46,NA,2,0
"1055",15,"warning_0",1,1,NA,47,NA,2,0
"1056",15,"warning_0",1,1,NA,48,NA,2,0
"1057",15,"warning_0",1,1,NA,49,NA,3,0
"1058",15,"warning_0",1,1,NA,50,NA,2,0
"1059",15,"warning_0",1,1,NA,51,NA,3,0
"1060",15,"warning_0",1,1,NA,52,NA,3,0
"1061",15,"warning_0",1,1,NA,53,NA,1,0
"1062",15,"warning_0",1,1,NA,54,NA,2,0
"1063",15,"warning_0",1,1,NA,55,NA,2,0
"1064",15,"warning_0",1,1,NA,56,NA,2,0
"1065",15,"warning_0",1,1,NA,57,NA,1,0
"1066",15,"warning_0",1,1,NA,58,NA,2,0
"1067",15,"warning_0",1,1,NA,59,NA,2,0
"1068",15,"warning_0",1,1,NA,60,NA,2,0
"1069",15,"warning_0",1,1,NA,61,NA,2,0
"1070",15,"warning_0",1,1,NA,62,NA,2,0
"1071",15,"warning_0",1,1,NA,63,NA,2,0
"1072",15,"warning_0",1,1,NA,64,NA,4,0
"1073",15,"warning_0",1,1,NA,65,NA,2,0
"1074",15,"warning_0",1,1,NA,66,NA,1,0
"1075",15,"warning_0",1,1,NA,67,NA,2,0
"1076",15,"warning_0",1,1,NA,68,NA,2,0
"1077",15,"warning_0",1,1,NA,69,NA,2,0
"1078",15,"warning_0",1,1,NA,70,NA,2,0
"1079",15,"warning_0",1,1,NA,71,NA,1,0
"1080",15,"warning_0",1,1,NA,72,NA,2,0
"1081",16,"warning_0",1,1,NA,1,NA,5,1
"1082",16,"warning_0",1,1,NA,2,NA,5,1
"1083",16,"warning_0",1,1,NA,3,NA,5,1
"1084",16,"warning_0",1,1,NA,4,NA,2,1
"1085",16,"warning_0",1,1,NA,5,NA,5,1
"1086",16,"warning_0",1,1,NA,6,NA,2,1
"1087",16,"warning_0",1,1,NA,7,NA,5,1
"1088",16,"warning_0",1,1,NA,8,NA,4,1
"1089",16,"warning_0",1,1,NA,9,NA,5,1
"1090",16,"warning_0",1,1,NA,10,NA,5,1
"1091",16,"warning_0",1,1,NA,11,NA,5,1
"1092",16,"warning_0",1,1,NA,12,NA,5,1
"1093",16,"warning_0",1,1,NA,13,NA,5,1
"1094",16,"warning_0",1,1,NA,14,NA,5,1
"1095",16,"warning_0",1,1,NA,15,NA,5,1
"1096",16,"warning_0",1,1,NA,16,NA,5,1
"1097",16,"warning_0",1,1,NA,17,NA,2,1
"1098",16,"warning_0",1,1,NA,18,NA,6,1
"1099",16,"warning_0",1,1,NA,19,NA,1,1
"1100",16,"warning_0",1,1,NA,20,NA,5,1
"1101",16,"warning_0",1,1,NA,21,NA,5,1
"1102",16,"warning_0",1,1,NA,22,NA,4,1
"1103",16,"warning_0",1,1,NA,23,NA,5,1
"1104",16,"warning_0",1,1,NA,24,NA,5,1
"1105",16,"warning_0",1,1,NA,25,NA,5,1
"1106",16,"warning_0",1,1,NA,26,NA,6,1
"1107",16,"warning_0",1,1,NA,27,NA,2,1
"1108",16,"warning_0",1,1,NA,28,NA,5,1
"1109",16,"warning_0",1,1,NA,29,NA,2,1
"1110",16,"warning_0",1,1,NA,30,NA,5,1
"1111",16,"warning_0",1,1,NA,31,NA,6,1
"1112",16,"warning_0",1,1,NA,32,NA,5,1
"1113",16,"warning_0",1,1,NA,33,NA,5,1
"1114",16,"warning_0",1,1,NA,34,NA,2,1
"1115",16,"warning_0",1,1,NA,35,NA,5,1
"1116",16,"warning_0",1,1,NA,36,NA,5,1
"1117",16,"warning_0",1,1,NA,37,NA,4,0
"1118",16,"warning_0",1,1,NA,38,NA,5,0
"1119",16,"warning_0",1,1,NA,39,NA,5,0
"1120",16,"warning_0",1,1,NA,40,NA,6,0
"1121",16,"warning_0",1,1,NA,41,NA,4,0
"1122",16,"warning_0",1,1,NA,42,NA,5,0
"1123",16,"warning_0",1,1,NA,43,NA,5,0
"1124",16,"warning_0",1,1,NA,44,NA,5,0
"1125",16,"warning_0",1,1,NA,45,NA,2,0
"1126",16,"warning_0",1,1,NA,46,NA,5,0
"1127",16,"warning_0",1,1,NA,47,NA,6,0
"1128",16,"warning_0",1,1,NA,48,NA,6,0
"1129",16,"warning_0",1,1,NA,49,NA,4,0
"1130",16,"warning_0",1,1,NA,50,NA,5,0
"1131",16,"warning_0",1,1,NA,51,NA,5,0
"1132",16,"warning_0",1,1,NA,52,NA,6,0
"1133",16,"warning_0",1,1,NA,53,NA,1,0
"1134",16,"warning_0",1,1,NA,54,NA,5,0
"1135",16,"warning_0",1,1,NA,55,NA,2,0
"1136",16,"warning_0",1,1,NA,56,NA,2,0
"1137",16,"warning_0",1,1,NA,57,NA,1,0
"1138",16,"warning_0",1,1,NA,58,NA,2,0
"1139",16,"warning_0",1,1,NA,59,NA,5,0
"1140",16,"warning_0",1,1,NA,60,NA,4,0
"1141",16,"warning_0",1,1,NA,61,NA,4,0
"1142",16,"warning_0",1,1,NA,62,NA,2,0
"1143",16,"warning_0",1,1,NA,63,NA,2,0
"1144",16,"warning_0",1,1,NA,64,NA,5,0
"1145",16,"warning_0",1,1,NA,65,NA,4,0
"1146",16,"warning_0",1,1,NA,66,NA,4,0
"1147",16,"warning_0",1,1,NA,67,NA,6,0
"1148",16,"warning_0",1,1,NA,68,NA,2,0
"1149",16,"warning_0",1,1,NA,69,NA,6,0
"1150",16,"warning_0",1,1,NA,70,NA,2,0
"1151",16,"warning_0",1,1,NA,71,NA,5,0
"1152",16,"warning_0",1,1,NA,72,NA,5,0
"1153",17,"warning_0",1,1,NA,1,NA,3,0
"1154",17,"warning_0",1,1,NA,2,NA,3,0
"1155",17,"warning_0",1,1,NA,3,NA,4,0
"1156",17,"warning_0",1,1,NA,4,NA,3,0
"1157",17,"warning_0",1,1,NA,5,NA,3,0
"1158",17,"warning_0",1,1,NA,6,NA,3,0
"1159",17,"warning_0",1,1,NA,7,NA,4,0
"1160",17,"warning_0",1,1,NA,8,NA,4,0
"1161",17,"warning_0",1,1,NA,9,NA,3,0
"1162",17,"warning_0",1,1,NA,10,NA,3,0
"1163",17,"warning_0",1,1,NA,11,NA,3,0
"1164",17,"warning_0",1,1,NA,12,NA,3,0
"1165",17,"warning_0",1,1,NA,13,NA,3,0
"1166",17,"warning_0",1,1,NA,14,NA,4,0
"1167",17,"warning_0",1,1,NA,15,NA,5,0
"1168",17,"warning_0",1,1,NA,16,NA,3,0
"1169",17,"warning_0",1,1,NA,17,NA,5,0
"1170",17,"warning_0",1,1,NA,18,NA,4,0
"1171",17,"warning_0",1,1,NA,19,NA,3,0
"1172",17,"warning_0",1,1,NA,20,NA,3,0
"1173",17,"warning_0",1,1,NA,21,NA,3,0
"1174",17,"warning_0",1,1,NA,22,NA,3,0
"1175",17,"warning_0",1,1,NA,23,NA,3,0
"1176",17,"warning_0",1,1,NA,24,NA,1,0
"1177",17,"warning_0",1,1,NA,25,NA,2,0
"1178",17,"warning_0",1,1,NA,26,NA,5,0
"1179",17,"warning_0",1,1,NA,27,NA,1,0
"1180",17,"warning_0",1,1,NA,28,NA,3,0
"1181",17,"warning_0",1,1,NA,29,NA,1,0
"1182",17,"warning_0",1,1,NA,30,NA,3,0
"1183",17,"warning_0",1,1,NA,31,NA,4,0
"1184",17,"warning_0",1,1,NA,32,NA,4,0
"1185",17,"warning_0",1,1,NA,33,NA,2,0
"1186",17,"warning_0",1,1,NA,34,NA,3,0
"1187",17,"warning_0",1,1,NA,35,NA,2,0
"1188",17,"warning_0",1,1,NA,36,NA,5,0
"1189",17,"warning_0",1,1,NA,37,NA,5,1
"1190",17,"warning_0",1,1,NA,38,NA,4,1
"1191",17,"warning_0",1,1,NA,39,NA,1,1
"1192",17,"warning_0",1,1,NA,40,NA,2,1
"1193",17,"warning_0",1,1,NA,41,NA,1,1
"1194",17,"warning_0",1,1,NA,42,NA,3,1
"1195",17,"warning_0",1,1,NA,43,NA,4,1
"1196",17,"warning_0",1,1,NA,44,NA,3,1
"1197",17,"warning_0",1,1,NA,45,NA,2,1
"1198",17,"warning_0",1,1,NA,46,NA,2,1
"1199",17,"warning_0",1,1,NA,47,NA,6,1
"1200",17,"warning_0",1,1,NA,48,NA,3,1
"1201",17,"warning_0",1,1,NA,49,NA,6,1
"1202",17,"warning_0",1,1,NA,50,NA,2,1
"1203",17,"warning_0",1,1,NA,51,NA,2,1
"1204",17,"warning_0",1,1,NA,52,NA,3,1
"1205",17,"warning_0",1,1,NA,53,NA,1,1
"1206",17,"warning_0",1,1,NA,54,NA,3,1
"1207",17,"warning_0",1,1,NA,55,NA,3,1
"1208",17,"warning_0",1,1,NA,56,NA,3,1
"1209",17,"warning_0",1,1,NA,57,NA,3,1
"1210",17,"warning_0",1,1,NA,58,NA,1,1
"1211",17,"warning_0",1,1,NA,59,NA,4,1
"1212",17,"warning_0",1,1,NA,60,NA,3,1
"1213",17,"warning_0",1,1,NA,61,NA,3,1
"1214",17,"warning_0",1,1,NA,62,NA,3,1
"1215",17,"warning_0",1,1,NA,63,NA,5,1
"1216",17,"warning_0",1,1,NA,64,NA,3,1
"1217",17,"warning_0",1,1,NA,65,NA,4,1
"1218",17,"warning_0",1,1,NA,66,NA,6,1
"1219",17,"warning_0",1,1,NA,67,NA,3,1
"1220",17,"warning_0",1,1,NA,68,NA,3,1
"1221",17,"warning_0",1,1,NA,69,NA,3,1
"1222",17,"warning_0",1,1,NA,70,NA,3,1
"1223",17,"warning_0",1,1,NA,71,NA,1,1
"1224",17,"warning_0",1,1,NA,72,NA,1,1
"1225",18,"warning_0",1,1,NA,1,NA,3,1
"1226",18,"warning_0",1,1,NA,2,NA,3,1
"1227",18,"warning_0",1,1,NA,3,NA,4,1
"1228",18,"warning_0",1,1,NA,4,NA,4,1
"1229",18,"warning_0",1,1,NA,5,NA,1,1
"1230",18,"warning_0",1,1,NA,6,NA,3,1
"1231",18,"warning_0",1,1,NA,7,NA,2,1
"1232",18,"warning_0",1,1,NA,8,NA,2,1
"1233",18,"warning_0",1,1,NA,9,NA,1,1
"1234",18,"warning_0",1,1,NA,10,NA,4,1
"1235",18,"warning_0",1,1,NA,11,NA,6,1
"1236",18,"warning_0",1,1,NA,12,NA,4,1
"1237",18,"warning_0",1,1,NA,13,NA,3,1
"1238",18,"warning_0",1,1,NA,14,NA,5,1
"1239",18,"warning_0",1,1,NA,15,NA,1,1
"1240",18,"warning_0",1,1,NA,16,NA,1,1
"1241",18,"warning_0",1,1,NA,17,NA,3,1
"1242",18,"warning_0",1,1,NA,18,NA,4,1
"1243",18,"warning_0",1,1,NA,19,NA,4,1
"1244",18,"warning_0",1,1,NA,20,NA,5,1
"1245",18,"warning_0",1,1,NA,21,NA,5,1
"1246",18,"warning_0",1,1,NA,22,NA,4,1
"1247",18,"warning_0",1,1,NA,23,NA,4,1
"1248",18,"warning_0",1,1,NA,24,NA,4,1
"1249",18,"warning_0",1,1,NA,25,NA,5,1
"1250",18,"warning_0",1,1,NA,26,NA,4,1
"1251",18,"warning_0",1,1,NA,27,NA,3,1
"1252",18,"warning_0",1,1,NA,28,NA,6,1
"1253",18,"warning_0",1,1,NA,29,NA,4,1
"1254",18,"warning_0",1,1,NA,30,NA,4,1
"1255",18,"warning_0",1,1,NA,31,NA,4,1
"1256",18,"warning_0",1,1,NA,32,NA,1,1
"1257",18,"warning_0",1,1,NA,33,NA,4,1
"1258",18,"warning_0",1,1,NA,34,NA,4,1
"1259",18,"warning_0",1,1,NA,35,NA,3,1
"1260",18,"warning_0",1,1,NA,36,NA,4,1
"1261",18,"warning_0",1,1,NA,37,NA,4,0
"1262",18,"warning_0",1,1,NA,38,NA,5,0
"1263",18,"warning_0",1,1,NA,39,NA,5,0
"1264",18,"warning_0",1,1,NA,40,NA,3,0
"1265",18,"warning_0",1,1,NA,41,NA,4,0
"1266",18,"warning_0",1,1,NA,42,NA,3,0
"1267",18,"warning_0",1,1,NA,43,NA,4,0
"1268",18,"warning_0",1,1,NA,44,NA,3,0
"1269",18,"warning_0",1,1,NA,45,NA,4,0
"1270",18,"warning_0",1,1,NA,46,NA,4,0
"1271",18,"warning_0",1,1,NA,47,NA,4,0
"1272",18,"warning_0",1,1,NA,48,NA,6,0
"1273",18,"warning_0",1,1,NA,49,NA,3,0
"1274",18,"warning_0",1,1,NA,50,NA,4,0
"1275",18,"warning_0",1,1,NA,51,NA,4,0
"1276",18,"warning_0",1,1,NA,52,NA,4,0
"1277",18,"warning_0",1,1,NA,53,NA,5,0
"1278",18,"warning_0",1,1,NA,54,NA,4,0
"1279",18,"warning_0",1,1,NA,55,NA,5,0
"1280",18,"warning_0",1,1,NA,56,NA,2,0
"1281",18,"warning_0",1,1,NA,57,NA,2,0
"1282",18,"warning_0",1,1,NA,58,NA,2,0
"1283",18,"warning_0",1,1,NA,59,NA,4,0
"1284",18,"warning_0",1,1,NA,60,NA,5,0
"1285",18,"warning_0",1,1,NA,61,NA,4,0
"1286",18,"warning_0",1,1,NA,62,NA,2,0
"1287",18,"warning_0",1,1,NA,63,NA,3,0
"1288",18,"warning_0",1,1,NA,64,NA,4,0
"1289",18,"warning_0",1,1,NA,65,NA,4,0
"1290",18,"warning_0",1,1,NA,66,NA,3,0
"1291",18,"warning_0",1,1,NA,67,NA,3,0
"1292",18,"warning_0",1,1,NA,68,NA,4,0
"1293",18,"warning_0",1,1,NA,69,NA,4,0
"1294",18,"warning_0",1,1,NA,70,NA,3,0
"1295",18,"warning_0",1,1,NA,71,NA,5,0
"1296",18,"warning_0",1,1,NA,72,NA,5,0
"1297",19,"warning_0",1,1,NA,1,NA,6,1
"1298",19,"warning_0",1,1,NA,2,NA,6,1
"1299",19,"warning_0",1,1,NA,3,NA,6,1
"1300",19,"warning_0",1,1,NA,4,NA,4,1
"1301",19,"warning_0",1,1,NA,5,NA,6,1
"1302",19,"warning_0",1,1,NA,6,NA,6,1
"1303",19,"warning_0",1,1,NA,7,NA,6,1
"1304",19,"warning_0",1,1,NA,8,NA,6,1
"1305",19,"warning_0",1,1,NA,9,NA,6,1
"1306",19,"warning_0",1,1,NA,10,NA,6,1
"1307",19,"warning_0",1,1,NA,11,NA,6,1
"1308",19,"warning_0",1,1,NA,12,NA,6,1
"1309",19,"warning_0",1,1,NA,13,NA,6,1
"1310",19,"warning_0",1,1,NA,14,NA,6,1
"1311",19,"warning_0",1,1,NA,15,NA,6,1
"1312",19,"warning_0",1,1,NA,16,NA,6,1
"1313",19,"warning_0",1,1,NA,17,NA,6,1
"1314",19,"warning_0",1,1,NA,18,NA,6,1
"1315",19,"warning_0",1,1,NA,19,NA,6,1
"1316",19,"warning_0",1,1,NA,20,NA,4,1
"1317",19,"warning_0",1,1,NA,21,NA,6,1
"1318",19,"warning_0",1,1,NA,22,NA,6,1
"1319",19,"warning_0",1,1,NA,23,NA,6,1
"1320",19,"warning_0",1,1,NA,24,NA,6,1
"1321",19,"warning_0",1,1,NA,25,NA,6,1
"1322",19,"warning_0",1,1,NA,26,NA,6,1
"1323",19,"warning_0",1,1,NA,27,NA,6,1
"1324",19,"warning_0",1,1,NA,28,NA,6,1
"1325",19,"warning_0",1,1,NA,29,NA,6,1
"1326",19,"warning_0",1,1,NA,30,NA,6,1
"1327",19,"warning_0",1,1,NA,31,NA,6,1
"1328",19,"warning_0",1,1,NA,32,NA,6,1
"1329",19,"warning_0",1,1,NA,33,NA,6,1
"1330",19,"warning_0",1,1,NA,34,NA,6,1
"1331",19,"warning_0",1,1,NA,35,NA,6,1
"1332",19,"warning_0",1,1,NA,36,NA,6,1
"1333",19,"warning_0",1,1,NA,37,NA,2,0
"1334",19,"warning_0",1,1,NA,38,NA,5,0
"1335",19,"warning_0",1,1,NA,39,NA,4,0
"1336",19,"warning_0",1,1,NA,40,NA,4,0
"1337",19,"warning_0",1,1,NA,41,NA,3,0
"1338",19,"warning_0",1,1,NA,42,NA,3,0
"1339",19,"warning_0",1,1,NA,43,NA,3,0
"1340",19,"warning_0",1,1,NA,44,NA,4,0
"1341",19,"warning_0",1,1,NA,45,NA,3,0
"1342",19,"warning_0",1,1,NA,46,NA,4,0
"1343",19,"warning_0",1,1,NA,47,NA,5,0
"1344",19,"warning_0",1,1,NA,48,NA,4,0
"1345",19,"warning_0",1,1,NA,49,NA,5,0
"1346",19,"warning_0",1,1,NA,50,NA,4,0
"1347",19,"warning_0",1,1,NA,51,NA,4,0
"1348",19,"warning_0",1,1,NA,52,NA,4,0
"1349",19,"warning_0",1,1,NA,53,NA,3,0
"1350",19,"warning_0",1,1,NA,54,NA,5,0
"1351",19,"warning_0",1,1,NA,55,NA,3,0
"1352",19,"warning_0",1,1,NA,56,NA,2,0
"1353",19,"warning_0",1,1,NA,57,NA,4,0
"1354",19,"warning_0",1,1,NA,58,NA,3,0
"1355",19,"warning_0",1,1,NA,59,NA,4,0
"1356",19,"warning_0",1,1,NA,60,NA,4,0
"1357",19,"warning_0",1,1,NA,61,NA,4,0
"1358",19,"warning_0",1,1,NA,62,NA,4,0
"1359",19,"warning_0",1,1,NA,63,NA,4,0
"1360",19,"warning_0",1,1,NA,64,NA,4,0
"1361",19,"warning_0",1,1,NA,65,NA,4,0
"1362",19,"warning_0",1,1,NA,66,NA,3,0
"1363",19,"warning_0",1,1,NA,67,NA,4,0
"1364",19,"warning_0",1,1,NA,68,NA,5,0
"1365",19,"warning_0",1,1,NA,69,NA,1,0
"1366",19,"warning_0",1,1,NA,70,NA,4,0
"1367",19,"warning_0",1,1,NA,71,NA,5,0
"1368",19,"warning_0",1,1,NA,72,NA,3,0
"1369",20,"warning_0",1,1,NA,1,NA,6,1
"1370",20,"warning_0",1,1,NA,2,NA,6,1
"1371",20,"warning_0",1,1,NA,3,NA,4,1
"1372",20,"warning_0",1,1,NA,4,NA,6,1
"1373",20,"warning_0",1,1,NA,5,NA,6,1
"1374",20,"warning_0",1,1,NA,6,NA,6,1
"1375",20,"warning_0",1,1,NA,7,NA,2,1
"1376",20,"warning_0",1,1,NA,8,NA,6,1
"1377",20,"warning_0",1,1,NA,9,NA,3,1
"1378",20,"warning_0",1,1,NA,10,NA,2,1
"1379",20,"warning_0",1,1,NA,11,NA,4,1
"1380",20,"warning_0",1,1,NA,12,NA,6,1
"1381",20,"warning_0",1,1,NA,13,NA,4,1
"1382",20,"warning_0",1,1,NA,14,NA,4,1
"1383",20,"warning_0",1,1,NA,15,NA,6,1
"1384",20,"warning_0",1,1,NA,16,NA,6,1
"1385",20,"warning_0",1,1,NA,17,NA,3,1
"1386",20,"warning_0",1,1,NA,18,NA,4,1
"1387",20,"warning_0",1,1,NA,19,NA,1,1
"1388",20,"warning_0",1,1,NA,20,NA,4,1
"1389",20,"warning_0",1,1,NA,21,NA,1,1
"1390",20,"warning_0",1,1,NA,22,NA,6,1
"1391",20,"warning_0",1,1,NA,23,NA,6,1
"1392",20,"warning_0",1,1,NA,24,NA,3,1
"1393",20,"warning_0",1,1,NA,25,NA,1,1
"1394",20,"warning_0",1,1,NA,26,NA,4,1
"1395",20,"warning_0",1,1,NA,27,NA,3,1
"1396",20,"warning_0",1,1,NA,28,NA,2,1
"1397",20,"warning_0",1,1,NA,29,NA,6,1
"1398",20,"warning_0",1,1,NA,30,NA,4,1
"1399",20,"warning_0",1,1,NA,31,NA,5,1
"1400",20,"warning_0",1,1,NA,32,NA,5,1
"1401",20,"warning_0",1,1,NA,33,NA,5,1
"1402",20,"warning_0",1,1,NA,34,NA,6,1
"1403",20,"warning_0",1,1,NA,35,NA,6,1
"1404",20,"warning_0",1,1,NA,36,NA,5,1
"1405",20,"warning_0",1,1,NA,37,NA,3,0
"1406",20,"warning_0",1,1,NA,38,NA,4,0
"1407",20,"warning_0",1,1,NA,39,NA,4,0
"1408",20,"warning_0",1,1,NA,40,NA,4,0
"1409",20,"warning_0",1,1,NA,41,NA,6,0
"1410",20,"warning_0",1,1,NA,42,NA,4,0
"1411",20,"warning_0",1,1,NA,43,NA,6,0
"1412",20,"warning_0",1,1,NA,44,NA,2,0
"1413",20,"warning_0",1,1,NA,45,NA,2,0
"1414",20,"warning_0",1,1,NA,46,NA,1,0
"1415",20,"warning_0",1,1,NA,47,NA,6,0
"1416",20,"warning_0",1,1,NA,48,NA,5,0
"1417",20,"warning_0",1,1,NA,49,NA,6,0
"1418",20,"warning_0",1,1,NA,50,NA,1,0
"1419",20,"warning_0",1,1,NA,51,NA,5,0
"1420",20,"warning_0",1,1,NA,52,NA,1,0
"1421",20,"warning_0",1,1,NA,53,NA,6,0
"1422",20,"warning_0",1,1,NA,54,NA,2,0
"1423",20,"warning_0",1,1,NA,55,NA,4,0
"1424",20,"warning_0",1,1,NA,56,NA,4,0
"1425",20,"warning_0",1,1,NA,57,NA,5,0
"1426",20,"warning_0",1,1,NA,58,NA,1,0
"1427",20,"warning_0",1,1,NA,59,NA,1,0
"1428",20,"warning_0",1,1,NA,60,NA,6,0
"1429",20,"warning_0",1,1,NA,61,NA,2,0
"1430",20,"warning_0",1,1,NA,62,NA,2,0
"1431",20,"warning_0",1,1,NA,63,NA,1,0
"1432",20,"warning_0",1,1,NA,64,NA,1,0
"1433",20,"warning_0",1,1,NA,65,NA,3,0
"1434",20,"warning_0",1,1,NA,66,NA,2,0
"1435",20,"warning_0",1,1,NA,67,NA,6,0
"1436",20,"warning_0",1,1,NA,68,NA,5,0
"1437",20,"warning_0",1,1,NA,69,NA,2,0
"1438",20,"warning_0",1,1,NA,70,NA,6,0
"1439",20,"warning_0",1,1,NA,71,NA,5,0
"1440",20,"warning_0",1,1,NA,72,NA,3,0
"1441",21,"warning_0",1,1,NA,1,NA,6,1
"1442",21,"warning_0",1,1,NA,2,NA,6,1
"1443",21,"warning_0",1,1,NA,3,NA,6,1
"1444",21,"warning_0",1,1,NA,4,NA,6,1
"1445",21,"warning_0",1,1,NA,5,NA,6,1
"1446",21,"warning_0",1,1,NA,6,NA,6,1
"1447",21,"warning_0",1,1,NA,7,NA,6,1
"1448",21,"warning_0",1,1,NA,8,NA,6,1
"1449",21,"warning_0",1,1,NA,9,NA,6,1
"1450",21,"warning_0",1,1,NA,10,NA,6,1
"1451",21,"warning_0",1,1,NA,11,NA,6,1
"1452",21,"warning_0",1,1,NA,12,NA,6,1
"1453",21,"warning_0",1,1,NA,13,NA,6,1
"1454",21,"warning_0",1,1,NA,14,NA,6,1
"1455",21,"warning_0",1,1,NA,15,NA,6,1
"1456",21,"warning_0",1,1,NA,16,NA,6,1
"1457",21,"warning_0",1,1,NA,17,NA,6,1
"1458",21,"warning_0",1,1,NA,18,NA,6,1
"1459",21,"warning_0",1,1,NA,19,NA,6,1
"1460",21,"warning_0",1,1,NA,20,NA,6,1
"1461",21,"warning_0",1,1,NA,21,NA,6,1
"1462",21,"warning_0",1,1,NA,22,NA,6,1
"1463",21,"warning_0",1,1,NA,23,NA,6,1
"1464",21,"warning_0",1,1,NA,24,NA,6,1
"1465",21,"warning_0",1,1,NA,25,NA,6,1
"1466",21,"warning_0",1,1,NA,26,NA,6,1
"1467",21,"warning_0",1,1,NA,27,NA,6,1
"1468",21,"warning_0",1,1,NA,28,NA,6,1
"1469",21,"warning_0",1,1,NA,29,NA,6,1
"1470",21,"warning_0",1,1,NA,30,NA,6,1
"1471",21,"warning_0",1,1,NA,31,NA,6,1
"1472",21,"warning_0",1,1,NA,32,NA,6,1
"1473",21,"warning_0",1,1,NA,33,NA,6,1
"1474",21,"warning_0",1,1,NA,34,NA,6,1
"1475",21,"warning_0",1,1,NA,35,NA,6,1
"1476",21,"warning_0",1,1,NA,36,NA,6,1
"1477",21,"warning_0",1,1,NA,37,NA,3,0
"1478",21,"warning_0",1,1,NA,38,NA,3,0
"1479",21,"warning_0",1,1,NA,39,NA,4,0
"1480",21,"warning_0",1,1,NA,40,NA,3,0
"1481",21,"warning_0",1,1,NA,41,NA,3,0
"1482",21,"warning_0",1,1,NA,42,NA,3,0
"1483",21,"warning_0",1,1,NA,43,NA,4,0
"1484",21,"warning_0",1,1,NA,44,NA,3,0
"1485",21,"warning_0",1,1,NA,45,NA,2,0
"1486",21,"warning_0",1,1,NA,46,NA,4,0
"1487",21,"warning_0",1,1,NA,47,NA,5,0
"1488",21,"warning_0",1,1,NA,48,NA,4,0
"1489",21,"warning_0",1,1,NA,49,NA,4,0
"1490",21,"warning_0",1,1,NA,50,NA,4,0
"1491",21,"warning_0",1,1,NA,51,NA,4,0
"1492",21,"warning_0",1,1,NA,52,NA,4,0
"1493",21,"warning_0",1,1,NA,53,NA,5,0
"1494",21,"warning_0",1,1,NA,54,NA,5,0
"1495",21,"warning_0",1,1,NA,55,NA,2,0
"1496",21,"warning_0",1,1,NA,56,NA,3,0
"1497",21,"warning_0",1,1,NA,57,NA,2,0
"1498",21,"warning_0",1,1,NA,58,NA,3,0
"1499",21,"warning_0",1,1,NA,59,NA,3,0
"1500",21,"warning_0",1,1,NA,60,NA,3,0
"1501",21,"warning_0",1,1,NA,61,NA,3,0
"1502",21,"warning_0",1,1,NA,62,NA,4,0
"1503",21,"warning_0",1,1,NA,63,NA,3,0
"1504",21,"warning_0",1,1,NA,64,NA,3,0
"1505",21,"warning_0",1,1,NA,65,NA,3,0
"1506",21,"warning_0",1,1,NA,66,NA,3,0
"1507",21,"warning_0",1,1,NA,67,NA,4,0
"1508",21,"warning_0",1,1,NA,68,NA,4,0
"1509",21,"warning_0",1,1,NA,69,NA,5,0
"1510",21,"warning_0",1,1,NA,70,NA,4,0
"1511",21,"warning_0",1,1,NA,71,NA,3,0
"1512",21,"warning_0",1,1,NA,72,NA,3,0
"1513",22,"warning_0",1,1,NA,1,NA,2,0
"1514",22,"warning_0",1,1,NA,2,NA,2,0
"1515",22,"warning_0",1,1,NA,3,NA,1,0
"1516",22,"warning_0",1,1,NA,4,NA,2,0
"1517",22,"warning_0",1,1,NA,5,NA,2,0
"1518",22,"warning_0",1,1,NA,6,NA,3,0
"1519",22,"warning_0",1,1,NA,7,NA,2,0
"1520",22,"warning_0",1,1,NA,8,NA,3,0
"1521",22,"warning_0",1,1,NA,9,NA,2,0
"1522",22,"warning_0",1,1,NA,10,NA,3,0
"1523",22,"warning_0",1,1,NA,11,NA,3,0
"1524",22,"warning_0",1,1,NA,12,NA,3,0
"1525",22,"warning_0",1,1,NA,13,NA,1,0
"1526",22,"warning_0",1,1,NA,14,NA,5,0
"1527",22,"warning_0",1,1,NA,15,NA,2,0
"1528",22,"warning_0",1,1,NA,16,NA,3,0
"1529",22,"warning_0",1,1,NA,17,NA,1,0
"1530",22,"warning_0",1,1,NA,18,NA,6,0
"1531",22,"warning_0",1,1,NA,19,NA,2,0
"1532",22,"warning_0",1,1,NA,20,NA,1,0
"1533",22,"warning_0",1,1,NA,21,NA,5,0
"1534",22,"warning_0",1,1,NA,22,NA,3,0
"1535",22,"warning_0",1,1,NA,23,NA,3,0
"1536",22,"warning_0",1,1,NA,24,NA,5,0
"1537",22,"warning_0",1,1,NA,25,NA,3,0
"1538",22,"warning_0",1,1,NA,26,NA,2,0
"1539",22,"warning_0",1,1,NA,27,NA,1,0
"1540",22,"warning_0",1,1,NA,28,NA,5,0
"1541",22,"warning_0",1,1,NA,29,NA,1,0
"1542",22,"warning_0",1,1,NA,30,NA,6,0
"1543",22,"warning_0",1,1,NA,31,NA,1,0
"1544",22,"warning_0",1,1,NA,32,NA,3,0
"1545",22,"warning_0",1,1,NA,33,NA,5,0
"1546",22,"warning_0",1,1,NA,34,NA,1,0
"1547",22,"warning_0",1,1,NA,35,NA,4,0
"1548",22,"warning_0",1,1,NA,36,NA,2,0
"1549",22,"warning_0",1,1,NA,37,NA,6,1
"1550",22,"warning_0",1,1,NA,38,NA,6,1
"1551",22,"warning_0",1,1,NA,39,NA,6,1
"1552",22,"warning_0",1,1,NA,40,NA,6,1
"1553",22,"warning_0",1,1,NA,41,NA,6,1
"1554",22,"warning_0",1,1,NA,42,NA,6,1
"1555",22,"warning_0",1,1,NA,43,NA,6,1
"1556",22,"warning_0",1,1,NA,44,NA,6,1
"1557",22,"warning_0",1,1,NA,45,NA,6,1
"1558",22,"warning_0",1,1,NA,46,NA,5,1
"1559",22,"warning_0",1,1,NA,47,NA,6,1
"1560",22,"warning_0",1,1,NA,48,NA,6,1
"1561",22,"warning_0",1,1,NA,49,NA,3,1
"1562",22,"warning_0",1,1,NA,50,NA,6,1
"1563",22,"warning_0",1,1,NA,51,NA,6,1
"1564",22,"warning_0",1,1,NA,52,NA,6,1
"1565",22,"warning_0",1,1,NA,53,NA,6,1
"1566",22,"warning_0",1,1,NA,54,NA,6,1
"1567",22,"warning_0",1,1,NA,55,NA,6,1
"1568",22,"warning_0",1,1,NA,56,NA,6,1
"1569",22,"warning_0",1,1,NA,57,NA,6,1
"1570",22,"warning_0",1,1,NA,58,NA,6,1
"1571",22,"warning_0",1,1,NA,59,NA,6,1
"1572",22,"warning_0",1,1,NA,60,NA,6,1
"1573",22,"warning_0",1,1,NA,61,NA,6,1
"1574",22,"warning_0",1,1,NA,62,NA,2,1
"1575",22,"warning_0",1,1,NA,63,NA,6,1
"1576",22,"warning_0",1,1,NA,64,NA,6,1
"1577",22,"warning_0",1,1,NA,65,NA,6,1
"1578",22,"warning_0",1,1,NA,66,NA,6,1
"1579",22,"warning_0",1,1,NA,67,NA,6,1
"1580",22,"warning_0",1,1,NA,68,NA,6,1
"1581",22,"warning_0",1,1,NA,69,NA,6,1
"1582",22,"warning_0",1,1,NA,70,NA,6,1
"1583",22,"warning_0",1,1,NA,71,NA,6,1
"1584",22,"warning_0",1,1,NA,72,NA,6,1
"1585",23,"warning_0",1,1,NA,1,NA,3,0
"1586",23,"warning_0",1,1,NA,2,NA,5,0
"1587",23,"warning_0",1,1,NA,3,NA,3,0
"1588",23,"warning_0",1,1,NA,4,NA,3,0
"1589",23,"warning_0",1,1,NA,5,NA,5,0
"1590",23,"warning_0",1,1,NA,6,NA,4,0
"1591",23,"warning_0",1,1,NA,7,NA,4,0
"1592",23,"warning_0",1,1,NA,8,NA,5,0
"1593",23,"warning_0",1,1,NA,9,NA,5,0
"1594",23,"warning_0",1,1,NA,10,NA,4,0
"1595",23,"warning_0",1,1,NA,11,NA,4,0
"1596",23,"warning_0",1,1,NA,12,NA,2,0
"1597",23,"warning_0",1,1,NA,13,NA,3,0
"1598",23,"warning_0",1,1,NA,14,NA,3,0
"1599",23,"warning_0",1,1,NA,15,NA,4,0
"1600",23,"warning_0",1,1,NA,16,NA,4,0
"1601",23,"warning_0",1,1,NA,17,NA,4,0
"1602",23,"warning_0",1,1,NA,18,NA,6,0
"1603",23,"warning_0",1,1,NA,19,NA,4,0
"1604",23,"warning_0",1,1,NA,20,NA,2,0
"1605",23,"warning_0",1,1,NA,21,NA,4,0
"1606",23,"warning_0",1,1,NA,22,NA,3,0
"1607",23,"warning_0",1,1,NA,23,NA,2,0
"1608",23,"warning_0",1,1,NA,24,NA,3,0
"1609",23,"warning_0",1,1,NA,25,NA,2,0
"1610",23,"warning_0",1,1,NA,26,NA,4,0
"1611",23,"warning_0",1,1,NA,27,NA,3,0
"1612",23,"warning_0",1,1,NA,28,NA,2,0
"1613",23,"warning_0",1,1,NA,29,NA,3,0
"1614",23,"warning_0",1,1,NA,30,NA,6,0
"1615",23,"warning_0",1,1,NA,31,NA,3,0
"1616",23,"warning_0",1,1,NA,32,NA,3,0
"1617",23,"warning_0",1,1,NA,33,NA,3,0
"1618",23,"warning_0",1,1,NA,34,NA,5,0
"1619",23,"warning_0",1,1,NA,35,NA,4,0
"1620",23,"warning_0",1,1,NA,36,NA,1,0
"1621",23,"warning_0",1,1,NA,37,NA,4,1
"1622",23,"warning_0",1,1,NA,38,NA,4,1
"1623",23,"warning_0",1,1,NA,39,NA,2,1
"1624",23,"warning_0",1,1,NA,40,NA,5,1
"1625",23,"warning_0",1,1,NA,41,NA,2,1
"1626",23,"warning_0",1,1,NA,42,NA,5,1
"1627",23,"warning_0",1,1,NA,43,NA,5,1
"1628",23,"warning_0",1,1,NA,44,NA,1,1
"1629",23,"warning_0",1,1,NA,45,NA,2,1
"1630",23,"warning_0",1,1,NA,46,NA,5,1
"1631",23,"warning_0",1,1,NA,47,NA,5,1
"1632",23,"warning_0",1,1,NA,48,NA,2,1
"1633",23,"warning_0",1,1,NA,49,NA,3,1
"1634",23,"warning_0",1,1,NA,50,NA,2,1
"1635",23,"warning_0",1,1,NA,51,NA,2,1
"1636",23,"warning_0",1,1,NA,52,NA,5,1
"1637",23,"warning_0",1,1,NA,53,NA,2,1
"1638",23,"warning_0",1,1,NA,54,NA,3,1
"1639",23,"warning_0",1,1,NA,55,NA,4,1
"1640",23,"warning_0",1,1,NA,56,NA,1,1
"1641",23,"warning_0",1,1,NA,57,NA,4,1
"1642",23,"warning_0",1,1,NA,58,NA,4,1
"1643",23,"warning_0",1,1,NA,59,NA,3,1
"1644",23,"warning_0",1,1,NA,60,NA,4,1
"1645",23,"warning_0",1,1,NA,61,NA,4,1
"1646",23,"warning_0",1,1,NA,62,NA,3,1
"1647",23,"warning_0",1,1,NA,63,NA,4,1
"1648",23,"warning_0",1,1,NA,64,NA,4,1
"1649",23,"warning_0",1,1,NA,65,NA,5,1
"1650",23,"warning_0",1,1,NA,66,NA,5,1
"1651",23,"warning_0",1,1,NA,67,NA,4,1
"1652",23,"warning_0",1,1,NA,68,NA,5,1
"1653",23,"warning_0",1,1,NA,69,NA,5,1
"1654",23,"warning_0",1,1,NA,70,NA,2,1
"1655",23,"warning_0",1,1,NA,71,NA,5,1
"1656",23,"warning_0",1,1,NA,72,NA,5,1
"1657",24,"warning_0",1,1,NA,1,NA,2,0
"1658",24,"warning_0",1,1,NA,2,NA,3,0
"1659",24,"warning_0",1,1,NA,3,NA,1,0
"1660",24,"warning_0",1,1,NA,4,NA,3,0
"1661",24,"warning_0",1,1,NA,5,NA,3,0
"1662",24,"warning_0",1,1,NA,6,NA,3,0
"1663",24,"warning_0",1,1,NA,7,NA,4,0
"1664",24,"warning_0",1,1,NA,8,NA,4,0
"1665",24,"warning_0",1,1,NA,9,NA,3,0
"1666",24,"warning_0",1,1,NA,10,NA,3,0
"1667",24,"warning_0",1,1,NA,11,NA,3,0
"1668",24,"warning_0",1,1,NA,12,NA,2,0
"1669",24,"warning_0",1,1,NA,13,NA,4,0
"1670",24,"warning_0",1,1,NA,14,NA,3,0
"1671",24,"warning_0",1,1,NA,15,NA,4,0
"1672",24,"warning_0",1,1,NA,16,NA,2,0
"1673",24,"warning_0",1,1,NA,17,NA,5,0
"1674",24,"warning_0",1,1,NA,18,NA,6,0
"1675",24,"warning_0",1,1,NA,19,NA,2,0
"1676",24,"warning_0",1,1,NA,20,NA,4,0
"1677",24,"warning_0",1,1,NA,21,NA,2,0
"1678",24,"warning_0",1,1,NA,22,NA,3,0
"1679",24,"warning_0",1,1,NA,23,NA,1,0
"1680",24,"warning_0",1,1,NA,24,NA,1,0
"1681",24,"warning_0",1,1,NA,25,NA,6,0
"1682",24,"warning_0",1,1,NA,26,NA,3,0
"1683",24,"warning_0",1,1,NA,27,NA,6,0
"1684",24,"warning_0",1,1,NA,28,NA,4,0
"1685",24,"warning_0",1,1,NA,29,NA,2,0
"1686",24,"warning_0",1,1,NA,30,NA,6,0
"1687",24,"warning_0",1,1,NA,31,NA,3,0
"1688",24,"warning_0",1,1,NA,32,NA,6,0
"1689",24,"warning_0",1,1,NA,33,NA,1,0
"1690",24,"warning_0",1,1,NA,34,NA,3,0
"1691",24,"warning_0",1,1,NA,35,NA,2,0
"1692",24,"warning_0",1,1,NA,36,NA,5,0
"1693",24,"warning_0",1,1,NA,37,NA,6,1
"1694",24,"warning_0",1,1,NA,38,NA,6,1
"1695",24,"warning_0",1,1,NA,39,NA,6,1
"1696",24,"warning_0",1,1,NA,40,NA,6,1
"1697",24,"warning_0",1,1,NA,41,NA,6,1
"1698",24,"warning_0",1,1,NA,42,NA,4,1
"1699",24,"warning_0",1,1,NA,43,NA,6,1
"1700",24,"warning_0",1,1,NA,44,NA,6,1
"1701",24,"warning_0",1,1,NA,45,NA,3,1
"1702",24,"warning_0",1,1,NA,46,NA,5,1
"1703",24,"warning_0",1,1,NA,47,NA,5,1
"1704",24,"warning_0",1,1,NA,48,NA,4,1
"1705",24,"warning_0",1,1,NA,49,NA,6,1
"1706",24,"warning_0",1,1,NA,50,NA,6,1
"1707",24,"warning_0",1,1,NA,51,NA,6,1
"1708",24,"warning_0",1,1,NA,52,NA,6,1
"1709",24,"warning_0",1,1,NA,53,NA,6,1
"1710",24,"warning_0",1,1,NA,54,NA,6,1
"1711",24,"warning_0",1,1,NA,55,NA,6,1
"1712",24,"warning_0",1,1,NA,56,NA,6,1
"1713",24,"warning_0",1,1,NA,57,NA,6,1
"1714",24,"warning_0",1,1,NA,58,NA,6,1
"1715",24,"warning_0",1,1,NA,59,NA,6,1
"1716",24,"warning_0",1,1,NA,60,NA,6,1
"1717",24,"warning_0",1,1,NA,61,NA,6,1
"1718",24,"warning_0",1,1,NA,62,NA,1,1
"1719",24,"warning_0",1,1,NA,63,NA,6,1
"1720",24,"warning_0",1,1,NA,64,NA,6,1
"1721",24,"warning_0",1,1,NA,65,NA,6,1
"1722",24,"warning_0",1,1,NA,66,NA,6,1
"1723",24,"warning_0",1,1,NA,67,NA,6,1
"1724",24,"warning_0",1,1,NA,68,NA,6,1
"1725",24,"warning_0",1,1,NA,69,NA,6,1
"1726",24,"warning_0",1,1,NA,70,NA,5,1
"1727",24,"warning_0",1,1,NA,71,NA,6,1
"1728",24,"warning_0",1,1,NA,72,NA,6,1
"1729",25,"warning_0",1,1,NA,1,NA,3,1
"1730",25,"warning_0",1,1,NA,2,NA,6,1
"1731",25,"warning_0",1,1,NA,3,NA,5,1
"1732",25,"warning_0",1,1,NA,4,NA,4,1
"1733",25,"warning_0",1,1,NA,5,NA,5,1
"1734",25,"warning_0",1,1,NA,6,NA,5,1
"1735",25,"warning_0",1,1,NA,7,NA,5,1
"1736",25,"warning_0",1,1,NA,8,NA,5,1
"1737",25,"warning_0",1,1,NA,9,NA,5,1
"1738",25,"warning_0",1,1,NA,10,NA,4,1
"1739",25,"warning_0",1,1,NA,11,NA,6,1
"1740",25,"warning_0",1,1,NA,12,NA,4,1
"1741",25,"warning_0",1,1,NA,13,NA,5,1
"1742",25,"warning_0",1,1,NA,14,NA,3,1
"1743",25,"warning_0",1,1,NA,15,NA,5,1
"1744",25,"warning_0",1,1,NA,16,NA,5,1
"1745",25,"warning_0",1,1,NA,17,NA,4,1
"1746",25,"warning_0",1,1,NA,18,NA,5,1
"1747",25,"warning_0",1,1,NA,19,NA,3,1
"1748",25,"warning_0",1,1,NA,20,NA,1,1
"1749",25,"warning_0",1,1,NA,21,NA,5,1
"1750",25,"warning_0",1,1,NA,22,NA,5,1
"1751",25,"warning_0",1,1,NA,23,NA,3,1
"1752",25,"warning_0",1,1,NA,24,NA,1,1
"1753",25,"warning_0",1,1,NA,25,NA,4,1
"1754",25,"warning_0",1,1,NA,26,NA,4,1
"1755",25,"warning_0",1,1,NA,27,NA,5,1
"1756",25,"warning_0",1,1,NA,28,NA,5,1
"1757",25,"warning_0",1,1,NA,29,NA,1,1
"1758",25,"warning_0",1,1,NA,30,NA,5,1
"1759",25,"warning_0",1,1,NA,31,NA,4,1
"1760",25,"warning_0",1,1,NA,32,NA,6,1
"1761",25,"warning_0",1,1,NA,33,NA,5,1
"1762",25,"warning_0",1,1,NA,34,NA,3,1
"1763",25,"warning_0",1,1,NA,35,NA,5,1
"1764",25,"warning_0",1,1,NA,36,NA,4,1
"1765",25,"warning_0",1,1,NA,37,NA,3,0
"1766",25,"warning_0",1,1,NA,38,NA,2,0
"1767",25,"warning_0",1,1,NA,39,NA,3,0
"1768",25,"warning_0",1,1,NA,40,NA,2,0
"1769",25,"warning_0",1,1,NA,41,NA,2,0
"1770",25,"warning_0",1,1,NA,42,NA,3,0
"1771",25,"warning_0",1,1,NA,43,NA,4,0
"1772",25,"warning_0",1,1,NA,44,NA,3,0
"1773",25,"warning_0",1,1,NA,45,NA,6,0
"1774",25,"warning_0",1,1,NA,46,NA,4,0
"1775",25,"warning_0",1,1,NA,47,NA,3,0
"1776",25,"warning_0",1,1,NA,48,NA,4,0
"1777",25,"warning_0",1,1,NA,49,NA,3,0
"1778",25,"warning_0",1,1,NA,50,NA,4,0
"1779",25,"warning_0",1,1,NA,51,NA,4,0
"1780",25,"warning_0",1,1,NA,52,NA,3,0
"1781",25,"warning_0",1,1,NA,53,NA,3,0
"1782",25,"warning_0",1,1,NA,54,NA,2,0
"1783",25,"warning_0",1,1,NA,55,NA,3,0
"1784",25,"warning_0",1,1,NA,56,NA,4,0
"1785",25,"warning_0",1,1,NA,57,NA,4,0
"1786",25,"warning_0",1,1,NA,58,NA,3,0
"1787",25,"warning_0",1,1,NA,59,NA,3,0
"1788",25,"warning_0",1,1,NA,60,NA,2,0
"1789",25,"warning_0",1,1,NA,61,NA,4,0
"1790",25,"warning_0",1,1,NA,62,NA,3,0
"1791",25,"warning_0",1,1,NA,63,NA,3,0
"1792",25,"warning_0",1,1,NA,64,NA,3,0
"1793",25,"warning_0",1,1,NA,65,NA,3,0
"1794",25,"warning_0",1,1,NA,66,NA,3,0
"1795",25,"warning_0",1,1,NA,67,NA,3,0
"1796",25,"warning_0",1,1,NA,68,NA,5,0
"1797",25,"warning_0",1,1,NA,69,NA,4,0
"1798",25,"warning_0",1,1,NA,70,NA,4,0
"1799",25,"warning_0",1,1,NA,71,NA,4,0
"1800",25,"warning_0",1,1,NA,72,NA,2,0
"1801",26,"warning_0",1,1,NA,1,NA,4,0
"1802",26,"warning_0",1,1,NA,2,NA,1,0
"1803",26,"warning_0",1,1,NA,3,NA,1,0
"1804",26,"warning_0",1,1,NA,4,NA,4,0
"1805",26,"warning_0",1,1,NA,5,NA,5,0
"1806",26,"warning_0",1,1,NA,6,NA,6,0
"1807",26,"warning_0",1,1,NA,7,NA,1,0
"1808",26,"warning_0",1,1,NA,8,NA,1,0
"1809",26,"warning_0",1,1,NA,9,NA,3,0
"1810",26,"warning_0",1,1,NA,10,NA,3,0
"1811",26,"warning_0",1,1,NA,11,NA,3,0
"1812",26,"warning_0",1,1,NA,12,NA,6,0
"1813",26,"warning_0",1,1,NA,13,NA,1,0
"1814",26,"warning_0",1,1,NA,14,NA,1,0
"1815",26,"warning_0",1,1,NA,15,NA,6,0
"1816",26,"warning_0",1,1,NA,16,NA,1,0
"1817",26,"warning_0",1,1,NA,17,NA,6,0
"1818",26,"warning_0",1,1,NA,18,NA,6,0
"1819",26,"warning_0",1,1,NA,19,NA,1,0
"1820",26,"warning_0",1,1,NA,20,NA,1,0
"1821",26,"warning_0",1,1,NA,21,NA,1,0
"1822",26,"warning_0",1,1,NA,22,NA,1,0
"1823",26,"warning_0",1,1,NA,23,NA,1,0
"1824",26,"warning_0",1,1,NA,24,NA,1,0
"1825",26,"warning_0",1,1,NA,25,NA,1,0
"1826",26,"warning_0",1,1,NA,26,NA,2,0
"1827",26,"warning_0",1,1,NA,27,NA,1,0
"1828",26,"warning_0",1,1,NA,28,NA,1,0
"1829",26,"warning_0",1,1,NA,29,NA,3,0
"1830",26,"warning_0",1,1,NA,30,NA,1,0
"1831",26,"warning_0",1,1,NA,31,NA,6,0
"1832",26,"warning_0",1,1,NA,32,NA,1,0
"1833",26,"warning_0",1,1,NA,33,NA,1,0
"1834",26,"warning_0",1,1,NA,34,NA,6,0
"1835",26,"warning_0",1,1,NA,35,NA,6,0
"1836",26,"warning_0",1,1,NA,36,NA,6,0
"1837",26,"warning_0",1,1,NA,37,NA,6,1
"1838",26,"warning_0",1,1,NA,38,NA,1,1
"1839",26,"warning_0",1,1,NA,39,NA,1,1
"1840",26,"warning_0",1,1,NA,40,NA,6,1
"1841",26,"warning_0",1,1,NA,41,NA,6,1
"1842",26,"warning_0",1,1,NA,42,NA,1,1
"1843",26,"warning_0",1,1,NA,43,NA,6,1
"1844",26,"warning_0",1,1,NA,44,NA,6,1
"1845",26,"warning_0",1,1,NA,45,NA,5,1
"1846",26,"warning_0",1,1,NA,46,NA,6,1
"1847",26,"warning_0",1,1,NA,47,NA,6,1
"1848",26,"warning_0",1,1,NA,48,NA,6,1
"1849",26,"warning_0",1,1,NA,49,NA,6,1
"1850",26,"warning_0",1,1,NA,50,NA,6,1
"1851",26,"warning_0",1,1,NA,51,NA,6,1
"1852",26,"warning_0",1,1,NA,52,NA,3,1
"1853",26,"warning_0",1,1,NA,53,NA,1,1
"1854",26,"warning_0",1,1,NA,54,NA,6,1
"1855",26,"warning_0",1,1,NA,55,NA,1,1
"1856",26,"warning_0",1,1,NA,56,NA,1,1
"1857",26,"warning_0",1,1,NA,57,NA,4,1
"1858",26,"warning_0",1,1,NA,58,NA,1,1
"1859",26,"warning_0",1,1,NA,59,NA,1,1
"1860",26,"warning_0",1,1,NA,60,NA,1,1
"1861",26,"warning_0",1,1,NA,61,NA,4,1
"1862",26,"warning_0",1,1,NA,62,NA,1,1
"1863",26,"warning_0",1,1,NA,63,NA,2,1
"1864",26,"warning_0",1,1,NA,64,NA,1,1
"1865",26,"warning_0",1,1,NA,65,NA,3,1
"1866",26,"warning_0",1,1,NA,66,NA,6,1
"1867",26,"warning_0",1,1,NA,67,NA,6,1
"1868",26,"warning_0",1,1,NA,68,NA,6,1
"1869",26,"warning_0",1,1,NA,69,NA,6,1
"1870",26,"warning_0",1,1,NA,70,NA,4,1
"1871",26,"warning_0",1,1,NA,71,NA,6,1
"1872",26,"warning_0",1,1,NA,72,NA,6,1
"1873",27,"warning_0",1,1,NA,1,NA,6,1
"1874",27,"warning_0",1,1,NA,2,NA,6,1
"1875",27,"warning_0",1,1,NA,3,NA,6,1
"1876",27,"warning_0",1,1,NA,4,NA,6,1
"1877",27,"warning_0",1,1,NA,5,NA,6,1
"1878",27,"warning_0",1,1,NA,6,NA,6,1
"1879",27,"warning_0",1,1,NA,7,NA,3,1
"1880",27,"warning_0",1,1,NA,8,NA,5,1
"1881",27,"warning_0",1,1,NA,9,NA,6,1
"1882",27,"warning_0",1,1,NA,10,NA,6,1
"1883",27,"warning_0",1,1,NA,11,NA,6,1
"1884",27,"warning_0",1,1,NA,12,NA,6,1
"1885",27,"warning_0",1,1,NA,13,NA,6,1
"1886",27,"warning_0",1,1,NA,14,NA,6,1
"1887",27,"warning_0",1,1,NA,15,NA,6,1
"1888",27,"warning_0",1,1,NA,16,NA,6,1
"1889",27,"warning_0",1,1,NA,17,NA,6,1
"1890",27,"warning_0",1,1,NA,18,NA,6,1
"1891",27,"warning_0",1,1,NA,19,NA,6,1
"1892",27,"warning_0",1,1,NA,20,NA,6,1
"1893",27,"warning_0",1,1,NA,21,NA,6,1
"1894",27,"warning_0",1,1,NA,22,NA,6,1
"1895",27,"warning_0",1,1,NA,23,NA,6,1
"1896",27,"warning_0",1,1,NA,24,NA,6,1
"1897",27,"warning_0",1,1,NA,25,NA,4,1
"1898",27,"warning_0",1,1,NA,26,NA,4,1
"1899",27,"warning_0",1,1,NA,27,NA,6,1
"1900",27,"warning_0",1,1,NA,28,NA,6,1
"1901",27,"warning_0",1,1,NA,29,NA,6,1
"1902",27,"warning_0",1,1,NA,30,NA,5,1
"1903",27,"warning_0",1,1,NA,31,NA,6,1
"1904",27,"warning_0",1,1,NA,32,NA,6,1
"1905",27,"warning_0",1,1,NA,33,NA,6,1
"1906",27,"warning_0",1,1,NA,34,NA,6,1
"1907",27,"warning_0",1,1,NA,35,NA,6,1
"1908",27,"warning_0",1,1,NA,36,NA,6,1
"1909",27,"warning_0",1,1,NA,37,NA,4,0
"1910",27,"warning_0",1,1,NA,38,NA,3,0
"1911",27,"warning_0",1,1,NA,39,NA,2,0
"1912",27,"warning_0",1,1,NA,40,NA,2,0
"1913",27,"warning_0",1,1,NA,41,NA,3,0
"1914",27,"warning_0",1,1,NA,42,NA,5,0
"1915",27,"warning_0",1,1,NA,43,NA,4,0
"1916",27,"warning_0",1,1,NA,44,NA,6,0
"1917",27,"warning_0",1,1,NA,45,NA,4,0
"1918",27,"warning_0",1,1,NA,46,NA,4,0
"1919",27,"warning_0",1,1,NA,47,NA,5,0
"1920",27,"warning_0",1,1,NA,48,NA,6,0
"1921",27,"warning_0",1,1,NA,49,NA,4,0
"1922",27,"warning_0",1,1,NA,50,NA,3,0
"1923",27,"warning_0",1,1,NA,51,NA,6,0
"1924",27,"warning_0",1,1,NA,52,NA,2,0
"1925",27,"warning_0",1,1,NA,53,NA,3,0
"1926",27,"warning_0",1,1,NA,54,NA,3,0
"1927",27,"warning_0",1,1,NA,55,NA,1,0
"1928",27,"warning_0",1,1,NA,56,NA,5,0
"1929",27,"warning_0",1,1,NA,57,NA,4,0
"1930",27,"warning_0",1,1,NA,58,NA,5,0
"1931",27,"warning_0",1,1,NA,59,NA,3,0
"1932",27,"warning_0",1,1,NA,60,NA,3,0
"1933",27,"warning_0",1,1,NA,61,NA,4,0
"1934",27,"warning_0",1,1,NA,62,NA,4,0
"1935",27,"warning_0",1,1,NA,63,NA,3,0
"1936",27,"warning_0",1,1,NA,64,NA,4,0
"1937",27,"warning_0",1,1,NA,65,NA,2,0
"1938",27,"warning_0",1,1,NA,66,NA,3,0
"1939",27,"warning_0",1,1,NA,67,NA,1,0
"1940",27,"warning_0",1,1,NA,68,NA,5,0
"1941",27,"warning_0",1,1,NA,69,NA,4,0
"1942",27,"warning_0",1,1,NA,70,NA,4,0
"1943",27,"warning_0",1,1,NA,71,NA,6,0
"1944",27,"warning_0",1,1,NA,72,NA,6,0
"1945",28,"warning_0",1,1,NA,1,NA,2,0
"1946",28,"warning_0",1,1,NA,2,NA,2,0
"1947",28,"warning_0",1,1,NA,3,NA,1,0
"1948",28,"warning_0",1,1,NA,4,NA,3,0
"1949",28,"warning_0",1,1,NA,5,NA,2,0
"1950",28,"warning_0",1,1,NA,6,NA,2,0
"1951",28,"warning_0",1,1,NA,7,NA,2,0
"1952",28,"warning_0",1,1,NA,8,NA,3,0
"1953",28,"warning_0",1,1,NA,9,NA,5,0
"1954",28,"warning_0",1,1,NA,10,NA,3,0
"1955",28,"warning_0",1,1,NA,11,NA,6,0
"1956",28,"warning_0",1,1,NA,12,NA,3,0
"1957",28,"warning_0",1,1,NA,13,NA,2,0
"1958",28,"warning_0",1,1,NA,14,NA,2,0
"1959",28,"warning_0",1,1,NA,15,NA,5,0
"1960",28,"warning_0",1,1,NA,16,NA,1,0
"1961",28,"warning_0",1,1,NA,17,NA,2,0
"1962",28,"warning_0",1,1,NA,18,NA,2,0
"1963",28,"warning_0",1,1,NA,19,NA,2,0
"1964",28,"warning_0",1,1,NA,20,NA,4,0
"1965",28,"warning_0",1,1,NA,21,NA,5,0
"1966",28,"warning_0",1,1,NA,22,NA,2,0
"1967",28,"warning_0",1,1,NA,23,NA,2,0
"1968",28,"warning_0",1,1,NA,24,NA,3,0
"1969",28,"warning_0",1,1,NA,25,NA,1,0
"1970",28,"warning_0",1,1,NA,26,NA,4,0
"1971",28,"warning_0",1,1,NA,27,NA,3,0
"1972",28,"warning_0",1,1,NA,28,NA,5,0
"1973",28,"warning_0",1,1,NA,29,NA,2,0
"1974",28,"warning_0",1,1,NA,30,NA,3,0
"1975",28,"warning_0",1,1,NA,31,NA,1,0
"1976",28,"warning_0",1,1,NA,32,NA,3,0
"1977",28,"warning_0",1,1,NA,33,NA,4,0
"1978",28,"warning_0",1,1,NA,34,NA,5,0
"1979",28,"warning_0",1,1,NA,35,NA,2,0
"1980",28,"warning_0",1,1,NA,36,NA,1,0
"1981",28,"warning_0",1,1,NA,37,NA,6,1
"1982",28,"warning_0",1,1,NA,38,NA,5,1
"1983",28,"warning_0",1,1,NA,39,NA,6,1
"1984",28,"warning_0",1,1,NA,40,NA,2,1
"1985",28,"warning_0",1,1,NA,41,NA,6,1
"1986",28,"warning_0",1,1,NA,42,NA,6,1
"1987",28,"warning_0",1,1,NA,43,NA,6,1
"1988",28,"warning_0",1,1,NA,44,NA,6,1
"1989",28,"warning_0",1,1,NA,45,NA,5,1
"1990",28,"warning_0",1,1,NA,46,NA,6,1
"1991",28,"warning_0",1,1,NA,47,NA,6,1
"1992",28,"warning_0",1,1,NA,48,NA,6,1
"1993",28,"warning_0",1,1,NA,49,NA,6,1
"1994",28,"warning_0",1,1,NA,50,NA,3,1
"1995",28,"warning_0",1,1,NA,51,NA,6,1
"1996",28,"warning_0",1,1,NA,52,NA,4,1
"1997",28,"warning_0",1,1,NA,53,NA,6,1
"1998",28,"warning_0",1,1,NA,54,NA,4,1
"1999",28,"warning_0",1,1,NA,55,NA,2,1
"2000",28,"warning_0",1,1,NA,56,NA,2,1
"2001",28,"warning_0",1,1,NA,57,NA,2,1
"2002",28,"warning_0",1,1,NA,58,NA,5,1
"2003",28,"warning_0",1,1,NA,59,NA,5,1
"2004",28,"warning_0",1,1,NA,60,NA,6,1
"2005",28,"warning_0",1,1,NA,61,NA,6,1
"2006",28,"warning_0",1,1,NA,62,NA,6,1
"2007",28,"warning_0",1,1,NA,63,NA,6,1
"2008",28,"warning_0",1,1,NA,64,NA,3,1
"2009",28,"warning_0",1,1,NA,65,NA,6,1
"2010",28,"warning_0",1,1,NA,66,NA,6,1
"2011",28,"warning_0",1,1,NA,67,NA,2,1
"2012",28,"warning_0",1,1,NA,68,NA,6,1
"2013",28,"warning_0",1,1,NA,69,NA,2,1
"2014",28,"warning_0",1,1,NA,70,NA,3,1
"2015",28,"warning_0",1,1,NA,71,NA,5,1
"2016",28,"warning_0",1,1,NA,72,NA,5,1
"2017",29,"warning_0",1,1,NA,1,NA,2,1
"2018",29,"warning_0",1,1,NA,2,NA,6,1
"2019",29,"warning_0",1,1,NA,3,NA,6,1
"2020",29,"warning_0",1,1,NA,4,NA,6,1
"2021",29,"warning_0",1,1,NA,5,NA,6,1
"2022",29,"warning_0",1,1,NA,6,NA,6,1
"2023",29,"warning_0",1,1,NA,7,NA,6,1
"2024",29,"warning_0",1,1,NA,8,NA,6,1
"2025",29,"warning_0",1,1,NA,9,NA,6,1
"2026",29,"warning_0",1,1,NA,10,NA,6,1
"2027",29,"warning_0",1,1,NA,11,NA,6,1
"2028",29,"warning_0",1,1,NA,12,NA,6,1
"2029",29,"warning_0",1,1,NA,13,NA,6,1
"2030",29,"warning_0",1,1,NA,14,NA,6,1
"2031",29,"warning_0",1,1,NA,15,NA,6,1
"2032",29,"warning_0",1,1,NA,16,NA,6,1
"2033",29,"warning_0",1,1,NA,17,NA,6,1
"2034",29,"warning_0",1,1,NA,18,NA,6,1
"2035",29,"warning_0",1,1,NA,19,NA,6,1
"2036",29,"warning_0",1,1,NA,20,NA,6,1
"2037",29,"warning_0",1,1,NA,21,NA,6,1
"2038",29,"warning_0",1,1,NA,22,NA,6,1
"2039",29,"warning_0",1,1,NA,23,NA,6,1
"2040",29,"warning_0",1,1,NA,24,NA,6,1
"2041",29,"warning_0",1,1,NA,25,NA,6,1
"2042",29,"warning_0",1,1,NA,26,NA,6,1
"2043",29,"warning_0",1,1,NA,27,NA,6,1
"2044",29,"warning_0",1,1,NA,28,NA,6,1
"2045",29,"warning_0",1,1,NA,29,NA,6,1
"2046",29,"warning_0",1,1,NA,30,NA,6,1
"2047",29,"warning_0",1,1,NA,31,NA,6,1
"2048",29,"warning_0",1,1,NA,32,NA,6,1
"2049",29,"warning_0",1,1,NA,33,NA,6,1
"2050",29,"warning_0",1,1,NA,34,NA,6,1
"2051",29,"warning_0",1,1,NA,35,NA,6,1
"2052",29,"warning_0",1,1,NA,36,NA,6,1
"2053",29,"warning_0",1,1,NA,37,NA,3,0
"2054",29,"warning_0",1,1,NA,38,NA,3,0
"2055",29,"warning_0",1,1,NA,39,NA,5,0
"2056",29,"warning_0",1,1,NA,40,NA,4,0
"2057",29,"warning_0",1,1,NA,41,NA,2,0
"2058",29,"warning_0",1,1,NA,42,NA,3,0
"2059",29,"warning_0",1,1,NA,43,NA,4,0
"2060",29,"warning_0",1,1,NA,44,NA,6,0
"2061",29,"warning_0",1,1,NA,45,NA,3,0
"2062",29,"warning_0",1,1,NA,46,NA,3,0
"2063",29,"warning_0",1,1,NA,47,NA,6,0
"2064",29,"warning_0",1,1,NA,48,NA,6,0
"2065",29,"warning_0",1,1,NA,49,NA,4,0
"2066",29,"warning_0",1,1,NA,50,NA,3,0
"2067",29,"warning_0",1,1,NA,51,NA,1,0
"2068",29,"warning_0",1,1,NA,52,NA,4,0
"2069",29,"warning_0",1,1,NA,53,NA,6,0
"2070",29,"warning_0",1,1,NA,54,NA,3,0
"2071",29,"warning_0",1,1,NA,55,NA,1,0
"2072",29,"warning_0",1,1,NA,56,NA,3,0
"2073",29,"warning_0",1,1,NA,57,NA,3,0
"2074",29,"warning_0",1,1,NA,58,NA,2,0
"2075",29,"warning_0",1,1,NA,59,NA,2,0
"2076",29,"warning_0",1,1,NA,60,NA,1,0
"2077",29,"warning_0",1,1,NA,61,NA,2,0
"2078",29,"warning_0",1,1,NA,62,NA,3,0
"2079",29,"warning_0",1,1,NA,63,NA,3,0
"2080",29,"warning_0",1,1,NA,64,NA,3,0
"2081",29,"warning_0",1,1,NA,65,NA,2,0
"2082",29,"warning_0",1,1,NA,66,NA,3,0
"2083",29,"warning_0",1,1,NA,67,NA,3,0
"2084",29,"warning_0",1,1,NA,68,NA,6,0
"2085",29,"warning_0",1,1,NA,69,NA,6,0
"2086",29,"warning_0",1,1,NA,70,NA,2,0
"2087",29,"warning_0",1,1,NA,71,NA,1,0
"2088",29,"warning_0",1,1,NA,72,NA,2,0
"2089",30,"warning_0",1,1,NA,1,NA,1,1
"2090",30,"warning_0",1,1,NA,2,NA,4,1
"2091",30,"warning_0",1,1,NA,3,NA,1,1
"2092",30,"warning_0",1,1,NA,4,NA,2,1
"2093",30,"warning_0",1,1,NA,5,NA,2,1
"2094",30,"warning_0",1,1,NA,6,NA,1,1
"2095",30,"warning_0",1,1,NA,7,NA,2,1
"2096",30,"warning_0",1,1,NA,8,NA,4,1
"2097",30,"warning_0",1,1,NA,9,NA,3,1
"2098",30,"warning_0",1,1,NA,10,NA,5,1
"2099",30,"warning_0",1,1,NA,11,NA,5,1
"2100",30,"warning_0",1,1,NA,12,NA,2,1
"2101",30,"warning_0",1,1,NA,13,NA,2,1
"2102",30,"warning_0",1,1,NA,14,NA,3,1
"2103",30,"warning_0",1,1,NA,15,NA,6,1
"2104",30,"warning_0",1,1,NA,16,NA,1,1
"2105",30,"warning_0",1,1,NA,17,NA,4,1
"2106",30,"warning_0",1,1,NA,18,NA,6,1
"2107",30,"warning_0",1,1,NA,19,NA,1,1
"2108",30,"warning_0",1,1,NA,20,NA,1,1
"2109",30,"warning_0",1,1,NA,21,NA,3,1
"2110",30,"warning_0",1,1,NA,22,NA,3,1
"2111",30,"warning_0",1,1,NA,23,NA,1,1
"2112",30,"warning_0",1,1,NA,24,NA,6,1
"2113",30,"warning_0",1,1,NA,25,NA,1,1
"2114",30,"warning_0",1,1,NA,26,NA,4,1
"2115",30,"warning_0",1,1,NA,27,NA,2,1
"2116",30,"warning_0",1,1,NA,28,NA,6,1
"2117",30,"warning_0",1,1,NA,29,NA,1,1
"2118",30,"warning_0",1,1,NA,30,NA,6,1
"2119",30,"warning_0",1,1,NA,31,NA,1,1
"2120",30,"warning_0",1,1,NA,32,NA,5,1
"2121",30,"warning_0",1,1,NA,33,NA,5,1
"2122",30,"warning_0",1,1,NA,34,NA,1,1
"2123",30,"warning_0",1,1,NA,35,NA,1,1
"2124",30,"warning_0",1,1,NA,36,NA,1,1
"2125",30,"warning_0",1,1,NA,37,NA,1,0
"2126",30,"warning_0",1,1,NA,38,NA,4,0
"2127",30,"warning_0",1,1,NA,39,NA,1,0
"2128",30,"warning_0",1,1,NA,40,NA,5,0
"2129",30,"warning_0",1,1,NA,41,NA,1,0
"2130",30,"warning_0",1,1,NA,42,NA,3,0
"2131",30,"warning_0",1,1,NA,43,NA,6,0
"2132",30,"warning_0",1,1,NA,44,NA,1,0
"2133",30,"warning_0",1,1,NA,45,NA,4,0
"2134",30,"warning_0",1,1,NA,46,NA,3,0
"2135",30,"warning_0",1,1,NA,47,NA,2,0
"2136",30,"warning_0",1,1,NA,48,NA,1,0
"2137",30,"warning_0",1,1,NA,49,NA,3,0
"2138",30,"warning_0",1,1,NA,50,NA,1,0
"2139",30,"warning_0",1,1,NA,51,NA,6,0
"2140",30,"warning_0",1,1,NA,52,NA,4,0
"2141",30,"warning_0",1,1,NA,53,NA,2,0
"2142",30,"warning_0",1,1,NA,54,NA,4,0
"2143",30,"warning_0",1,1,NA,55,NA,6,0
"2144",30,"warning_0",1,1,NA,56,NA,1,0
"2145",30,"warning_0",1,1,NA,57,NA,1,0
"2146",30,"warning_0",1,1,NA,58,NA,5,0
"2147",30,"warning_0",1,1,NA,59,NA,6,0
"2148",30,"warning_0",1,1,NA,60,NA,6,0
"2149",30,"warning_0",1,1,NA,61,NA,2,0
"2150",30,"warning_0",1,1,NA,62,NA,4,0
"2151",30,"warning_0",1,1,NA,63,NA,3,0
"2152",30,"warning_0",1,1,NA,64,NA,2,0
"2153",30,"warning_0",1,1,NA,65,NA,1,0
"2154",30,"warning_0",1,1,NA,66,NA,6,0
"2155",30,"warning_0",1,1,NA,67,NA,1,0
"2156",30,"warning_0",1,1,NA,68,NA,6,0
"2157",30,"warning_0",1,1,NA,69,NA,6,0
"2158",30,"warning_0",1,1,NA,70,NA,4,0
"2159",30,"warning_0",1,1,NA,71,NA,2,0
"2160",30,"warning_0",1,1,NA,72,NA,3,0
"2161",31,"warning_0",1,1,NA,1,NA,4,0
"2162",31,"warning_0",1,1,NA,2,NA,3,0
"2163",31,"warning_0",1,1,NA,3,NA,3,0
"2164",31,"warning_0",1,1,NA,4,NA,3,0
"2165",31,"warning_0",1,1,NA,5,NA,4,0
"2166",31,"warning_0",1,1,NA,6,NA,3,0
"2167",31,"warning_0",1,1,NA,7,NA,3,0
"2168",31,"warning_0",1,1,NA,8,NA,4,0
"2169",31,"warning_0",1,1,NA,9,NA,3,0
"2170",31,"warning_0",1,1,NA,10,NA,4,0
"2171",31,"warning_0",1,1,NA,11,NA,3,0
"2172",31,"warning_0",1,1,NA,12,NA,3,0
"2173",31,"warning_0",1,1,NA,13,NA,3,0
"2174",31,"warning_0",1,1,NA,14,NA,3,0
"2175",31,"warning_0",1,1,NA,15,NA,4,0
"2176",31,"warning_0",1,1,NA,16,NA,4,0
"2177",31,"warning_0",1,1,NA,17,NA,4,0
"2178",31,"warning_0",1,1,NA,18,NA,4,0
"2179",31,"warning_0",1,1,NA,19,NA,3,0
"2180",31,"warning_0",1,1,NA,20,NA,3,0
"2181",31,"warning_0",1,1,NA,21,NA,4,0
"2182",31,"warning_0",1,1,NA,22,NA,4,0
"2183",31,"warning_0",1,1,NA,23,NA,4,0
"2184",31,"warning_0",1,1,NA,24,NA,4,0
"2185",31,"warning_0",1,1,NA,25,NA,4,0
"2186",31,"warning_0",1,1,NA,26,NA,3,0
"2187",31,"warning_0",1,1,NA,27,NA,4,0
"2188",31,"warning_0",1,1,NA,28,NA,4,0
"2189",31,"warning_0",1,1,NA,29,NA,4,0
"2190",31,"warning_0",1,1,NA,30,NA,3,0
"2191",31,"warning_0",1,1,NA,31,NA,3,0
"2192",31,"warning_0",1,1,NA,32,NA,3,0
"2193",31,"warning_0",1,1,NA,33,NA,4,0
"2194",31,"warning_0",1,1,NA,34,NA,4,0
"2195",31,"warning_0",1,1,NA,35,NA,4,0
"2196",31,"warning_0",1,1,NA,36,NA,4,0
"2197",31,"warning_0",1,1,NA,37,NA,4,1
"2198",31,"warning_0",1,1,NA,38,NA,4,1
"2199",31,"warning_0",1,1,NA,39,NA,4,1
"2200",31,"warning_0",1,1,NA,40,NA,4,1
"2201",31,"warning_0",1,1,NA,41,NA,4,1
"2202",31,"warning_0",1,1,NA,42,NA,4,1
"2203",31,"warning_0",1,1,NA,43,NA,4,1
"2204",31,"warning_0",1,1,NA,44,NA,4,1
"2205",31,"warning_0",1,1,NA,45,NA,4,1
"2206",31,"warning_0",1,1,NA,46,NA,4,1
"2207",31,"warning_0",1,1,NA,47,NA,4,1
"2208",31,"warning_0",1,1,NA,48,NA,4,1
"2209",31,"warning_0",1,1,NA,49,NA,4,1
"2210",31,"warning_0",1,1,NA,50,NA,4,1
"2211",31,"warning_0",1,1,NA,51,NA,4,1
"2212",31,"warning_0",1,1,NA,52,NA,4,1
"2213",31,"warning_0",1,1,NA,53,NA,3,1
"2214",31,"warning_0",1,1,NA,54,NA,4,1
"2215",31,"warning_0",1,1,NA,55,NA,4,1
"2216",31,"warning_0",1,1,NA,56,NA,4,1
"2217",31,"warning_0",1,1,NA,57,NA,4,1
"2218",31,"warning_0",1,1,NA,58,NA,4,1
"2219",31,"warning_0",1,1,NA,59,NA,3,1
"2220",31,"warning_0",1,1,NA,60,NA,4,1
"2221",31,"warning_0",1,1,NA,61,NA,4,1
"2222",31,"warning_0",1,1,NA,62,NA,4,1
"2223",31,"warning_0",1,1,NA,63,NA,3,1
"2224",31,"warning_0",1,1,NA,64,NA,4,1
"2225",31,"warning_0",1,1,NA,65,NA,4,1
"2226",31,"warning_0",1,1,NA,66,NA,3,1
"2227",31,"warning_0",1,1,NA,67,NA,4,1
"2228",31,"warning_0",1,1,NA,68,NA,4,1
"2229",31,"warning_0",1,1,NA,69,NA,4,1
"2230",31,"warning_0",1,1,NA,70,NA,3,1
"2231",31,"warning_0",1,1,NA,71,NA,4,1
"2232",31,"warning_0",1,1,NA,72,NA,4,1
"2233",32,"warning_0",1,1,NA,1,NA,2,0
"2234",32,"warning_0",1,1,NA,2,NA,4,0
"2235",32,"warning_0",1,1,NA,3,NA,5,0
"2236",32,"warning_0",1,1,NA,4,NA,6,0
"2237",32,"warning_0",1,1,NA,5,NA,5,0
"2238",32,"warning_0",1,1,NA,6,NA,3,0
"2239",32,"warning_0",1,1,NA,7,NA,3,0
"2240",32,"warning_0",1,1,NA,8,NA,5,0
"2241",32,"warning_0",1,1,NA,9,NA,2,0
"2242",32,"warning_0",1,1,NA,10,NA,3,0
"2243",32,"warning_0",1,1,NA,11,NA,6,0
"2244",32,"warning_0",1,1,NA,12,NA,4,0
"2245",32,"warning_0",1,1,NA,13,NA,3,0
"2246",32,"warning_0",1,1,NA,14,NA,4,0
"2247",32,"warning_0",1,1,NA,15,NA,4,0
"2248",32,"warning_0",1,1,NA,16,NA,5,0
"2249",32,"warning_0",1,1,NA,17,NA,4,0
"2250",32,"warning_0",1,1,NA,18,NA,5,0
"2251",32,"warning_0",1,1,NA,19,NA,4,0
"2252",32,"warning_0",1,1,NA,20,NA,2,0
"2253",32,"warning_0",1,1,NA,21,NA,3,0
"2254",32,"warning_0",1,1,NA,22,NA,3,0
"2255",32,"warning_0",1,1,NA,23,NA,4,0
"2256",32,"warning_0",1,1,NA,24,NA,2,0
"2257",32,"warning_0",1,1,NA,25,NA,2,0
"2258",32,"warning_0",1,1,NA,26,NA,2,0
"2259",32,"warning_0",1,1,NA,27,NA,1,0
"2260",32,"warning_0",1,1,NA,28,NA,3,0
"2261",32,"warning_0",1,1,NA,29,NA,2,0
"2262",32,"warning_0",1,1,NA,30,NA,2,0
"2263",32,"warning_0",1,1,NA,31,NA,3,0
"2264",32,"warning_0",1,1,NA,32,NA,5,0
"2265",32,"warning_0",1,1,NA,33,NA,4,0
"2266",32,"warning_0",1,1,NA,34,NA,3,0
"2267",32,"warning_0",1,1,NA,35,NA,1,0
"2268",32,"warning_0",1,1,NA,36,NA,4,0
"2269",32,"warning_0",1,1,NA,37,NA,3,1
"2270",32,"warning_0",1,1,NA,38,NA,4,1
"2271",32,"warning_0",1,1,NA,39,NA,3,1
"2272",32,"warning_0",1,1,NA,40,NA,2,1
"2273",32,"warning_0",1,1,NA,41,NA,2,1
"2274",32,"warning_0",1,1,NA,42,NA,2,1
"2275",32,"warning_0",1,1,NA,43,NA,6,1
"2276",32,"warning_0",1,1,NA,44,NA,4,1
"2277",32,"warning_0",1,1,NA,45,NA,1,1
"2278",32,"warning_0",1,1,NA,46,NA,2,1
"2279",32,"warning_0",1,1,NA,47,NA,2,1
"2280",32,"warning_0",1,1,NA,48,NA,5,1
"2281",32,"warning_0",1,1,NA,49,NA,3,1
"2282",32,"warning_0",1,1,NA,50,NA,3,1
"2283",32,"warning_0",1,1,NA,51,NA,6,1
"2284",32,"warning_0",1,1,NA,52,NA,4,1
"2285",32,"warning_0",1,1,NA,53,NA,2,1
"2286",32,"warning_0",1,1,NA,54,NA,4,1
"2287",32,"warning_0",1,1,NA,55,NA,3,1
"2288",32,"warning_0",1,1,NA,56,NA,1,1
"2289",32,"warning_0",1,1,NA,57,NA,4,1
"2290",32,"warning_0",1,1,NA,58,NA,4,1
"2291",32,"warning_0",1,1,NA,59,NA,2,1
"2292",32,"warning_0",1,1,NA,60,NA,2,1
"2293",32,"warning_0",1,1,NA,61,NA,4,1
"2294",32,"warning_0",1,1,NA,62,NA,5,1
"2295",32,"warning_0",1,1,NA,63,NA,4,1
"2296",32,"warning_0",1,1,NA,64,NA,2,1
"2297",32,"warning_0",1,1,NA,65,NA,3,1
"2298",32,"warning_0",1,1,NA,66,NA,4,1
"2299",32,"warning_0",1,1,NA,67,NA,3,1
"2300",32,"warning_0",1,1,NA,68,NA,4,1
"2301",32,"warning_0",1,1,NA,69,NA,4,1
"2302",32,"warning_0",1,1,NA,70,NA,2,1
"2303",32,"warning_0",1,1,NA,71,NA,6,1
"2304",32,"warning_0",1,1,NA,72,NA,4,1
"2305",33,"warning_0",1,1,NA,1,NA,5,0
"2306",33,"warning_0",1,1,NA,2,NA,5,0
"2307",33,"warning_0",1,1,NA,3,NA,5,0
"2308",33,"warning_0",1,1,NA,4,NA,3,0
"2309",33,"warning_0",1,1,NA,5,NA,2,0
"2310",33,"warning_0",1,1,NA,6,NA,2,0
"2311",33,"warning_0",1,1,NA,7,NA,3,0
"2312",33,"warning_0",1,1,NA,8,NA,5,0
"2313",33,"warning_0",1,1,NA,9,NA,5,0
"2314",33,"warning_0",1,1,NA,10,NA,5,0
"2315",33,"warning_0",1,1,NA,11,NA,2,0
"2316",33,"warning_0",1,1,NA,12,NA,2,0
"2317",33,"warning_0",1,1,NA,13,NA,4,0
"2318",33,"warning_0",1,1,NA,14,NA,6,0
"2319",33,"warning_0",1,1,NA,15,NA,2,0
"2320",33,"warning_0",1,1,NA,16,NA,1,0
"2321",33,"warning_0",1,1,NA,17,NA,2,0
"2322",33,"warning_0",1,1,NA,18,NA,6,0
"2323",33,"warning_0",1,1,NA,19,NA,2,0
"2324",33,"warning_0",1,1,NA,20,NA,2,0
"2325",33,"warning_0",1,1,NA,21,NA,2,0
"2326",33,"warning_0",1,1,NA,22,NA,3,0
"2327",33,"warning_0",1,1,NA,23,NA,5,0
"2328",33,"warning_0",1,1,NA,24,NA,5,0
"2329",33,"warning_0",1,1,NA,25,NA,2,0
"2330",33,"warning_0",1,1,NA,26,NA,5,0
"2331",33,"warning_0",1,1,NA,27,NA,4,0
"2332",33,"warning_0",1,1,NA,28,NA,6,0
"2333",33,"warning_0",1,1,NA,29,NA,4,0
"2334",33,"warning_0",1,1,NA,30,NA,5,0
"2335",33,"warning_0",1,1,NA,31,NA,1,0
"2336",33,"warning_0",1,1,NA,32,NA,4,0
"2337",33,"warning_0",1,1,NA,33,NA,6,0
"2338",33,"warning_0",1,1,NA,34,NA,1,0
"2339",33,"warning_0",1,1,NA,35,NA,6,0
"2340",33,"warning_0",1,1,NA,36,NA,3,0
"2341",33,"warning_0",1,1,NA,37,NA,3,1
"2342",33,"warning_0",1,1,NA,38,NA,1,1
"2343",33,"warning_0",1,1,NA,39,NA,2,1
"2344",33,"warning_0",1,1,NA,40,NA,4,1
"2345",33,"warning_0",1,1,NA,41,NA,2,1
"2346",33,"warning_0",1,1,NA,42,NA,4,1
"2347",33,"warning_0",1,1,NA,43,NA,6,1
"2348",33,"warning_0",1,1,NA,44,NA,1,1
"2349",33,"warning_0",1,1,NA,45,NA,1,1
"2350",33,"warning_0",1,1,NA,46,NA,3,1
"2351",33,"warning_0",1,1,NA,47,NA,5,1
"2352",33,"warning_0",1,1,NA,48,NA,5,1
"2353",33,"warning_0",1,1,NA,49,NA,2,1
"2354",33,"warning_0",1,1,NA,50,NA,5,1
"2355",33,"warning_0",1,1,NA,51,NA,5,1
"2356",33,"warning_0",1,1,NA,52,NA,3,1
"2357",33,"warning_0",1,1,NA,53,NA,4,1
"2358",33,"warning_0",1,1,NA,54,NA,1,1
"2359",33,"warning_0",1,1,NA,55,NA,5,1
"2360",33,"warning_0",1,1,NA,56,NA,5,1
"2361",33,"warning_0",1,1,NA,57,NA,5,1
"2362",33,"warning_0",1,1,NA,58,NA,5,1
"2363",33,"warning_0",1,1,NA,59,NA,5,1
"2364",33,"warning_0",1,1,NA,60,NA,5,1
"2365",33,"warning_0",1,1,NA,61,NA,5,1
"2366",33,"warning_0",1,1,NA,62,NA,6,1
"2367",33,"warning_0",1,1,NA,63,NA,5,1
"2368",33,"warning_0",1,1,NA,64,NA,5,1
"2369",33,"warning_0",1,1,NA,65,NA,5,1
"2370",33,"warning_0",1,1,NA,66,NA,4,1
"2371",33,"warning_0",1,1,NA,67,NA,3,1
"2372",33,"warning_0",1,1,NA,68,NA,6,1
"2373",33,"warning_0",1,1,NA,69,NA,5,1
"2374",33,"warning_0",1,1,NA,70,NA,5,1
"2375",33,"warning_0",1,1,NA,71,NA,6,1
"2376",33,"warning_0",1,1,NA,72,NA,5,1
"2377",34,"warning_0",1,1,NA,1,NA,6,1
"2378",34,"warning_0",1,1,NA,2,NA,6,1
"2379",34,"warning_0",1,1,NA,3,NA,6,1
"2380",34,"warning_0",1,1,NA,4,NA,6,1
"2381",34,"warning_0",1,1,NA,5,NA,6,1
"2382",34,"warning_0",1,1,NA,6,NA,6,1
"2383",34,"warning_0",1,1,NA,7,NA,6,1
"2384",34,"warning_0",1,1,NA,8,NA,5,1
"2385",34,"warning_0",1,1,NA,9,NA,6,1
"2386",34,"warning_0",1,1,NA,10,NA,5,1
"2387",34,"warning_0",1,1,NA,11,NA,6,1
"2388",34,"warning_0",1,1,NA,12,NA,4,1
"2389",34,"warning_0",1,1,NA,13,NA,6,1
"2390",34,"warning_0",1,1,NA,14,NA,6,1
"2391",34,"warning_0",1,1,NA,15,NA,5,1
"2392",34,"warning_0",1,1,NA,16,NA,6,1
"2393",34,"warning_0",1,1,NA,17,NA,6,1
"2394",34,"warning_0",1,1,NA,18,NA,6,1
"2395",34,"warning_0",1,1,NA,19,NA,5,1
"2396",34,"warning_0",1,1,NA,20,NA,3,1
"2397",34,"warning_0",1,1,NA,21,NA,6,1
"2398",34,"warning_0",1,1,NA,22,NA,6,1
"2399",34,"warning_0",1,1,NA,23,NA,6,1
"2400",34,"warning_0",1,1,NA,24,NA,6,1
"2401",34,"warning_0",1,1,NA,25,NA,6,1
"2402",34,"warning_0",1,1,NA,26,NA,4,1
"2403",34,"warning_0",1,1,NA,27,NA,6,1
"2404",34,"warning_0",1,1,NA,28,NA,6,1
"2405",34,"warning_0",1,1,NA,29,NA,6,1
"2406",34,"warning_0",1,1,NA,30,NA,6,1
"2407",34,"warning_0",1,1,NA,31,NA,6,1
"2408",34,"warning_0",1,1,NA,32,NA,6,1
"2409",34,"warning_0",1,1,NA,33,NA,6,1
"2410",34,"warning_0",1,1,NA,34,NA,6,1
"2411",34,"warning_0",1,1,NA,35,NA,6,1
"2412",34,"warning_0",1,1,NA,36,NA,1,1
"2413",34,"warning_0",1,1,NA,37,NA,4,0
"2414",34,"warning_0",1,1,NA,38,NA,1,0
"2415",34,"warning_0",1,1,NA,39,NA,4,0
"2416",34,"warning_0",1,1,NA,40,NA,3,0
"2417",34,"warning_0",1,1,NA,41,NA,1,0
"2418",34,"warning_0",1,1,NA,42,NA,5,0
"2419",34,"warning_0",1,1,NA,43,NA,6,0
"2420",34,"warning_0",1,1,NA,44,NA,6,0
"2421",34,"warning_0",1,1,NA,45,NA,4,0
"2422",34,"warning_0",1,1,NA,46,NA,6,0
"2423",34,"warning_0",1,1,NA,47,NA,3,0
"2424",34,"warning_0",1,1,NA,48,NA,1,0
"2425",34,"warning_0",1,1,NA,49,NA,3,0
"2426",34,"warning_0",1,1,NA,50,NA,3,0
"2427",34,"warning_0",1,1,NA,51,NA,6,0
"2428",34,"warning_0",1,1,NA,52,NA,4,0
"2429",34,"warning_0",1,1,NA,53,NA,6,0
"2430",34,"warning_0",1,1,NA,54,NA,6,0
"2431",34,"warning_0",1,1,NA,55,NA,4,0
"2432",34,"warning_0",1,1,NA,56,NA,6,0
"2433",34,"warning_0",1,1,NA,57,NA,5,0
"2434",34,"warning_0",1,1,NA,58,NA,2,0
"2435",34,"warning_0",1,1,NA,59,NA,6,0
"2436",34,"warning_0",1,1,NA,60,NA,1,0
"2437",34,"warning_0",1,1,NA,61,NA,5,0
"2438",34,"warning_0",1,1,NA,62,NA,5,0
"2439",34,"warning_0",1,1,NA,63,NA,2,0
"2440",34,"warning_0",1,1,NA,64,NA,3,0
"2441",34,"warning_0",1,1,NA,65,NA,4,0
"2442",34,"warning_0",1,1,NA,66,NA,5,0
"2443",34,"warning_0",1,1,NA,67,NA,3,0
"2444",34,"warning_0",1,1,NA,68,NA,1,0
"2445",34,"warning_0",1,1,NA,69,NA,6,0
"2446",34,"warning_0",1,1,NA,70,NA,6,0
"2447",34,"warning_0",1,1,NA,71,NA,1,0
"2448",34,"warning_0",1,1,NA,72,NA,2,0
"2449",35,"warning_0",1,1,NA,1,NA,5,1
"2450",35,"warning_0",1,1,NA,2,NA,4,1
"2451",35,"warning_0",1,1,NA,3,NA,1,1
"2452",35,"warning_0",1,1,NA,4,NA,4,1
"2453",35,"warning_0",1,1,NA,5,NA,6,1
"2454",35,"warning_0",1,1,NA,6,NA,3,1
"2455",35,"warning_0",1,1,NA,7,NA,6,1
"2456",35,"warning_0",1,1,NA,8,NA,3,1
"2457",35,"warning_0",1,1,NA,9,NA,6,1
"2458",35,"warning_0",1,1,NA,10,NA,6,1
"2459",35,"warning_0",1,1,NA,11,NA,4,1
"2460",35,"warning_0",1,1,NA,12,NA,4,1
"2461",35,"warning_0",1,1,NA,13,NA,6,1
"2462",35,"warning_0",1,1,NA,14,NA,6,1
"2463",35,"warning_0",1,1,NA,15,NA,6,1
"2464",35,"warning_0",1,1,NA,16,NA,5,1
"2465",35,"warning_0",1,1,NA,17,NA,6,1
"2466",35,"warning_0",1,1,NA,18,NA,6,1
"2467",35,"warning_0",1,1,NA,19,NA,6,1
"2468",35,"warning_0",1,1,NA,20,NA,6,1
"2469",35,"warning_0",1,1,NA,21,NA,6,1
"2470",35,"warning_0",1,1,NA,22,NA,5,1
"2471",35,"warning_0",1,1,NA,23,NA,6,1
"2472",35,"warning_0",1,1,NA,24,NA,2,1
"2473",35,"warning_0",1,1,NA,25,NA,6,1
"2474",35,"warning_0",1,1,NA,26,NA,4,1
"2475",35,"warning_0",1,1,NA,27,NA,4,1
"2476",35,"warning_0",1,1,NA,28,NA,6,1
"2477",35,"warning_0",1,1,NA,29,NA,4,1
"2478",35,"warning_0",1,1,NA,30,NA,2,1
"2479",35,"warning_0",1,1,NA,31,NA,6,1
"2480",35,"warning_0",1,1,NA,32,NA,4,1
"2481",35,"warning_0",1,1,NA,33,NA,4,1
"2482",35,"warning_0",1,1,NA,34,NA,3,1
"2483",35,"warning_0",1,1,NA,35,NA,4,1
"2484",35,"warning_0",1,1,NA,36,NA,2,1
"2485",35,"warning_0",1,1,NA,37,NA,4,0
"2486",35,"warning_0",1,1,NA,38,NA,4,0
"2487",35,"warning_0",1,1,NA,39,NA,5,0
"2488",35,"warning_0",1,1,NA,40,NA,3,0
"2489",35,"warning_0",1,1,NA,41,NA,2,0
"2490",35,"warning_0",1,1,NA,42,NA,4,0
"2491",35,"warning_0",1,1,NA,43,NA,4,0
"2492",35,"warning_0",1,1,NA,44,NA,5,0
"2493",35,"warning_0",1,1,NA,45,NA,2,0
"2494",35,"warning_0",1,1,NA,46,NA,3,0
"2495",35,"warning_0",1,1,NA,47,NA,6,0
"2496",35,"warning_0",1,1,NA,48,NA,4,0
"2497",35,"warning_0",1,1,NA,49,NA,4,0
"2498",35,"warning_0",1,1,NA,50,NA,4,0
"2499",35,"warning_0",1,1,NA,51,NA,2,0
"2500",35,"warning_0",1,1,NA,52,NA,5,0
"2501",35,"warning_0",1,1,NA,53,NA,1,0
"2502",35,"warning_0",1,1,NA,54,NA,4,0
"2503",35,"warning_0",1,1,NA,55,NA,1,0
"2504",35,"warning_0",1,1,NA,56,NA,2,0
"2505",35,"warning_0",1,1,NA,57,NA,4,0
"2506",35,"warning_0",1,1,NA,58,NA,4,0
"2507",35,"warning_0",1,1,NA,59,NA,3,0
"2508",35,"warning_0",1,1,NA,60,NA,1,0
"2509",35,"warning_0",1,1,NA,61,NA,3,0
"2510",35,"warning_0",1,1,NA,62,NA,3,0
"2511",35,"warning_0",1,1,NA,63,NA,3,0
"2512",35,"warning_0",1,1,NA,64,NA,5,0
"2513",35,"warning_0",1,1,NA,65,NA,4,0
"2514",35,"warning_0",1,1,NA,66,NA,4,0
"2515",35,"warning_0",1,1,NA,67,NA,2,0
"2516",35,"warning_0",1,1,NA,68,NA,6,0
"2517",35,"warning_0",1,1,NA,69,NA,4,0
"2518",35,"warning_0",1,1,NA,70,NA,4,0
"2519",35,"warning_0",1,1,NA,71,NA,4,0
"2520",35,"warning_0",1,1,NA,72,NA,5,0
"2521",36,"warning_0",1,1,NA,1,NA,5,1
"2522",36,"warning_0",1,1,NA,2,NA,5,1
"2523",36,"warning_0",1,1,NA,3,NA,4,1
"2524",36,"warning_0",1,1,NA,4,NA,4,1
"2525",36,"warning_0",1,1,NA,5,NA,2,1
"2526",36,"warning_0",1,1,NA,6,NA,3,1
"2527",36,"warning_0",1,1,NA,7,NA,4,1
"2528",36,"warning_0",1,1,NA,8,NA,3,1
"2529",36,"warning_0",1,1,NA,9,NA,4,1
"2530",36,"warning_0",1,1,NA,10,NA,5,1
"2531",36,"warning_0",1,1,NA,11,NA,1,1
"2532",36,"warning_0",1,1,NA,12,NA,2,1
"2533",36,"warning_0",1,1,NA,13,NA,4,1
"2534",36,"warning_0",1,1,NA,14,NA,6,1
"2535",36,"warning_0",1,1,NA,15,NA,4,1
"2536",36,"warning_0",1,1,NA,16,NA,2,1
"2537",36,"warning_0",1,1,NA,17,NA,5,1
"2538",36,"warning_0",1,1,NA,18,NA,3,1
"2539",36,"warning_0",1,1,NA,19,NA,4,1
"2540",36,"warning_0",1,1,NA,20,NA,5,1
"2541",36,"warning_0",1,1,NA,21,NA,4,1
"2542",36,"warning_0",1,1,NA,22,NA,2,1
"2543",36,"warning_0",1,1,NA,23,NA,3,1
"2544",36,"warning_0",1,1,NA,24,NA,2,1
"2545",36,"warning_0",1,1,NA,25,NA,2,1
"2546",36,"warning_0",1,1,NA,26,NA,2,1
"2547",36,"warning_0",1,1,NA,27,NA,2,1
"2548",36,"warning_0",1,1,NA,28,NA,4,1
"2549",36,"warning_0",1,1,NA,29,NA,2,1
"2550",36,"warning_0",1,1,NA,30,NA,1,1
"2551",36,"warning_0",1,1,NA,31,NA,3,1
"2552",36,"warning_0",1,1,NA,32,NA,6,1
"2553",36,"warning_0",1,1,NA,33,NA,6,1
"2554",36,"warning_0",1,1,NA,34,NA,3,1
"2555",36,"warning_0",1,1,NA,35,NA,3,1
"2556",36,"warning_0",1,1,NA,36,NA,3,1
"2557",36,"warning_0",1,1,NA,37,NA,6,0
"2558",36,"warning_0",1,1,NA,38,NA,1,0
"2559",36,"warning_0",1,1,NA,39,NA,3,0
"2560",36,"warning_0",1,1,NA,40,NA,3,0
"2561",36,"warning_0",1,1,NA,41,NA,4,0
"2562",36,"warning_0",1,1,NA,42,NA,4,0
"2563",36,"warning_0",1,1,NA,43,NA,4,0
"2564",36,"warning_0",1,1,NA,44,NA,1,0
"2565",36,"warning_0",1,1,NA,45,NA,5,0
"2566",36,"warning_0",1,1,NA,46,NA,4,0
"2567",36,"warning_0",1,1,NA,47,NA,5,0
"2568",36,"warning_0",1,1,NA,48,NA,3,0
"2569",36,"warning_0",1,1,NA,49,NA,5,0
"2570",36,"warning_0",1,1,NA,50,NA,5,0
"2571",36,"warning_0",1,1,NA,51,NA,5,0
"2572",36,"warning_0",1,1,NA,52,NA,5,0
"2573",36,"warning_0",1,1,NA,53,NA,2,0
"2574",36,"warning_0",1,1,NA,54,NA,2,0
"2575",36,"warning_0",1,1,NA,55,NA,5,0
"2576",36,"warning_0",1,1,NA,56,NA,3,0
"2577",36,"warning_0",1,1,NA,57,NA,1,0
"2578",36,"warning_0",1,1,NA,58,NA,4,0
"2579",36,"warning_0",1,1,NA,59,NA,5,0
"2580",36,"warning_0",1,1,NA,60,NA,4,0
"2581",36,"warning_0",1,1,NA,61,NA,5,0
"2582",36,"warning_0",1,1,NA,62,NA,5,0
"2583",36,"warning_0",1,1,NA,63,NA,2,0
"2584",36,"warning_0",1,1,NA,64,NA,5,0
"2585",36,"warning_0",1,1,NA,65,NA,1,0
"2586",36,"warning_0",1,1,NA,66,NA,2,0
"2587",36,"warning_0",1,1,NA,67,NA,3,0
"2588",36,"warning_0",1,1,NA,68,NA,1,0
"2589",36,"warning_0",1,1,NA,69,NA,2,0
"2590",36,"warning_0",1,1,NA,70,NA,5,0
"2591",36,"warning_0",1,1,NA,71,NA,2,0
"2592",36,"warning_0",1,1,NA,72,NA,1,0
"2593",37,"warning_0",1,1,NA,1,NA,6,1
"2594",37,"warning_0",1,1,NA,2,NA,6,1
"2595",37,"warning_0",1,1,NA,3,NA,6,1
"2596",37,"warning_0",1,1,NA,4,NA,6,1
"2597",37,"warning_0",1,1,NA,5,NA,6,1
"2598",37,"warning_0",1,1,NA,6,NA,6,1
"2599",37,"warning_0",1,1,NA,7,NA,1,1
"2600",37,"warning_0",1,1,NA,8,NA,6,1
"2601",37,"warning_0",1,1,NA,9,NA,6,1
"2602",37,"warning_0",1,1,NA,10,NA,6,1
"2603",37,"warning_0",1,1,NA,11,NA,6,1
"2604",37,"warning_0",1,1,NA,12,NA,6,1
"2605",37,"warning_0",1,1,NA,13,NA,6,1
"2606",37,"warning_0",1,1,NA,14,NA,6,1
"2607",37,"warning_0",1,1,NA,15,NA,6,1
"2608",37,"warning_0",1,1,NA,16,NA,6,1
"2609",37,"warning_0",1,1,NA,17,NA,6,1
"2610",37,"warning_0",1,1,NA,18,NA,6,1
"2611",37,"warning_0",1,1,NA,19,NA,6,1
"2612",37,"warning_0",1,1,NA,20,NA,6,1
"2613",37,"warning_0",1,1,NA,21,NA,6,1
"2614",37,"warning_0",1,1,NA,22,NA,6,1
