"","subject","statement_identifier","procedure_identifier","within_identifier","between_identifier","response","repeated","rt","trial"
"1","S0001","9",1,1,1,4,0,NA,NA
"2","S0001","10",1,1,1,4,0,NA,NA
"3","S0001","11",1,1,1,5,0,NA,NA
"4","S0001","12",1,1,1,4,0,NA,NA
"5","S0001","13",1,1,1,4,0,NA,NA
"6","S0001","14",1,1,1,4,0,NA,NA
"7","S0001","15",1,1,1,4,0,NA,NA
"8","S0001","16",1,1,1,4,0,NA,NA
"9","S0001","41",1,1,1,5,1,NA,NA
"10","S0001","42",1,1,1,4,1,NA,NA
"11","S0001","43",1,1,1,4,1,NA,NA
"12","S0001","44",1,1,1,6,1,NA,NA
"13","S0001","45",1,1,1,5,1,NA,NA
"14","S0001","46",1,1,1,4,1,NA,NA
"15","S0001","47",1,1,1,4,1,NA,NA
"16","S0001","48",1,1,1,6,1,NA,NA
"17","S0001","73",1,1,1,4,0,NA,NA
"18","S0001","74",1,1,1,4,0,NA,NA
"19","S0001","75",1,1,1,4,0,NA,NA
"20","S0001","76",1,1,1,4,0,NA,NA
"21","S0001","77",1,1,1,5,0,NA,NA
"22","S0001","78",1,1,1,4,0,NA,NA
"23","S0001","79",1,1,1,4,0,NA,NA
"24","S0001","80",1,1,1,3,0,NA,NA
"25","S0001","105",1,1,1,4,1,NA,NA
"26","S0001","106",1,1,1,4,1,NA,NA
"27","S0001","107",1,1,1,4,1,NA,NA
"28","S0001","108",1,1,1,5,1,NA,NA
"29","S0001","109",1,1,1,6,1,NA,NA
"30","S0001","110",1,1,1,4,1,NA,NA
"31","S0001","111",1,1,1,5,1,NA,NA
"32","S0001","112",1,1,1,4,1,NA,NA
"33","S0001","17",2,1,1,4,0,NA,NA
"34","S0001","18",2,1,1,4,0,NA,NA
"35","S0001","19",2,1,1,4,0,NA,NA
"36","S0001","20",2,1,1,4,0,NA,NA
"37","S0001","21",2,1,1,5,0,NA,NA
"38","S0001","22",2,1,1,4,0,NA,NA
"39","S0001","23",2,1,1,4,0,NA,NA
"40","S0001","24",2,1,1,4,0,NA,NA
"41","S0001","49",2,1,1,5,1,NA,NA
"42","S0001","50",2,1,1,4,1,NA,NA
"43","S0001","51",2,1,1,5,1,NA,NA
"44","S0001","52",2,1,1,4,1,NA,NA
"45","S0001","53",2,1,1,4,1,NA,NA
"46","S0001","54",2,1,1,4,1,NA,NA
"47","S0001","55",2,1,1,6,1,NA,NA
"48","S0001","56",2,1,1,6,1,NA,NA
"49","S0001","81",2,1,1,4,0,NA,NA
"50","S0001","82",2,1,1,4,0,NA,NA
"51","S0001","83",2,1,1,3,0,NA,NA
"52","S0001","84",2,1,1,3,0,NA,NA
"53","S0001","85",2,1,1,4,0,NA,NA
"54","S0001","86",2,1,1,4,0,NA,NA
"55","S0001","87",2,1,1,4,0,NA,NA
"56","S0001","88",2,1,1,4,0,NA,NA
"57","S0001","113",2,1,1,6,1,NA,NA
"58","S0001","114",2,1,1,3,1,NA,NA
"59","S0001","115",2,1,1,4,1,NA,NA
"60","S0001","116",2,1,1,5,1,NA,NA
"61","S0001","117",2,1,1,5,1,NA,NA
"62","S0001","118",2,1,1,5,1,NA,NA
"63","S0001","119",2,1,1,4,1,NA,NA
"64","S0001","120",2,1,1,5,1,NA,NA
"65","S0001","25",3,1,1,4,0,NA,NA
"66","S0001","26",3,1,1,4,0,NA,NA
"67","S0001","27",3,1,1,4,0,NA,NA
"68","S0001","28",3,1,1,4,0,NA,NA
"69","S0001","29",3,1,1,4,0,NA,NA
"70","S0001","30",3,1,1,4,0,NA,NA
"71","S0001","31",3,1,1,4,0,NA,NA
"72","S0001","32",3,1,1,3,0,NA,NA
"73","S0001","57",3,1,1,5,1,NA,NA
"74","S0001","58",3,1,1,4,1,NA,NA
"75","S0001","59",3,1,1,5,1,NA,NA
"76","S0001","60",3,1,1,5,1,NA,NA
"77","S0001","61",3,1,1,4,1,NA,NA
"78","S0001","62",3,1,1,4,1,NA,NA
"79","S0001","63",3,1,1,4,1,NA,NA
"80","S0001","64",3,1,1,6,1,NA,NA
"81","S0001","89",3,1,1,3,0,NA,NA
"82","S0001","90",3,1,1,4,0,NA,NA
"83","S0001","91",3,1,1,5,0,NA,NA
"84","S0001","92",3,1,1,5,0,NA,NA
"85","S0001","93",3,1,1,4,0,NA,NA
"86","S0001","94",3,1,1,4,0,NA,NA
"87","S0001","95",3,1,1,4,0,NA,NA
"88","S0001","96",3,1,1,4,0,NA,NA
"89","S0001","121",3,1,1,4,1,NA,NA
"90","S0001","122",3,1,1,5,1,NA,NA
"91","S0001","123",3,1,1,5,1,NA,NA
"92","S0001","124",3,1,1,5,1,NA,NA
"93","S0001","125",3,1,1,4,1,NA,NA
"94","S0001","126",3,1,1,6,1,NA,NA
"95","S0001","127",3,1,1,4,1,NA,NA
"96","S0001","128",3,1,1,4,1,NA,NA
"97","S0001","1",4,1,1,5,1,NA,NA
"98","S0001","2",4,1,1,4,1,NA,NA
"99","S0001","3",4,1,1,4,1,NA,NA
"100","S0001","4",4,1,1,5,1,NA,NA
"101","S0001","5",4,1,1,4,1,NA,NA
"102","S0001","6",4,1,1,6,1,NA,NA
"103","S0001","7",4,1,1,5,1,NA,NA
"104","S0001","8",4,1,1,4,1,NA,NA
"105","S0001","33",4,1,1,4,0,NA,NA
"106","S0001","34",4,1,1,4,0,NA,NA
"107","S0001","35",4,1,1,4,0,NA,NA
"108","S0001","36",4,1,1,4,0,NA,NA
"109","S0001","37",4,1,1,4,0,NA,NA
"110","S0001","38",4,1,1,2,0,NA,NA
"111","S0001","39",4,1,1,5,0,NA,NA
"112","S0001","40",4,1,1,4,0,NA,NA
"113","S0001","65",4,1,1,5,1,NA,NA
"114","S0001","66",4,1,1,5,1,NA,NA
"115","S0001","67",4,1,1,5,1,NA,NA
"116","S0001","68",4,1,1,4,1,NA,NA
"117","S0001","69",4,1,1,7,1,NA,NA
"118","S0001","70",4,1,1,3,1,NA,NA
"119","S0001","71",4,1,1,4,1,NA,NA
"120","S0001","72",4,1,1,5,1,NA,NA
"121","S0001","97",4,1,1,3,0,NA,NA
"122","S0001","98",4,1,1,3,0,NA,NA
"123","S0001","99",4,1,1,2,0,NA,NA
"124","S0001","100",4,1,1,3,0,NA,NA
"125","S0001","101",4,1,1,3,0,NA,NA
"126","S0001","102",4,1,1,5,0,NA,NA
"127","S0001","103",4,1,1,4,0,NA,NA
"128","S0001","104",4,1,1,4,0,NA,NA
"129","S0002","1",1,1,1,4,1,NA,NA
"130","S0002","2",1,1,1,4,1,NA,NA
"131","S0002","3",1,1,1,4,1,NA,NA
"132","S0002","4",1,1,1,4,1,NA,NA
"133","S0002","5",1,1,1,4,1,NA,NA
"134","S0002","6",1,1,1,4,1,NA,NA
"135","S0002","7",1,1,1,4,1,NA,NA
"136","S0002","8",1,1,1,4,1,NA,NA
"137","S0002","33",1,1,1,4,0,NA,NA
"138","S0002","34",1,1,1,4,0,NA,NA
"139","S0002","35",1,1,1,4,0,NA,NA
"140","S0002","36",1,1,1,4,0,NA,NA
"141","S0002","37",1,1,1,4,0,NA,NA
"142","S0002","38",1,1,1,4,0,NA,NA
"143","S0002","39",1,1,1,4,0,NA,NA
"144","S0002","40",1,1,1,5,0,NA,NA
"145","S0002","65",1,1,1,4,1,NA,NA
"146","S0002","66",1,1,1,5,1,NA,NA
"147","S0002","67",1,1,1,4,1,NA,NA
"148","S0002","68",1,1,1,4,1,NA,NA
"149","S0002","69",1,1,1,4,1,NA,NA
"150","S0002","70",1,1,1,4,1,NA,NA
"151","S0002","71",1,1,1,4,1,NA,NA
"152","S0002","72",1,1,1,4,1,NA,NA
"153","S0002","97",1,1,1,4,0,NA,NA
"154","S0002","98",1,1,1,4,0,NA,NA
"155","S0002","99",1,1,1,4,0,NA,NA
"156","S0002","100",1,1,1,3,0,NA,NA
"157","S0002","101",1,1,1,4,0,NA,NA
"158","S0002","102",1,1,1,4,0,NA,NA
"159","S0002","103",1,1,1,4,0,NA,NA
"160","S0002","104",1,1,1,4,0,NA,NA
"161","S0002","9",2,1,1,4,1,NA,NA
"162","S0002","10",2,1,1,4,1,NA,NA
"163","S0002","11",2,1,1,4,1,NA,NA
"164","S0002","12",2,1,1,4,1,NA,NA
"165","S0002","13",2,1,1,4,1,NA,NA
"166","S0002","14",2,1,1,4,1,NA,NA
"167","S0002","15",2,1,1,4,1,NA,NA
"168","S0002","16",2,1,1,5,1,NA,NA
"169","S0002","41",2,1,1,4,0,NA,NA
"170","S0002","42",2,1,1,3,0,NA,NA
"171","S0002","43",2,1,1,4,0,NA,NA
"172","S0002","44",2,1,1,4,0,NA,NA
"173","S0002","45",2,1,1,4,0,NA,NA
"174","S0002","46",2,1,1,4,0,NA,NA
"175","S0002","47",2,1,1,4,0,NA,NA
"176","S0002","48",2,1,1,4,0,NA,NA
"177","S0002","73",2,1,1,4,1,NA,NA
"178","S0002","74",2,1,1,4,1,NA,NA
"179","S0002","75",2,1,1,4,1,NA,NA
"180","S0002","76",2,1,1,4,1,NA,NA
"181","S0002","77",2,1,1,4,1,NA,NA
"182","S0002","78",2,1,1,4,1,NA,NA
"183","S0002","79",2,1,1,4,1,NA,NA
"184","S0002","80",2,1,1,4,1,NA,NA
"185","S0002","105",2,1,1,4,0,NA,NA
"186","S0002","106",2,1,1,4,0,NA,NA
"187","S0002","107",2,1,1,4,0,NA,NA
"188","S0002","108",2,1,1,4,0,NA,NA
"189","S0002","109",2,1,1,4,0,NA,NA
"190","S0002","110",2,1,1,4,0,NA,NA
"191","S0002","111",2,1,1,4,0,NA,NA
"192","S0002","112",2,1,1,4,0,NA,NA
"193","S0002","17",3,1,1,4,1,NA,NA
"194","S0002","18",3,1,1,4,1,NA,NA
"195","S0002","19",3,1,1,4,1,NA,NA
"196","S0002","20",3,1,1,4,1,NA,NA
"197","S0002","21",3,1,1,4,1,NA,NA
"198","S0002","22",3,1,1,4,1,NA,NA
"199","S0002","23",3,1,1,4,1,NA,NA
"200","S0002","24",3,1,1,4,1,NA,NA
"201","S0002","49",3,1,1,4,0,NA,NA
"202","S0002","50",3,1,1,4,0,NA,NA
"203","S0002","51",3,1,1,4,0,NA,NA
"204","S0002","52",3,1,1,4,0,NA,NA
"205","S0002","53",3,1,1,4,0,NA,NA
"206","S0002","54",3,1,1,4,0,NA,NA
"207","S0002","55",3,1,1,4,0,NA,NA
"208","S0002","56",3,1,1,4,0,NA,NA
"209","S0002","81",3,1,1,4,1,NA,NA
"210","S0002","82",3,1,1,4,1,NA,NA
"211","S0002","83",3,1,1,4,1,NA,NA
"212","S0002","84",3,1,1,5,1,NA,NA
"213","S0002","85",3,1,1,4,1,NA,NA
"214","S0002","86",3,1,1,4,1,NA,NA
"215","S0002","87",3,1,1,4,1,NA,NA
"216","S0002","88",3,1,1,4,1,NA,NA
"217","S0002","113",3,1,1,4,0,NA,NA
"218","S0002","114",3,1,1,4,0,NA,NA
"219","S0002","115",3,1,1,4,0,NA,NA
"220","S0002","116",3,1,1,4,0,NA,NA
"221","S0002","117",3,1,1,4,0,NA,NA
"222","S0002","118",3,1,1,4,0,NA,NA
"223","S0002","119",3,1,1,4,0,NA,NA
"224","S0002","120",3,1,1,4,0,NA,NA
"225","S0002","25",4,1,1,4,1,NA,NA
"226","S0002","26",4,1,1,4,1,NA,NA
"227","S0002","27",4,1,1,4,1,NA,NA
"228","S0002","28",4,1,1,4,1,NA,NA
"229","S0002","29",4,1,1,4,1,NA,NA
"230","S0002","30",4,1,1,4,1,NA,NA
"231","S0002","31",4,1,1,5,1,NA,NA
"232","S0002","32",4,1,1,4,1,NA,NA
"233","S0002","57",4,1,1,4,0,NA,NA
"234","S0002","58",4,1,1,4,0,NA,NA
"235","S0002","59",4,1,1,3,0,NA,NA
"236","S0002","60",4,1,1,4,0,NA,NA
"237","S0002","61",4,1,1,4,0,NA,NA
"238","S0002","62",4,1,1,4,0,NA,NA
"239","S0002","63",4,1,1,4,0,NA,NA
"240","S0002","64",4,1,1,4,0,NA,NA
"241","S0002","89",4,1,1,4,1,NA,NA
"242","S0002","90",4,1,1,5,1,NA,NA
"243","S0002","91",4,1,1,4,1,NA,NA
"244","S0002","92",4,1,1,4,1,NA,NA
"245","S0002","93",4,1,1,4,1,NA,NA
"246","S0002","94",4,1,1,4,1,NA,NA
"247","S0002","95",4,1,1,4,1,NA,NA
"248","S0002","96",4,1,1,4,1,NA,NA
"249","S0002","121",4,1,1,4,0,NA,NA
"250","S0002","122",4,1,1,4,0,NA,NA
"251","S0002","123",4,1,1,4,0,NA,NA
"252","S0002","124",4,1,1,5,0,NA,NA
"253","S0002","125",4,1,1,4,0,NA,NA
"254","S0002","126",4,1,1,4,0,NA,NA
"255","S0002","127",4,1,1,4,0,NA,NA
"256","S0002","128",4,1,1,4,0,NA,NA
"257","S0003","1",1,1,1,6,1,NA,NA
"258","S0003","2",1,1,1,6,1,NA,NA
"259","S0003","3",1,1,1,6,1,NA,NA
"260","S0003","4",1,1,1,6,1,NA,NA
"261","S0003","5",1,1,1,6,1,NA,NA
"262","S0003","6",1,1,1,6,1,NA,NA
"263","S0003","7",1,1,1,6,1,NA,NA
"264","S0003","8",1,1,1,6,1,NA,NA
"265","S0003","33",1,1,1,3,0,NA,NA
"266","S0003","34",1,1,1,6,0,NA,NA
"267","S0003","35",1,1,1,4,0,NA,NA
"268","S0003","36",1,1,1,4,0,NA,NA
"269","S0003","37",1,1,1,4,0,NA,NA
"270","S0003","38",1,1,1,4,0,NA,NA
"271","S0003","39",1,1,1,4,0,NA,NA
"272","S0003","40",1,1,1,4,0,NA,NA
"273","S0003","65",1,1,1,6,1,NA,NA
"274","S0003","66",1,1,1,7,1,NA,NA
"275","S0003","67",1,1,1,6,1,NA,NA
"276","S0003","68",1,1,1,6,1,NA,NA
"277","S0003","69",1,1,1,6,1,NA,NA
"278","S0003","70",1,1,1,6,1,NA,NA
"279","S0003","71",1,1,1,6,1,NA,NA
"280","S0003","72",1,1,1,6,1,NA,NA
"281","S0003","97",1,1,1,3,0,NA,NA
"282","S0003","98",1,1,1,5,0,NA,NA
"283","S0003","99",1,1,1,4,0,NA,NA
"284","S0003","100",1,1,1,4,0,NA,NA
"285","S0003","101",1,1,1,4,0,NA,NA
"286","S0003","102",1,1,1,6,0,NA,NA
"287","S0003","103",1,1,1,5,0,NA,NA
"288","S0003","104",1,1,1,4,0,NA,NA
"289","S0003","9",2,1,1,5,1,NA,NA
"290","S0003","10",2,1,1,5,1,NA,NA
"291","S0003","11",2,1,1,5,1,NA,NA
"292","S0003","12",2,1,1,5,1,NA,NA
"293","S0003","13",2,1,1,5,1,NA,NA
"294","S0003","14",2,1,1,4,1,NA,NA
"295","S0003","15",2,1,1,5,1,NA,NA
"296","S0003","16",2,1,1,7,1,NA,NA
"297","S0003","41",2,1,1,5,0,NA,NA
"298","S0003","42",2,1,1,3,0,NA,NA
"299","S0003","43",2,1,1,5,0,NA,NA
"300","S0003","44",2,1,1,4,0,NA,NA
"301","S0003","45",2,1,1,4,0,NA,NA
"302","S0003","46",2,1,1,4,0,NA,NA
"303","S0003","47",2,1,1,5,0,NA,NA
"304","S0003","48",2,1,1,4,0,NA,NA
"305","S0003","73",2,1,1,5,1,NA,NA
"306","S0003","74",2,1,1,6,1,NA,NA
"307","S0003","75",2,1,1,5,1,NA,NA
"308","S0003","76",2,1,1,6,1,NA,NA
"309","S0003","77",2,1,1,6,1,NA,NA
"310","S0003","78",2,1,1,6,1,NA,NA
"311","S0003","79",2,1,1,5,1,NA,NA
"312","S0003","80",2,1,1,6,1,NA,NA
"313","S0003","105",2,1,1,3,0,NA,NA
"314","S0003","106",2,1,1,3,0,NA,NA
"315","S0003","107",2,1,1,4,0,NA,NA
"316","S0003","108",2,1,1,4,0,NA,NA
"317","S0003","109",2,1,1,3,0,NA,NA
"318","S0003","110",2,1,1,5,0,NA,NA
"319","S0003","111",2,1,1,4,0,NA,NA
"320","S0003","112",2,1,1,4,0,NA,NA
"321","S0003","17",3,1,1,4,1,NA,NA
"322","S0003","18",3,1,1,4,1,NA,NA
"323","S0003","19",3,1,1,4,1,NA,NA
"324","S0003","20",3,1,1,5,1,NA,NA
"325","S0003","21",3,1,1,6,1,NA,NA
"326","S0003","22",3,1,1,4,1,NA,NA
"327","S0003","23",3,1,1,4,1,NA,NA
"328","S0003","24",3,1,1,4,1,NA,NA
"329","S0003","49",3,1,1,5,0,NA,NA
"330","S0003","50",3,1,1,5,0,NA,NA
"331","S0003","51",3,1,1,2,0,NA,NA
"332","S0003","52",3,1,1,5,0,NA,NA
"333","S0003","53",3,1,1,4,0,NA,NA
"334","S0003","54",3,1,1,6,0,NA,NA
"335","S0003","55",3,1,1,5,0,NA,NA
"336","S0003","56",3,1,1,6,0,NA,NA
"337","S0003","81",3,1,1,4,1,NA,NA
"338","S0003","82",3,1,1,5,1,NA,NA
"339","S0003","83",3,1,1,4,1,NA,NA
"340","S0003","84",3,1,1,6,1,NA,NA
"341","S0003","85",3,1,1,5,1,NA,NA
"342","S0003","86",3,1,1,6,1,NA,NA
"343","S0003","87",3,1,1,5,1,NA,NA
"344","S0003","88",3,1,1,3,1,NA,NA
"345","S0003","113",3,1,1,5,0,NA,NA
"346","S0003","114",3,1,1,4,0,NA,NA
"347","S0003","115",3,1,1,6,0,NA,NA
"348","S0003","116",3,1,1,6,0,NA,NA
"349","S0003","117",3,1,1,5,0,NA,NA
"350","S0003","118",3,1,1,4,0,NA,NA
"351","S0003","119",3,1,1,4,0,NA,NA
"352","S0003","120",3,1,1,6,0,NA,NA
"353","S0003","25",4,1,1,4,1,NA,NA
"354","S0003","26",4,1,1,3,1,NA,NA
"355","S0003","27",4,1,1,4,1,NA,NA
"356","S0003","28",4,1,1,5,1,NA,NA
"357","S0003","29",4,1,1,6,1,NA,NA
"358","S0003","30",4,1,1,4,1,NA,NA
"359","S0003","31",4,1,1,5,1,NA,NA
"360","S0003","32",4,1,1,3,1,NA,NA
"361","S0003","57",4,1,1,4,0,NA,NA
"362","S0003","58",4,1,1,4,0,NA,NA
"363","S0003","59",4,1,1,2,0,NA,NA
"364","S0003","60",4,1,1,4,0,NA,NA
"365","S0003","61",4,1,1,2,0,NA,NA
"366","S0003","62",4,1,1,4,0,NA,NA
"367","S0003","63",4,1,1,4,0,NA,NA
"368","S0003","64",4,1,1,4,0,NA,NA
"369","S0003","89",4,1,1,4,1,NA,NA
"370","S0003","90",4,1,1,5,1,NA,NA
"371","S0003","91",4,1,1,5,1,NA,NA
"372","S0003","92",4,1,1,4,1,NA,NA
"373","S0003","93",4,1,1,4,1,NA,NA
"374","S0003","94",4,1,1,4,1,NA,NA
"375","S0003","95",4,1,1,4,1,NA,NA
"376","S0003","96",4,1,1,5,1,NA,NA
"377","S0003","121",4,1,1,4,0,NA,NA
"378","S0003","122",4,1,1,4,0,NA,NA
"379","S0003","123",4,1,1,5,0,NA,NA
"380","S0003","124",4,1,1,5,0,NA,NA
"381","S0003","125",4,1,1,4,0,NA,NA
"382","S0003","126",4,1,1,3,0,NA,NA
"383","S0003","127",4,1,1,5,0,NA,NA
"384","S0003","128",4,1,1,3,0,NA,NA
"385","S0004","9",1,1,1,7,0,NA,NA
"386","S0004","10",1,1,1,4,0,NA,NA
"387","S0004","11",1,1,1,4,0,NA,NA
"388","S0004","12",1,1,1,4,0,NA,NA
"389","S0004","13",1,1,1,7,0,NA,NA
"390","S0004","14",1,1,1,4,0,NA,NA
"391","S0004","15",1,1,1,7,0,NA,NA
"392","S0004","16",1,1,1,4,0,NA,NA
"393","S0004","41",1,1,1,7,1,NA,NA
"394","S0004","42",1,1,1,7,1,NA,NA
"395","S0004","43",1,1,1,5,1,NA,NA
"396","S0004","44",1,1,1,5,1,NA,NA
"397","S0004","45",1,1,1,3,1,NA,NA
"398","S0004","46",1,1,1,4,1,NA,NA
"399","S0004","47",1,1,1,4,1,NA,NA
"400","S0004","48",1,1,1,3,1,NA,NA
"401","S0004","73",1,1,1,2,0,NA,NA
"402","S0004","74",1,1,1,4,0,NA,NA
"403","S0004","75",1,1,1,5,0,NA,NA
"404","S0004","76",1,1,1,6,0,NA,NA
"405","S0004","77",1,1,1,5,0,NA,NA
"406","S0004","78",1,1,1,3,0,NA,NA
"407","S0004","79",1,1,1,4,0,NA,NA
"408","S0004","80",1,1,1,2,0,NA,NA
"409","S0004","105",1,1,1,2,1,NA,NA
"410","S0004","106",1,1,1,7,1,NA,NA
"411","S0004","107",1,1,1,4,1,NA,NA
"412","S0004","108",1,1,1,7,1,NA,NA
"413","S0004","109",1,1,1,5,1,NA,NA
"414","S0004","110",1,1,1,6,1,NA,NA
"415","S0004","111",1,1,1,4,1,NA,NA
"416","S0004","112",1,1,1,5,1,NA,NA
"417","S0004","17",2,1,1,4,0,NA,NA
"418","S0004","18",2,1,1,4,0,NA,NA
"419","S0004","19",2,1,1,4,0,NA,NA
"420","S0004","20",2,1,1,4,0,NA,NA
"421","S0004","21",2,1,1,6,0,NA,NA
"422","S0004","22",2,1,1,2,0,NA,NA
"423","S0004","23",2,1,1,3,0,NA,NA
"424","S0004","24",2,1,1,5,0,NA,NA
"425","S0004","49",2,1,1,5,1,NA,NA
"426","S0004","50",2,1,1,1,1,NA,NA
"427","S0004","51",2,1,1,6,1,NA,NA
"428","S0004","52",2,1,1,4,1,NA,NA
"429","S0004","53",2,1,1,4,1,NA,NA
"430","S0004","54",2,1,1,3,1,NA,NA
"431","S0004","55",2,1,1,4,1,NA,NA
"432","S0004","56",2,1,1,3,1,NA,NA
"433","S0004","81",2,1,1,4,0,NA,NA
"434","S0004","82",2,1,1,4,0,NA,NA
"435","S0004","83",2,1,1,4,0,NA,NA
"436","S0004","84",2,1,1,4,0,NA,NA
"437","S0004","85",2,1,1,2,0,NA,NA
"438","S0004","86",2,1,1,2,0,NA,NA
"439","S0004","87",2,1,1,4,0,NA,NA
"440","S0004","88",2,1,1,4,0,NA,NA
"441","S0004","113",2,1,1,4,1,NA,NA
"442","S0004","114",2,1,1,3,1,NA,NA
"443","S0004","115",2,1,1,3,1,NA,NA
"444","S0004","116",2,1,1,4,1,NA,NA
"445","S0004","117",2,1,1,3,1,NA,NA
"446","S0004","118",2,1,1,3,1,NA,NA
"447","S0004","119",2,1,1,3,1,NA,NA
"448","S0004","120",2,1,1,6,1,NA,NA
"449","S0004","25",3,1,1,3,0,NA,NA
"450","S0004","26",3,1,1,3,0,NA,NA
"451","S0004","27",3,1,1,4,0,NA,NA
"452","S0004","28",3,1,1,7,0,NA,NA
"453","S0004","29",3,1,1,5,0,NA,NA
"454","S0004","30",3,1,1,6,0,NA,NA
"455","S0004","31",3,1,1,7,0,NA,NA
"456","S0004","32",3,1,1,4,0,NA,NA
"457","S0004","57",3,1,1,4,1,NA,NA
"458","S0004","58",3,1,1,7,1,NA,NA
"459","S0004","59",3,1,1,6,1,NA,NA
"460","S0004","60",3,1,1,3,1,NA,NA
"461","S0004","61",3,1,1,4,1,NA,NA
"462","S0004","62",3,1,1,5,1,NA,NA
"463","S0004","63",3,1,1,3,1,NA,NA
"464","S0004","64",3,1,1,4,1,NA,NA
"465","S0004","89",3,1,1,4,0,NA,NA
"466","S0004","90",3,1,1,4,0,NA,NA
"467","S0004","91",3,1,1,4,0,NA,NA
"468","S0004","92",3,1,1,3,0,NA,NA
"469","S0004","93",3,1,1,2,0,NA,NA
"470","S0004","94",3,1,1,4,0,NA,NA
"471","S0004","95",3,1,1,4,0,NA,NA
"472","S0004","96",3,1,1,4,0,NA,NA
"473","S0004","121",3,1,1,2,1,NA,NA
"474","S0004","122",3,1,1,5,1,NA,NA
"475","S0004","123",3,1,1,7,1,NA,NA
"476","S0004","124",3,1,1,6,1,NA,NA
"477","S0004","125",3,1,1,4,1,NA,NA
"478","S0004","126",3,1,1,4,1,NA,NA
"479","S0004","127",3,1,1,5,1,NA,NA
"480","S0004","128",3,1,1,6,1,NA,NA
"481","S0004","1",4,1,1,6,1,NA,NA
"482","S0004","2",4,1,1,4,1,NA,NA
"483","S0004","3",4,1,1,4,1,NA,NA
"484","S0004","4",4,1,1,4,1,NA,NA
"485","S0004","5",4,1,1,7,1,NA,NA
"486","S0004","6",4,1,1,6,1,NA,NA
"487","S0004","7",4,1,1,3,1,NA,NA
"488","S0004","8",4,1,1,4,1,NA,NA
"489","S0004","33",4,1,1,5,0,NA,NA
"490","S0004","34",4,1,1,3,0,NA,NA
"491","S0004","35",4,1,1,4,0,NA,NA
"492","S0004","36",4,1,1,4,0,NA,NA
"493","S0004","37",4,1,1,5,0,NA,NA
"494","S0004","38",4,1,1,3,0,NA,NA
"495","S0004","39",4,1,1,4,0,NA,NA
"496","S0004","40",4,1,1,7,0,NA,NA
"497","S0004","65",4,1,1,5,1,NA,NA
"498","S0004","66",4,1,1,5,1,NA,NA
"499","S0004","67",4,1,1,4,1,NA,NA
"500","S0004","68",4,1,1,5,1,NA,NA
"501","S0004","69",4,1,1,4,1,NA,NA
"502","S0004","70",4,1,1,5,1,NA,NA
"503","S0004","71",4,1,1,6,1,NA,NA
"504","S0004","72",4,1,1,4,1,NA,NA
"505","S0004","97",4,1,1,2,0,NA,NA
"506","S0004","98",4,1,1,4,0,NA,NA
"507","S0004","99",4,1,1,4,0,NA,NA
"508","S0004","100",4,1,1,2,0,NA,NA
"509","S0004","101",4,1,1,4,0,NA,NA
"510","S0004","102",4,1,1,4,0,NA,NA
"511","S0004","103",4,1,1,4,0,NA,NA
"512","S0004","104",4,1,1,4,0,NA,NA
"513","S0006","25",1,1,1,6,0,NA,NA
"514","S0006","26",1,1,1,5,0,NA,NA
"515","S0006","27",1,1,1,4,0,NA,NA
"516","S0006","28",1,1,1,3,0,NA,NA
"517","S0006","29",1,1,1,5,0,NA,NA
"518","S0006","30",1,1,1,6,0,NA,NA
"519","S0006","31",1,1,1,2,0,NA,NA
"520","S0006","32",1,1,1,4,0,NA,NA
"521","S0006","57",1,1,1,3,1,NA,NA
"522","S0006","58",1,1,1,4,1,NA,NA
"523","S0006","59",1,1,1,6,1,NA,NA
"524","S0006","60",1,1,1,5,1,NA,NA
"525","S0006","61",1,1,1,1,1,NA,NA
"526","S0006","62",1,1,1,3,1,NA,NA
"527","S0006","63",1,1,1,5,1,NA,NA
"528","S0006","64",1,1,1,5,1,NA,NA
"529","S0006","89",1,1,1,2,0,NA,NA
"530","S0006","90",1,1,1,4,0,NA,NA
"531","S0006","91",1,1,1,6,0,NA,NA
"532","S0006","92",1,1,1,3,0,NA,NA
"533","S0006","93",1,1,1,3,0,NA,NA
"534","S0006","94",1,1,1,5,0,NA,NA
"535","S0006","95",1,1,1,7,0,NA,NA
"536","S0006","96",1,1,1,3,0,NA,NA
"537","S0006","121",1,1,1,5,1,NA,NA
"538","S0006","122",1,1,1,7,1,NA,NA
"539","S0006","123",1,1,1,6,1,NA,NA
"540","S0006","124",1,1,1,7,1,NA,NA
"541","S0006","125",1,1,1,2,1,NA,NA
"542","S0006","126",1,1,1,2,1,NA,NA
"543","S0006","127",1,1,1,6,1,NA,NA
"544","S0006","128",1,1,1,3,1,NA,NA
"545","S0007","17",1,1,1,7,1,NA,NA
"546","S0007","18",1,1,1,6,1,NA,NA
"547","S0007","19",1,1,1,5,1,NA,NA
"548","S0007","20",1,1,1,6,1,NA,NA
"549","S0007","21",1,1,1,7,1,NA,NA
"550","S0007","22",1,1,1,7,1,NA,NA
"551","S0007","23",1,1,1,6,1,NA,NA
"552","S0007","24",1,1,1,5,1,NA,NA
"553","S0007","49",1,1,1,4,0,NA,NA
"554","S0007","50",1,1,1,4,0,NA,NA
"555","S0007","51",1,1,1,3,0,NA,NA
"556","S0007","52",1,1,1,5,0,NA,NA
"557","S0007","53",1,1,1,3,0,NA,NA
"558","S0007","54",1,1,1,5,0,NA,NA
"559","S0007","55",1,1,1,6,0,NA,NA
"560","S0007","56",1,1,1,5,0,NA,NA
"561","S0007","81",1,1,1,5,1,NA,NA
"562","S0007","82",1,1,1,6,1,NA,NA
"563","S0007","83",1,1,1,7,1,NA,NA
"564","S0007","84",1,1,1,7,1,NA,NA
"565","S0007","85",1,1,1,7,1,NA,NA
"566","S0007","86",1,1,1,7,1,NA,NA
"567","S0007","87",1,1,1,6,1,NA,NA
"568","S0007","88",1,1,1,6,1,NA,NA
"569","S0007","113",1,1,1,4,0,NA,NA
"570","S0007","114",1,1,1,4,0,NA,NA
"571","S0007","115",1,1,1,4,0,NA,NA
"572","S0007","116",1,1,1,1,0,NA,NA
"573","S0007","117",1,1,1,4,0,NA,NA
"574","S0007","118",1,1,1,4,0,NA,NA
"575","S0007","119",1,1,1,5,0,NA,NA
"576","S0007","120",1,1,1,4,0,NA,NA
"577","S0007","25",2,1,1,5,1,NA,NA
"578","S0007","26",2,1,1,5,1,NA,NA
"579","S0007","27",2,1,1,6,1,NA,NA
"580","S0007","28",2,1,1,2,1,NA,NA
"581","S0007","29",2,1,1,5,1,NA,NA
"582","S0007","30",2,1,1,5,1,NA,NA
"583","S0007","31",2,1,1,6,1,NA,NA
"584","S0007","32",2,1,1,5,1,NA,NA
"585","S0007","57",2,1,1,5,0,NA,NA
"586","S0007","58",2,1,1,4,0,NA,NA
"587","S0007","59",2,1,1,2,0,NA,NA
"588","S0007","60",2,1,1,4,0,NA,NA
"589","S0007","61",2,1,1,6,0,NA,NA
"590","S0007","62",2,1,1,5,0,NA,NA
"591","S0007","63",2,1,1,4,0,NA,NA
"592","S0007","64",2,1,1,4,0,NA,NA
"593","S0007","89",2,1,1,4,1,NA,NA
"594","S0007","90",2,1,1,6,1,NA,NA
"595","S0007","91",2,1,1,6,1,NA,NA
"596","S0007","92",2,1,1,4,1,NA,NA
"597","S0007","93",2,1,1,5,1,NA,NA
"598","S0007","94",2,1,1,4,1,NA,NA
"599","S0007","95",2,1,1,5,1,NA,NA
"600","S0007","96",2,1,1,7,1,NA,NA
"601","S0007","121",2,1,1,4,0,NA,NA
"602","S0007","122",2,1,1,4,0,NA,NA
"603","S0007","123",2,1,1,4,0,NA,NA
"604","S0007","124",2,1,1,5,0,NA,NA
"605","S0007","125",2,1,1,5,0,NA,NA
"606","S0007","126",2,1,1,3,0,NA,NA
"607","S0007","127",2,1,1,5,0,NA,NA
"608","S0007","128",2,1,1,4,0,NA,NA
"609","S0007","1",3,1,1,5,0,NA,NA
"610","S0007","2",3,1,1,4,0,NA,NA
"611","S0007","3",3,1,1,5,0,NA,NA
"612","S0007","4",3,1,1,5,0,NA,NA
"613","S0007","5",3,1,1,4,0,NA,NA
"614","S0007","6",3,1,1,2,0,NA,NA
"615","S0007","7",3,1,1,4,0,NA,NA
"616","S0007","8",3,1,1,4,0,NA,NA
"617","S0007","33",3,1,1,5,1,NA,NA
"618","S0007","34",3,1,1,4,1,NA,NA
"619","S0007","35",3,1,1,4,1,NA,NA
"620","S0007","36",3,1,1,4,1,NA,NA
"621","S0007","37",3,1,1,4,1,NA,NA
"622","S0007","38",3,1,1,6,1,NA,NA
"623","S0007","39",3,1,1,6,1,NA,NA
"624","S0007","40",3,1,1,4,1,NA,NA
"625","S0007","65",3,1,1,4,0,NA,NA
"626","S0007","66",3,1,1,5,0,NA,NA
"627","S0007","67",3,1,1,4,0,NA,NA
"628","S0007","68",3,1,1,4,0,NA,NA
"629","S0007","69",3,1,1,7,0,NA,NA
"630","S0007","70",3,1,1,4,0,NA,NA
"631","S0007","71",3,1,1,5,0,NA,NA
"632","S0007","72",3,1,1,4,0,NA,NA
"633","S0007","97",3,1,1,5,1,NA,NA
"634","S0007","98",3,1,1,6,1,NA,NA
"635","S0007","99",3,1,1,4,1,NA,NA
"636","S0007","100",3,1,1,4,1,NA,NA
"637","S0007","101",3,1,1,4,1,NA,NA
"638","S0007","102",3,1,1,5,1,NA,NA
"639","S0007","103",3,1,1,5,1,NA,NA
"640","S0007","104",3,1,1,5,1,NA,NA
"641","S0007","9",4,1,1,5,0,NA,NA
"642","S0007","10",4,1,1,4,0,NA,NA
"643","S0007","11",4,1,1,5,0,NA,NA
"644","S0007","12",4,1,1,5,0,NA,NA
"645","S0007","13",4,1,1,5,0,NA,NA
"646","S0007","14",4,1,1,4,0,NA,NA
"647","S0007","15",4,1,1,6,0,NA,NA
"648","S0007","16",4,1,1,5,0,NA,NA
"649","S0007","41",4,1,1,4,1,NA,NA
"650","S0007","42",4,1,1,6,1,NA,NA
"651","S0007","43",4,1,1,5,1,NA,NA
"652","S0007","44",4,1,1,6,1,NA,NA
"653","S0007","45",4,1,1,4,1,NA,NA
"654","S0007","46",4,1,1,5,1,NA,NA
"655","S0007","47",4,1,1,5,1,NA,NA
"656","S0007","48",4,1,1,4,1,NA,NA
"657","S0007","73",4,1,1,5,0,NA,NA
"658","S0007","74",4,1,1,5,0,NA,NA
"659","S0007","75",4,1,1,5,0,NA,NA
"660","S0007","76",4,1,1,5,0,NA,NA
"661","S0007","77",4,1,1,5,0,NA,NA
"662","S0007","78",4,1,1,5,0,NA,NA
"663","S0007","79",4,1,1,4,0,NA,NA
"664","S0007","80",4,1,1,3,0,NA,NA
"665","S0007","105",4,1,1,4,1,NA,NA
"666","S0007","106",4,1,1,5,1,NA,NA
"667","S0007","107",4,1,1,5,1,NA,NA
"668","S0007","108",4,1,1,5,1,NA,NA
"669","S0007","109",4,1,1,6,1,NA,NA
"670","S0007","110",4,1,1,4,1,NA,NA
"671","S0007","111",4,1,1,5,1,NA,NA
"672","S0007","112",4,1,1,4,1,NA,NA
"673","S0008","9",1,1,1,5,0,NA,NA
"674","S0008","10",1,1,1,4,0,NA,NA
"675","S0008","11",1,1,1,4,0,NA,NA
"676","S0008","12",1,1,1,6,0,NA,NA
"677","S0008","13",1,1,1,3,0,NA,NA
"678","S0008","14",1,1,1,4,0,NA,NA
"679","S0008","15",1,1,1,5,0,NA,NA
"680","S0008","16",1,1,1,6,0,NA,NA
"681","S0008","41",1,1,1,6,1,NA,NA
"682","S0008","42",1,1,1,3,1,NA,NA
"683","S0008","43",1,1,1,5,1,NA,NA
"684","S0008","44",1,1,1,5,1,NA,NA
"685","S0008","45",1,1,1,4,1,NA,NA
"686","S0008","46",1,1,1,6,1,NA,NA
"687","S0008","47",1,1,1,2,1,NA,NA
"688","S0008","48",1,1,1,3,1,NA,NA
"689","S0008","73",1,1,1,6,0,NA,NA
"690","S0008","74",1,1,1,5,0,NA,NA
"691","S0008","75",1,1,1,3,0,NA,NA
"692","S0008","76",1,1,1,3,0,NA,NA
"693","S0008","77",1,1,1,2,0,NA,NA
"694","S0008","78",1,1,1,5,0,NA,NA
"695","S0008","79",1,1,1,6,0,NA,NA
"696","S0008","80",1,1,1,7,0,NA,NA
"697","S0008","105",1,1,1,6,1,NA,NA
"698","S0008","106",1,1,1,4,1,NA,NA
"699","S0008","107",1,1,1,5,1,NA,NA
"700","S0008","108",1,1,1,5,1,NA,NA
"701","S0008","109",1,1,1,7,1,NA,NA
"702","S0008","110",1,1,1,7,1,NA,NA
"703","S0008","111",1,1,1,3,1,NA,NA
"704","S0008","112",1,1,1,5,1,NA,NA
"705","S0008","17",2,1,1,2,0,NA,NA
"706","S0008","18",2,1,1,6,0,NA,NA
"707","S0008","19",2,1,1,6,0,NA,NA
"708","S0008","20",2,1,1,5,0,NA,NA
"709","S0008","21",2,1,1,6,0,NA,NA
"710","S0008","22",2,1,1,3,0,NA,NA
"711","S0008","23",2,1,1,6,0,NA,NA
"712","S0008","24",2,1,1,3,0,NA,NA
"713","S0008","49",2,1,1,2,1,NA,NA
"714","S0008","50",2,1,1,5,1,NA,NA
"715","S0008","51",2,1,1,5,1,NA,NA
"716","S0008","52",2,1,1,5,1,NA,NA
"717","S0008","53",2,1,1,4,1,NA,NA
"718","S0008","54",2,1,1,7,1,NA,NA
"719","S0008","55",2,1,1,5,1,NA,NA
"720","S0008","56",2,1,1,6,1,NA,NA
"721","S0008","81",2,1,1,3,0,NA,NA
"722","S0008","82",2,1,1,6,0,NA,NA
"723","S0008","83",2,1,1,2,0,NA,NA
"724","S0008","84",2,1,1,5,0,NA,NA
"725","S0008","85",2,1,1,3,0,NA,NA
"726","S0008","86",2,1,1,4,0,NA,NA
"727","S0008","87",2,1,1,6,0,NA,NA
"728","S0008","88",2,1,1,5,0,NA,NA
"729","S0008","113",2,1,1,6,1,NA,NA
"730","S0008","114",2,1,1,4,1,NA,NA
"731","S0008","115",2,1,1,4,1,NA,NA
"732","S0008","116",2,1,1,4,1,NA,NA
"733","S0008","117",2,1,1,4,1,NA,NA
"734","S0008","118",2,1,1,6,1,NA,NA
"735","S0008","119",2,1,1,6,1,NA,NA
"736","S0008","120",2,1,1,6,1,NA,NA
"737","S0008","25",3,1,1,4,0,NA,NA
"738","S0008","26",3,1,1,3,0,NA,NA
"739","S0008","27",3,1,1,4,0,NA,NA
"740","S0008","28",3,1,1,5,0,NA,NA
"741","S0008","29",3,1,1,3,0,NA,NA
"742","S0008","30",3,1,1,5,0,NA,NA
"743","S0008","31",3,1,1,2,0,NA,NA
"744","S0008","32",3,1,1,5,0,NA,NA
"745","S0008","57",3,1,1,3,1,NA,NA
"746","S0008","58",3,1,1,5,1,NA,NA
"747","S0008","59",3,1,1,6,1,NA,NA
"748","S0008","60",3,1,1,3,1,NA,NA
"749","S0008","61",3,1,1,4,1,NA,NA
"750","S0008","62",3,1,1,3,1,NA,NA
"751","S0008","63",3,1,1,5,1,NA,NA
"752","S0008","64",3,1,1,5,1,NA,NA
"753","S0008","89",3,1,1,5,0,NA,NA
"754","S0008","90",3,1,1,4,0,NA,NA
"755","S0008","91",3,1,1,6,0,NA,NA
"756","S0008","92",3,1,1,6,0,NA,NA
"757","S0008","93",3,1,1,5,0,NA,NA
"758","S0008","94",3,1,1,4,0,NA,NA
"759","S0008","95",3,1,1,5,0,NA,NA
"760","S0008","96",3,1,1,4,0,NA,NA
"761","S0008","121",3,1,1,3,1,NA,NA
"762","S0008","122",3,1,1,6,1,NA,NA
"763","S0008","123",3,1,1,6,1,NA,NA
"764","S0008","124",3,1,1,5,1,NA,NA
"765","S0008","125",3,1,1,3,1,NA,NA
"766","S0008","126",3,1,1,6,1,NA,NA
"767","S0008","127",3,1,1,5,1,NA,NA
"768","S0008","128",3,1,1,2,1,NA,NA
"769","S0008","1",4,1,1,2,1,NA,NA
"770","S0008","2",4,1,1,4,1,NA,NA
"771","S0008","3",4,1,1,3,1,NA,NA
"772","S0008","4",4,1,1,5,1,NA,NA
"773","S0008","5",4,1,1,4,1,NA,NA
"774","S0008","6",4,1,1,6,1,NA,NA
"775","S0008","7",4,1,1,5,1,NA,NA
"776","S0008","8",4,1,1,5,1,NA,NA
"777","S0008","33",4,1,1,5,0,NA,NA
"778","S0008","34",4,1,1,3,0,NA,NA
"779","S0008","35",4,1,1,4,0,NA,NA
"780","S0008","36",4,1,1,5,0,NA,NA
"781","S0008","37",4,1,1,5,0,NA,NA
"782","S0008","38",4,1,1,5,0,NA,NA
"783","S0008","39",4,1,1,5,0,NA,NA
"784","S0008","40",4,1,1,4,0,NA,NA
"785","S0008","65",4,1,1,5,1,NA,NA
"786","S0008","66",4,1,1,6,1,NA,NA
"787","S0008","67",4,1,1,2,1,NA,NA
"788","S0008","68",4,1,1,5,1,NA,NA
"789","S0008","69",4,1,1,6,1,NA,NA
"790","S0008","70",4,1,1,4,1,NA,NA
"791","S0008","71",4,1,1,4,1,NA,NA
"792","S0008","72",4,1,1,3,1,NA,NA
"793","S0008","97",4,1,1,4,0,NA,NA
"794","S0008","98",4,1,1,3,0,NA,NA
"795","S0008","99",4,1,1,5,0,NA,NA
"796","S0008","100",4,1,1,5,0,NA,NA
"797","S0008","101",4,1,1,4,0,NA,NA
"798","S0008","102",4,1,1,3,0,NA,NA
"799","S0008","103",4,1,1,2,0,NA,NA
"800","S0008","104",4,1,1,4,0,NA,NA
"801","S0009","9",1,1,1,5,1,NA,NA
"802","S0009","10",1,1,1,4,1,NA,NA
"803","S0009","11",1,1,1,5,1,NA,NA
"804","S0009","12",1,1,1,6,1,NA,NA
"805","S0009","13",1,1,1,5,1,NA,NA
"806","S0009","14",1,1,1,4,1,NA,NA
"807","S0009","15",1,1,1,1,1,NA,NA
"808","S0009","16",1,1,1,7,1,NA,NA
"809","S0009","41",1,1,1,5,0,NA,NA
"810","S0009","42",1,1,1,2,0,NA,NA
"811","S0009","43",1,1,1,4,0,NA,NA
"812","S0009","44",1,1,1,4,0,NA,NA
"813","S0009","45",1,1,1,4,0,NA,NA
"814","S0009","46",1,1,1,4,0,NA,NA
"815","S0009","47",1,1,1,4,0,NA,NA
"816","S0009","48",1,1,1,1,0,NA,NA
"817","S0009","73",1,1,1,4,1,NA,NA
"818","S0009","74",1,1,1,4,1,NA,NA
"819","S0009","75",1,1,1,4,1,NA,NA
"820","S0009","76",1,1,1,5,1,NA,NA
"821","S0009","77",1,1,1,4,1,NA,NA
"822","S0009","78",1,1,1,5,1,NA,NA
"823","S0009","79",1,1,1,5,1,NA,NA
"824","S0009","80",1,1,1,6,1,NA,NA
"825","S0009","105",1,1,1,5,0,NA,NA
"826","S0009","106",1,1,1,1,0,NA,NA
"827","S0009","107",1,1,1,4,0,NA,NA
"828","S0009","108",1,1,1,3,0,NA,NA
"829","S0009","109",1,1,1,1,0,NA,NA
"830","S0009","110",1,1,1,5,0,NA,NA
"831","S0009","111",1,1,1,4,0,NA,NA
"832","S0009","112",1,1,1,4,0,NA,NA
"833","S0009","17",2,1,1,4,1,NA,NA
"834","S0009","18",2,1,1,4,1,NA,NA
"835","S0009","19",2,1,1,4,1,NA,NA
"836","S0009","20",2,1,1,4,1,NA,NA
"837","S0009","21",2,1,1,4,1,NA,NA
"838","S0009","22",2,1,1,4,1,NA,NA
"839","S0009","23",2,1,1,4,1,NA,NA
"840","S0009","24",2,1,1,4,1,NA,NA
"841","S0009","49",2,1,1,4,0,NA,NA
"842","S0009","50",2,1,1,4,0,NA,NA
"843","S0009","51",2,1,1,4,0,NA,NA
"844","S0009","52",2,1,1,4,0,NA,NA
"845","S0009","53",2,1,1,4,0,NA,NA
"846","S0009","54",2,1,1,4,0,NA,NA
"847","S0009","55",2,1,1,4,0,NA,NA
"848","S0009","56",2,1,1,4,0,NA,NA
"849","S0009","81",2,1,1,4,1,NA,NA
"850","S0009","82",2,1,1,4,1,NA,NA
"851","S0009","83",2,1,1,5,1,NA,NA
"852","S0009","84",2,1,1,7,1,NA,NA
"853","S0009","85",2,1,1,4,1,NA,NA
"854","S0009","86",2,1,1,7,1,NA,NA
"855","S0009","87",2,1,1,4,1,NA,NA
"856","S0009","88",2,1,1,7,1,NA,NA
"857","S0009","113",2,1,1,2,0,NA,NA
"858","S0009","114",2,1,1,4,0,NA,NA
"859","S0009","115",2,1,1,4,0,NA,NA
"860","S0009","116",2,1,1,4,0,NA,NA
"861","S0009","117",2,1,1,7,0,NA,NA
"862","S0009","118",2,1,1,4,0,NA,NA
"863","S0009","119",2,1,1,7,0,NA,NA
"864","S0009","120",2,1,1,7,0,NA,NA
"865","S0009","25",3,1,1,4,1,NA,NA
"866","S0009","26",3,1,1,5,1,NA,NA
"867","S0009","27",3,1,1,6,1,NA,NA
"868","S0009","28",3,1,1,7,1,NA,NA
"869","S0009","29",3,1,1,4,1,NA,NA
"870","S0009","30",3,1,1,5,1,NA,NA
"871","S0009","31",3,1,1,5,1,NA,NA
"872","S0009","32",3,1,1,4,1,NA,NA
"873","S0009","57",3,1,1,4,0,NA,NA
"874","S0009","58",3,1,1,4,0,NA,NA
"875","S0009","59",3,1,1,5,0,NA,NA
"876","S0009","60",3,1,1,4,0,NA,NA
"877","S0009","61",3,1,1,7,0,NA,NA
"878","S0009","62",3,1,1,4,0,NA,NA
"879","S0009","63",3,1,1,4,0,NA,NA
"880","S0009","64",3,1,1,5,0,NA,NA
"881","S0009","89",3,1,1,5,1,NA,NA
"882","S0009","90",3,1,1,4,1,NA,NA
"883","S0009","91",3,1,1,4,1,NA,NA
"884","S0009","92",3,1,1,5,1,NA,NA
"885","S0009","93",3,1,1,4,1,NA,NA
"886","S0009","94",3,1,1,4,1,NA,NA
"887","S0009","95",3,1,1,4,1,NA,NA
"888","S0009","96",3,1,1,5,1,NA,NA
"889","S0009","121",3,1,1,4,0,NA,NA
"890","S0009","122",3,1,1,4,0,NA,NA
"891","S0009","123",3,1,1,4,0,NA,NA
"892","S0009","124",3,1,1,4,0,NA,NA
"893","S0009","125",3,1,1,4,0,NA,NA
"894","S0009","126",3,1,1,4,0,NA,NA
"895","S0009","127",3,1,1,5,0,NA,NA
"896","S0009","128",3,1,1,1,0,NA,NA
"897","S0009","1",4,1,1,4,0,NA,NA
"898","S0009","2",4,1,1,4,0,NA,NA
"899","S0009","3",4,1,1,4,0,NA,NA
"900","S0009","4",4,1,1,4,0,NA,NA
"901","S0009","5",4,1,1,4,0,NA,NA
"902","S0009","6",4,1,1,4,0,NA,NA
"903","S0009","7",4,1,1,4,0,NA,NA
"904","S0009","8",4,1,1,4,0,NA,NA
"905","S0009","33",4,1,1,4,1,NA,NA
"906","S0009","34",4,1,1,4,1,NA,NA
"907","S0009","35",4,1,1,4,1,NA,NA
"908","S0009","36",4,1,1,4,1,NA,NA
"909","S0009","37",4,1,1,4,1,NA,NA
"910","S0009","38",4,1,1,7,1,NA,NA
"911","S0009","39",4,1,1,4,1,NA,NA
"912","S0009","40",4,1,1,7,1,NA,NA
"913","S0009","65",4,1,1,4,0,NA,NA
"914","S0009","66",4,1,1,4,0,NA,NA
"915","S0009","67",4,1,1,4,0,NA,NA
"916","S0009","68",4,1,1,5,0,NA,NA
"917","S0009","69",4,1,1,4,0,NA,NA
"918","S0009","70",4,1,1,4,0,NA,NA
"919","S0009","71",4,1,1,4,0,NA,NA
"920","S0009","72",4,1,1,4,0,NA,NA
"921","S0009","97",4,1,1,4,1,NA,NA
"922","S0009","98",4,1,1,4,1,NA,NA
"923","S0009","99",4,1,1,4,1,NA,NA
"924","S0009","100",4,1,1,4,1,NA,NA
"925","S0009","101",4,1,1,4,1,NA,NA
"926","S0009","102",4,1,1,4,1,NA,NA
"927","S0009","103",4,1,1,4,1,NA,NA
"928","S0009","104",4,1,1,4,1,NA,NA
"929","S0010","1",1,1,1,2,0,NA,NA
"930","S0010","2",1,1,1,5,0,NA,NA
"931","S0010","3",1,1,1,4,0,NA,NA
"932","S0010","4",1,1,1,5,0,NA,NA
"933","S0010","5",1,1,1,2,0,NA,NA
"934","S0010","6",1,1,1,7,0,NA,NA
"935","S0010","7",1,1,1,3,0,NA,NA
"936","S0010","8",1,1,1,4,0,NA,NA
"937","S0010","33",1,1,1,2,1,NA,NA
"938","S0010","34",1,1,1,6,1,NA,NA
"939","S0010","35",1,1,1,5,1,NA,NA
"940","S0010","36",1,1,1,3,1,NA,NA
"941","S0010","37",1,1,1,4,1,NA,NA
"942","S0010","38",1,1,1,2,1,NA,NA
"943","S0010","39",1,1,1,5,1,NA,NA
"944","S0010","40",1,1,1,5,1,NA,NA
"945","S0010","65",1,1,1,5,0,NA,NA
"946","S0010","66",1,1,1,5,0,NA,NA
"947","S0010","67",1,1,1,2,0,NA,NA
"948","S0010","68",1,1,1,3,0,NA,NA
"949","S0010","69",1,1,1,2,0,NA,NA
"950","S0010","70",1,1,1,2,0,NA,NA
"951","S0010","71",1,1,1,5,0,NA,NA
"952","S0010","72",1,1,1,4,0,NA,NA
"953","S0010","97",1,1,1,4,1,NA,NA
"954","S0010","98",1,1,1,6,1,NA,NA
"955","S0010","99",1,1,1,3,1,NA,NA
"956","S0010","100",1,1,1,5,1,NA,NA
"957","S0010","101",1,1,1,5,1,NA,NA
"958","S0010","102",1,1,1,7,1,NA,NA
"959","S0010","103",1,1,1,2,1,NA,NA
"960","S0010","104",1,1,1,5,1,NA,NA
"961","S0010","9",2,1,1,5,0,NA,NA
"962","S0010","10",2,1,1,4,0,NA,NA
"963","S0010","11",2,1,1,5,0,NA,NA
"964","S0010","12",2,1,1,5,0,NA,NA
"965","S0010","13",2,1,1,3,0,NA,NA
"966","S0010","14",2,1,1,3,0,NA,NA
"967","S0010","15",2,1,1,5,0,NA,NA
"968","S0010","16",2,1,1,5,0,NA,NA
"969","S0010","41",2,1,1,3,1,NA,NA
"970","S0010","42",2,1,1,3,1,NA,NA
"971","S0010","43",2,1,1,5,1,NA,NA
"972","S0010","44",2,1,1,5,1,NA,NA
"973","S0010","45",2,1,1,5,1,NA,NA
"974","S0010","46",2,1,1,5,1,NA,NA
"975","S0010","47",2,1,1,5,1,NA,NA
"976","S0010","48",2,1,1,5,1,NA,NA
"977","S0010","73",2,1,1,3,0,NA,NA
"978","S0010","74",2,1,1,3,0,NA,NA
"979","S0010","75",2,1,1,3,0,NA,NA
"980","S0010","76",2,1,1,2,0,NA,NA
"981","S0010","77",2,1,1,6,0,NA,NA
"982","S0010","78",2,1,1,3,0,NA,NA
"983","S0010","79",2,1,1,2,0,NA,NA
"984","S0010","80",2,1,1,2,0,NA,NA
"985","S0010","105",2,1,1,5,1,NA,NA
"986","S0010","106",2,1,1,5,1,NA,NA
"987","S0010","107",2,1,1,2,1,NA,NA
"988","S0010","108",2,1,1,5,1,NA,NA
"989","S0010","109",2,1,1,6,1,NA,NA
"990","S0010","110",2,1,1,4,1,NA,NA
"991","S0010","111",2,1,1,5,1,NA,NA
"992","S0010","112",2,1,1,4,1,NA,NA
"993","S0010","17",3,1,1,3,0,NA,NA
"994","S0010","18",3,1,1,4,0,NA,NA
"995","S0010","19",3,1,1,6,0,NA,NA
"996","S0010","20",3,1,1,5,0,NA,NA
"997","S0010","21",3,1,1,3,0,NA,NA
"998","S0010","22",3,1,1,3,0,NA,NA
"999","S0010","23",3,1,1,3,0,NA,NA
"1000","S0010","24",3,1,1,2,0,NA,NA
"1001","S0010","49",3,1,1,5,1,NA,NA
"1002","S0010","50",3,1,1,3,1,NA,NA
"1003","S0010","51",3,1,1,5,1,NA,NA
"1004","S0010","52",3,1,1,5,1,NA,NA
"1005","S0010","53",3,1,1,5,1,NA,NA
"1006","S0010","54",3,1,1,3,1,NA,NA
"1007","S0010","55",3,1,1,4,1,NA,NA
"1008","S0010","56",3,1,1,6,1,NA,NA
"1009","S0010","81",3,1,1,5,0,NA,NA
"1010","S0010","82",3,1,1,5,0,NA,NA
"1011","S0010","83",3,1,1,5,0,NA,NA
"1012","S0010","84",3,1,1,3,0,NA,NA
"1013","S0010","85",3,1,1,5,0,NA,NA
"1014","S0010","86",3,1,1,4,0,NA,NA
"1015","S0010","87",3,1,1,5,0,NA,NA
"1016","S0010","88",3,1,1,4,0,NA,NA
"1017","S0010","113",3,1,1,3,1,NA,NA
"1018","S0010","114",3,1,1,6,1,NA,NA
"1019","S0010","115",3,1,1,7,1,NA,NA
"1020","S0010","116",3,1,1,4,1,NA,NA
"1021","S0010","117",3,1,1,6,1,NA,NA
"1022","S0010","118",3,1,1,5,1,NA,NA
"1023","S0010","119",3,1,1,6,1,NA,NA
"1024","S0010","120",3,1,1,2,1,NA,NA
"1025","S0010","25",4,1,1,4,0,NA,NA
"1026","S0010","26",4,1,1,1,0,NA,NA
"1027","S0010","27",4,1,1,5,0,NA,NA
"1028","S0010","28",4,1,1,6,0,NA,NA
"1029","S0010","29",4,1,1,3,0,NA,NA
"1030","S0010","30",4,1,1,6,0,NA,NA
"1031","S0010","31",4,1,1,3,0,NA,NA
"1032","S0010","32",4,1,1,5,0,NA,NA
"1033","S0010","57",4,1,1,5,1,NA,NA
"1034","S0010","58",4,1,1,5,1,NA,NA
"1035","S0010","59",4,1,1,5,1,NA,NA
"1036","S0010","60",4,1,1,4,1,NA,NA
"1037","S0010","61",4,1,1,5,1,NA,NA
"1038","S0010","62",4,1,1,5,1,NA,NA
"1039","S0010","63",4,1,1,3,1,NA,NA
"1040","S0010","64",4,1,1,3,1,NA,NA
"1041","S0010","89",4,1,1,5,0,NA,NA
"1042","S0010","90",4,1,1,5,0,NA,NA
"1043","S0010","91",4,1,1,3,0,NA,NA
"1044","S0010","92",4,1,1,3,0,NA,NA
"1045","S0010","93",4,1,1,3,0,NA,NA
"1046","S0010","94",4,1,1,3,0,NA,NA
"1047","S0010","95",4,1,1,3,0,NA,NA
"1048","S0010","96",4,1,1,5,0,NA,NA
"1049","S0010","121",4,1,1,2,1,NA,NA
"1050","S0010","122",4,1,1,6,1,NA,NA
"1051","S0010","123",4,1,1,5,1,NA,NA
"1052","S0010","124",4,1,1,3,1,NA,NA
"1053","S0010","125",4,1,1,6,1,NA,NA
"1054","S0010","126",4,1,1,5,1,NA,NA
"1055","S0010","127",4,1,1,5,1,NA,NA
"1056","S0010","128",4,1,1,5,1,NA,NA
"1057","S0011","1",1,1,1,4,0,NA,NA
"1058","S0011","2",1,1,1,4,0,NA,NA
"1059","S0011","3",1,1,1,3,0,NA,NA
"1060","S0011","4",1,1,1,4,0,NA,NA
"1061","S0011","5",1,1,1,2,0,NA,NA
"1062","S0011","6",1,1,1,3,0,NA,NA
"1063","S0011","7",1,1,1,2,0,NA,NA
"1064","S0011","8",1,1,1,4,0,NA,NA
"1065","S0011","33",1,1,1,5,1,NA,NA
"1066","S0011","34",1,1,1,4,1,NA,NA
"1067","S0011","35",1,1,1,4,1,NA,NA
"1068","S0011","36",1,1,1,4,1,NA,NA
"1069","S0011","37",1,1,1,4,1,NA,NA
"1070","S0011","38",1,1,1,3,1,NA,NA
"1071","S0011","39",1,1,1,4,1,NA,NA
"1072","S0011","40",1,1,1,3,1,NA,NA
"1073","S0011","65",1,1,1,4,0,NA,NA
"1074","S0011","66",1,1,1,6,0,NA,NA
"1075","S0011","67",1,1,1,3,0,NA,NA
"1076","S0011","68",1,1,1,3,0,NA,NA
"1077","S0011","69",1,1,1,5,0,NA,NA
"1078","S0011","70",1,1,1,4,0,NA,NA
"1079","S0011","71",1,1,1,3,0,NA,NA
"1080","S0011","72",1,1,1,5,0,NA,NA
"1081","S0011","97",1,1,1,5,1,NA,NA
"1082","S0011","98",1,1,1,4,1,NA,NA
"1083","S0011","99",1,1,1,3,1,NA,NA
"1084","S0011","100",1,1,1,5,1,NA,NA
"1085","S0011","101",1,1,1,4,1,NA,NA
"1086","S0011","102",1,1,1,3,1,NA,NA
"1087","S0011","103",1,1,1,5,1,NA,NA
"1088","S0011","104",1,1,1,3,1,NA,NA
"1089","S0011","9",2,1,1,3,0,NA,NA
"1090","S0011","10",2,1,1,4,0,NA,NA
"1091","S0011","11",2,1,1,4,0,NA,NA
"1092","S0011","12",2,1,1,4,0,NA,NA
"1093","S0011","13",2,1,1,2,0,NA,NA
"1094","S0011","14",2,1,1,4,0,NA,NA
"1095","S0011","15",2,1,1,2,0,NA,NA
"1096","S0011","16",2,1,1,2,0,NA,NA
"1097","S0011","41",2,1,1,4,1,NA,NA
"1098","S0011","42",2,1,1,4,1,NA,NA
"1099","S0011","43",2,1,1,4,1,NA,NA
"1100","S0011","44",2,1,1,5,1,NA,NA
"1101","S0011","45",2,1,1,4,1,NA,NA
"1102","S0011","46",2,1,1,4,1,NA,NA
"1103","S0011","47",2,1,1,4,1,NA,NA
"1104","S0011","48",2,1,1,3,1,NA,NA
"1105","S0011","73",2,1,1,3,0,NA,NA
"1106","S0011","74",2,1,1,4,0,NA,NA
"1107","S0011","75",2,1,1,3,0,NA,NA
"1108","S0011","76",2,1,1,5,0,NA,NA
"1109","S0011","77",2,1,1,4,0,NA,NA
"1110","S0011","78",2,1,1,4,0,NA,NA
"1111","S0011","79",2,1,1,4,0,NA,NA
"1112","S0011","80",2,1,1,5,0,NA,NA
"1113","S0011","105",2,1,1,4,1,NA,NA
"1114","S0011","106",2,1,1,4,1,NA,NA
"1115","S0011","107",2,1,1,3,1,NA,NA
"1116","S0011","108",2,1,1,4,1,NA,NA
"1117","S0011","109",2,1,1,5,1,NA,NA
"1118","S0011","110",2,1,1,4,1,NA,NA
"1119","S0011","111",2,1,1,4,1,NA,NA
"1120","S0011","112",2,1,1,4,1,NA,NA
"1121","S0011","17",3,1,1,4,0,NA,NA
"1122","S0011","18",3,1,1,4,0,NA,NA
"1123","S0011","19",3,1,1,6,0,NA,NA
"1124","S0011","20",3,1,1,4,0,NA,NA
"1125","S0011","21",3,1,1,3,0,NA,NA
"1126","S0011","22",3,1,1,4,0,NA,NA
"1127","S0011","23",3,1,1,4,0,NA,NA
"1128","S0011","24",3,1,1,4,0,NA,NA
"1129","S0011","49",3,1,1,4,1,NA,NA
"1130","S0011","50",3,1,1,4,1,NA,NA
"1131","S0011","51",3,1,1,4,1,NA,NA
"1132","S0011","52",3,1,1,4,1,NA,NA
"1133","S0011","53",3,1,1,5,1,NA,NA
"1134","S0011","54",3,1,1,5,1,NA,NA
"1135","S0011","55",3,1,1,5,1,NA,NA
"1136","S0011","56",3,1,1,4,1,NA,NA
"1137","S0011","81",3,1,1,4,0,NA,NA
"1138","S0011","82",3,1,1,4,0,NA,NA
"1139","S0011","83",3,1,1,4,0,NA,NA
"1140","S0011","84",3,1,1,4,0,NA,NA
"1141","S0011","85",3,1,1,5,0,NA,NA
"1142","S0011","86",3,1,1,4,0,NA,NA
"1143","S0011","87",3,1,1,5,0,NA,NA
"1144","S0011","88",3,1,1,4,0,NA,NA
"1145","S0011","113",3,1,1,5,1,NA,NA
"1146","S0011","114",3,1,1,5,1,NA,NA
"1147","S0011","115",3,1,1,5,1,NA,NA
"1148","S0011","116",3,1,1,4,1,NA,NA
"1149","S0011","117",3,1,1,5,1,NA,NA
"1150","S0011","118",3,1,1,4,1,NA,NA
"1151","S0011","119",3,1,1,4,1,NA,NA
"1152","S0011","120",3,1,1,3,1,NA,NA
"1153","S0011","25",4,1,1,4,0,NA,NA
"1154","S0011","26",4,1,1,2,0,NA,NA
"1155","S0011","27",4,1,1,4,0,NA,NA
"1156","S0011","28",4,1,1,4,0,NA,NA
"1157","S0011","29",4,1,1,5,0,NA,NA
"1158","S0011","30",4,1,1,4,0,NA,NA
"1159","S0011","31",4,1,1,3,0,NA,NA
"1160","S0011","32",4,1,1,4,0,NA,NA
"1161","S0011","57",4,1,1,3,1,NA,NA
"1162","S0011","58",4,1,1,3,1,NA,NA
"1163","S0011","59",4,1,1,2,1,NA,NA
"1164","S0011","60",4,1,1,4,1,NA,NA
"1165","S0011","61",4,1,1,4,1,NA,NA
"1166","S0011","62",4,1,1,3,1,NA,NA
"1167","S0011","63",4,1,1,4,1,NA,NA
"1168","S0011","64",4,1,1,4,1,NA,NA
"1169","S0011","89",4,1,1,4,0,NA,NA
"1170","S0011","90",4,1,1,4,0,NA,NA
"1171","S0011","91",4,1,1,4,0,NA,NA
"1172","S0011","92",4,1,1,4,0,NA,NA
"1173","S0011","93",4,1,1,4,0,NA,NA
"1174","S0011","94",4,1,1,4,0,NA,NA
"1175","S0011","95",4,1,1,4,0,NA,NA
"1176","S0011","96",4,1,1,4,0,NA,NA
"1177","S0011","121",4,1,1,4,1,NA,NA
"1178","S0011","122",4,1,1,4,1,NA,NA
"1179","S0011","123",4,1,1,4,1,NA,NA
"1180","S0011","124",4,1,1,3,1,NA,NA
"1181","S0011","125",4,1,1,4,1,NA,NA
"1182","S0011","126",4,1,1,4,1,NA,NA
"1183","S0011","127",4,1,1,5,1,NA,NA
"1184","S0011","128",4,1,1,5,1,NA,NA
"1185","S0012","9",1,1,1,4,0,NA,NA
"1186","S0012","10",1,1,1,5,0,NA,NA
"1187","S0012","11",1,1,1,6,0,NA,NA
"1188","S0012","12",1,1,1,3,0,NA,NA
"1189","S0012","13",1,1,1,4,0,NA,NA
"1190","S0012","14",1,1,1,5,0,NA,NA
"1191","S0012","15",1,1,1,1,0,NA,NA
"1192","S0012","16",1,1,1,2,0,NA,NA
"1193","S0012","41",1,1,1,2,1,NA,NA
"1194","S0012","42",1,1,1,7,1,NA,NA
"1195","S0012","43",1,1,1,4,1,NA,NA
"1196","S0012","44",1,1,1,2,1,NA,NA
"1197","S0012","45",1,1,1,4,1,NA,NA
"1198","S0012","46",1,1,1,3,1,NA,NA
"1199","S0012","47",1,1,1,2,1,NA,NA
"1200","S0012","48",1,1,1,7,1,NA,NA
"1201","S0012","73",1,1,1,3,0,NA,NA
"1202","S0012","74",1,1,1,3,0,NA,NA
"1203","S0012","75",1,1,1,6,0,NA,NA
"1204","S0012","76",1,1,1,7,0,NA,NA
"1205","S0012","77",1,1,1,1,0,NA,NA
"1206","S0012","78",1,1,1,3,0,NA,NA
"1207","S0012","79",1,1,1,4,0,NA,NA
"1208","S0012","80",1,1,1,4,0,NA,NA
"1209","S0012","105",1,1,1,4,1,NA,NA
"1210","S0012","106",1,1,1,5,1,NA,NA
"1211","S0012","107",1,1,1,3,1,NA,NA
"1212","S0012","108",1,1,1,4,1,NA,NA
"1213","S0012","109",1,1,1,3,1,NA,NA
"1214","S0012","110",1,1,1,3,1,NA,NA
"1215","S0012","111",1,1,1,5,1,NA,NA
"1216","S0012","112",1,1,1,4,1,NA,NA
"1217","S0012","17",2,1,1,5,0,NA,NA
"1218","S0012","18",2,1,1,4,0,NA,NA
"1219","S0012","19",2,1,1,3,0,NA,NA
"1220","S0012","20",2,1,1,2,0,NA,NA
"1221","S0012","21",2,1,1,5,0,NA,NA
"1222","S0012","22",2,1,1,1,0,NA,NA
"1223","S0012","23",2,1,1,4,0,NA,NA
"1224","S0012","24",2,1,1,3,0,NA,NA
"1225","S0012","49",2,1,1,4,1,NA,NA
"1226","S0012","50",2,1,1,4,1,NA,NA
"1227","S0012","51",2,1,1,1,1,NA,NA
"1228","S0012","52",2,1,1,3,1,NA,NA
"1229","S0012","53",2,1,1,5,1,NA,NA
"1230","S0012","54",2,1,1,1,1,NA,NA
"1231","S0012","55",2,1,1,2,1,NA,NA
"1232","S0012","56",2,1,1,6,1,NA,NA
"1233","S0012","81",2,1,1,4,0,NA,NA
"1234","S0012","82",2,1,1,4,0,NA,NA
"1235","S0012","83",2,1,1,4,0,NA,NA
"1236","S0012","84",2,1,1,7,0,NA,NA
"1237","S0012","85",2,1,1,6,0,NA,NA
"1238","S0012","86",2,1,1,3,0,NA,NA
"1239","S0012","87",2,1,1,2,0,NA,NA
"1240","S0012","88",2,1,1,4,0,NA,NA
"1241","S0012","113",2,1,1,3,1,NA,NA
"1242","S0012","114",2,1,1,4,1,NA,NA
"1243","S0012","115",2,1,1,2,1,NA,NA
"1244","S0012","116",2,1,1,1,1,NA,NA
"1245","S0012","117",2,1,1,7,1,NA,NA
"1246","S0012","118",2,1,1,2,1,NA,NA
"1247","S0012","119",2,1,1,7,1,NA,NA
"1248","S0012","120",2,1,1,3,1,NA,NA
"1249","S0012","25",3,1,1,5,0,NA,NA
"1250","S0012","26",3,1,1,5,0,NA,NA
"1251","S0012","27",3,1,1,4,0,NA,NA
"1252","S0012","28",3,1,1,5,0,NA,NA
"1253","S0012","29",3,1,1,3,0,NA,NA
"1254","S0012","30",3,1,1,6,0,NA,NA
"1255","S0012","31",3,1,1,3,0,NA,NA
"1256","S0012","32",3,1,1,3,0,NA,NA
"1257","S0012","57",3,1,1,1,1,NA,NA
"1258","S0012","58",3,1,1,5,1,NA,NA
"1259","S0012","59",3,1,1,4,1,NA,NA
"1260","S0012","60",3,1,1,3,1,NA,NA
"1261","S0012","61",3,1,1,3,1,NA,NA
"1262","S0012","62",3,1,1,1,1,NA,NA
"1263","S0012","63",3,1,1,4,1,NA,NA
"1264","S0012","64",3,1,1,4,1,NA,NA
"1265","S0012","89",3,1,1,4,0,NA,NA
"1266","S0012","90",3,1,1,4,0,NA,NA
"1267","S0012","91",3,1,1,5,0,NA,NA
"1268","S0012","92",3,1,1,2,0,NA,NA
"1269","S0012","93",3,1,1,1,0,NA,NA
"1270","S0012","94",3,1,1,6,0,NA,NA
"1271","S0012","95",3,1,1,2,0,NA,NA
"1272","S0012","96",3,1,1,4,0,NA,NA
"1273","S0012","121",3,1,1,1,1,NA,NA
"1274","S0012","122",3,1,1,4,1,NA,NA
"1275","S0012","123",3,1,1,7,1,NA,NA
"1276","S0012","124",3,1,1,4,1,NA,NA
"1277","S0012","125",3,1,1,5,1,NA,NA
"1278","S0012","126",3,1,1,5,1,NA,NA
"1279","S0012","127",3,1,1,5,1,NA,NA
"1280","S0012","128",3,1,1,5,1,NA,NA
"1281","S0012","1",4,1,1,2,1,NA,NA
"1282","S0012","2",4,1,1,4,1,NA,NA
"1283","S0012","3",4,1,1,3,1,NA,NA
"1284","S0012","4",4,1,1,4,1,NA,NA
"1285","S0012","5",4,1,1,4,1,NA,NA
"1286","S0012","6",4,1,1,4,1,NA,NA
"1287","S0012","7",4,1,1,2,1,NA,NA
"1288","S0012","8",4,1,1,3,1,NA,NA
"1289","S0012","33",4,1,1,5,0,NA,NA
"1290","S0012","34",4,1,1,5,0,NA,NA
"1291","S0012","35",4,1,1,3,0,NA,NA
"1292","S0012","36",4,1,1,4,0,NA,NA
"1293","S0012","37",4,1,1,4,0,NA,NA
"1294","S0012","38",4,1,1,5,0,NA,NA
"1295","S0012","39",4,1,1,4,0,NA,NA
"1296","S0012","40",4,1,1,4,0,NA,NA
"1297","S0012","65",4,1,1,3,1,NA,NA
"1298","S0012","66",4,1,1,7,1,NA,NA
"1299","S0012","67",4,1,1,5,1,NA,NA
"1300","S0012","68",4,1,1,4,1,NA,NA
"1301","S0012","69",4,1,1,2,1,NA,NA
"1302","S0012","70",4,1,1,5,1,NA,NA
"1303","S0012","71",4,1,1,6,1,NA,NA
"1304","S0012","72",4,1,1,1,1,NA,NA
"1305","S0012","97",4,1,1,2,0,NA,NA
"1306","S0012","98",4,1,1,6,0,NA,NA
"1307","S0012","99",4,1,1,1,0,NA,NA
"1308","S0012","100",4,1,1,6,0,NA,NA
"1309","S0012","101",4,1,1,4,0,NA,NA
"1310","S0012","102",4,1,1,4,0,NA,NA
"1311","S0012","103",4,1,1,2,0,NA,NA
"1312","S0012","104",4,1,1,4,0,NA,NA
"1313","S0013","9",1,1,1,6,1,NA,NA
"1314","S0013","10",1,1,1,6,1,NA,NA
"1315","S0013","11",1,1,1,6,1,NA,NA
"1316","S0013","12",1,1,1,4,1,NA,NA
"1317","S0013","13",1,1,1,4,1,NA,NA
"1318","S0013","14",1,1,1,4,1,NA,NA
"1319","S0013","15",1,1,1,6,1,NA,NA
"1320","S0013","16",1,1,1,4,1,NA,NA
"1321","S0013","41",1,1,1,3,0,NA,NA
"1322","S0013","42",1,1,1,2,0,NA,NA
"1323","S0013","43",1,1,1,4,0,NA,NA
"1324","S0013","44",1,1,1,2,0,NA,NA
"1325","S0013","45",1,1,1,2,0,NA,NA
"1326","S0013","46",1,1,1,3,0,NA,NA
"1327","S0013","47",1,1,1,3,0,NA,NA
"1328","S0013","48",1,1,1,6,0,NA,NA
"1329","S0013","73",1,1,1,5,1,NA,NA
"1330","S0013","74",1,1,1,4,1,NA,NA
"1331","S0013","75",1,1,1,5,1,NA,NA
"1332","S0013","76",1,1,1,5,1,NA,NA
"1333","S0013","77",1,1,1,6,1,NA,NA
"1334","S0013","78",1,1,1,6,1,NA,NA
"1335","S0013","79",1,1,1,6,1,NA,NA
"1336","S0013","80",1,1,1,2,1,NA,NA
"1337","S0013","105",1,1,1,2,0,NA,NA
"1338","S0013","106",1,1,1,4,0,NA,NA
"1339","S0013","107",1,1,1,1,0,NA,NA
"1340","S0013","108",1,1,1,4,0,NA,NA
"1341","S0013","109",1,1,1,2,0,NA,NA
"1342","S0013","110",1,1,1,3,0,NA,NA
"1343","S0013","111",1,1,1,3,0,NA,NA
"1344","S0013","112",1,1,1,4,0,NA,NA
"1345","S0013","17",2,1,1,5,1,NA,NA
"1346","S0013","18",2,1,1,6,1,NA,NA
"1347","S0013","19",2,1,1,4,1,NA,NA
"1348","S0013","20",2,1,1,2,1,NA,NA
"1349","S0013","21",2,1,1,7,1,NA,NA
"1350","S0013","22",2,1,1,6,1,NA,NA
"1351","S0013","23",2,1,1,5,1,NA,NA
"1352","S0013","24",2,1,1,3,1,NA,NA
"1353","S0013","49",2,1,1,3,0,NA,NA
"1354","S0013","50",2,1,1,1,0,NA,NA
"1355","S0013","51",2,1,1,3,0,NA,NA
"1356","S0013","52",2,1,1,3,0,NA,NA
"1357","S0013","53",2,1,1,3,0,NA,NA
"1358","S0013","54",2,1,1,4,0,NA,NA
"1359","S0013","55",2,1,1,4,0,NA,NA
"1360","S0013","56",2,1,1,4,0,NA,NA
"1361","S0013","81",2,1,1,5,1,NA,NA
"1362","S0013","82",2,1,1,5,1,NA,NA
"1363","S0013","83",2,1,1,4,1,NA,NA
"1364","S0013","84",2,1,1,2,1,NA,NA
"1365","S0013","85",2,1,1,5,1,NA,NA
"1366","S0013","86",2,1,1,7,1,NA,NA
"1367","S0013","87",2,1,1,5,1,NA,NA
"1368","S0013","88",2,1,1,4,1,NA,NA
"1369","S0013","113",2,1,1,4,0,NA,NA
"1370","S0013","114",2,1,1,7,0,NA,NA
"1371","S0013","115",2,1,1,2,0,NA,NA
"1372","S0013","116",2,1,1,5,0,NA,NA
"1373","S0013","117",2,1,1,3,0,NA,NA
"1374","S0013","118",2,1,1,5,0,NA,NA
"1375","S0013","119",2,1,1,2,0,NA,NA
"1376","S0013","120",2,1,1,1,0,NA,NA
"1377","S0013","25",3,1,1,5,1,NA,NA
"1378","S0013","26",3,1,1,4,1,NA,NA
"1379","S0013","27",3,1,1,3,1,NA,NA
"1380","S0013","28",3,1,1,5,1,NA,NA
"1381","S0013","29",3,1,1,6,1,NA,NA
"1382","S0013","30",3,1,1,3,1,NA,NA
"1383","S0013","31",3,1,1,5,1,NA,NA
"1384","S0013","32",3,1,1,5,1,NA,NA
"1385","S0013","57",3,1,1,3,0,NA,NA
"1386","S0013","58",3,1,1,3,0,NA,NA
"1387","S0013","59",3,1,1,5,0,NA,NA
"1388","S0013","60",3,1,1,3,0,NA,NA
"1389","S0013","61",3,1,1,4,0,NA,NA
"1390","S0013","62",3,1,1,3,0,NA,NA
"1391","S0013","63",3,1,1,4,0,NA,NA
"1392","S0013","64",3,1,1,5,0,NA,NA
"1393","S0013","89",3,1,1,3,1,NA,NA
"1394","S0013","90",3,1,1,5,1,NA,NA
"1395","S0013","91",3,1,1,2,1,NA,NA
"1396","S0013","92",3,1,1,3,1,NA,NA
"1397","S0013","93",3,1,1,4,1,NA,NA
"1398","S0013","94",3,1,1,5,1,NA,NA
"1399","S0013","95",3,1,1,3,1,NA,NA
"1400","S0013","96",3,1,1,5,1,NA,NA
"1401","S0013","121",3,1,1,4,0,NA,NA
"1402","S0013","122",3,1,1,3,0,NA,NA
"1403","S0013","123",3,1,1,2,0,NA,NA
"1404","S0013","124",3,1,1,5,0,NA,NA
"1405","S0013","125",3,1,1,3,0,NA,NA
"1406","S0013","126",3,1,1,4,0,NA,NA
"1407","S0013","127",3,1,1,5,0,NA,NA
"1408","S0013","128",3,1,1,5,0,NA,NA
"1409","S0013","1",4,1,1,3,0,NA,NA
"1410","S0013","2",4,1,1,4,0,NA,NA
"1411","S0013","3",4,1,1,3,0,NA,NA
"1412","S0013","4",4,1,1,3,0,NA,NA
"1413","S0013","5",4,1,1,4,0,NA,NA
"1414","S0013","6",4,1,1,2,0,NA,NA
"1415","S0013","7",4,1,1,2,0,NA,NA
"1416","S0013","8",4,1,1,3,0,NA,NA
"1417","S0013","33",4,1,1,4,1,NA,NA
"1418","S0013","34",4,1,1,5,1,NA,NA
"1419","S0013","35",4,1,1,4,1,NA,NA
"1420","S0013","36",4,1,1,3,1,NA,NA
"1421","S0013","37",4,1,1,3,1,NA,NA
"1422","S0013","38",4,1,1,6,1,NA,NA
"1423","S0013","39",4,1,1,5,1,NA,NA
"1424","S0013","40",4,1,1,2,1,NA,NA
"1425","S0013","65",4,1,1,3,0,NA,NA
"1426","S0013","66",4,1,1,5,0,NA,NA
"1427","S0013","67",4,1,1,3,0,NA,NA
"1428","S0013","68",4,1,1,4,0,NA,NA
"1429","S0013","69",4,1,1,3,0,NA,NA
"1430","S0013","70",4,1,1,2,0,NA,NA
"1431","S0013","71",4,1,1,5,0,NA,NA
"1432","S0013","72",4,1,1,4,0,NA,NA
"1433","S0013","97",4,1,1,2,1,NA,NA
"1434","S0013","98",4,1,1,5,1,NA,NA
"1435","S0013","99",4,1,1,5,1,NA,NA
"1436","S0013","100",4,1,1,3,1,NA,NA
"1437","S0013","101",4,1,1,5,1,NA,NA
"1438","S0013","102",4,1,1,5,1,NA,NA
"1439","S0013","103",4,1,1,5,1,NA,NA
"1440","S0013","104",4,1,1,4,1,NA,NA
"1441","S0014","1",1,1,1,6,0,NA,NA
"1442","S0014","2",1,1,1,4,0,NA,NA
"1443","S0014","3",1,1,1,4,0,NA,NA
"1444","S0014","4",1,1,1,4,0,NA,NA
"1445","S0014","5",1,1,1,5,0,NA,NA
"1446","S0014","6",1,1,1,4,0,NA,NA
"1447","S0014","7",1,1,1,4,0,NA,NA
"1448","S0014","8",1,1,1,4,0,NA,NA
"1449","S0014","33",1,1,1,5,1,NA,NA
"1450","S0014","34",1,1,1,4,1,NA,NA
"1451","S0014","35",1,1,1,4,1,NA,NA
"1452","S0014","36",1,1,1,4,1,NA,NA
"1453","S0014","37",1,1,1,4,1,NA,NA
"1454","S0014","38",1,1,1,4,1,NA,NA
"1455","S0014","39",1,1,1,4,1,NA,NA
"1456","S0014","40",1,1,1,5,1,NA,NA
"1457","S0014","65",1,1,1,5,0,NA,NA
"1458","S0014","66",1,1,1,4,0,NA,NA
"1459","S0014","67",1,1,1,4,0,NA,NA
"1460","S0014","68",1,1,1,4,0,NA,NA
"1461","S0014","69",1,1,1,6,0,NA,NA
"1462","S0014","70",1,1,1,5,0,NA,NA
"1463","S0014","71",1,1,1,4,0,NA,NA
"1464","S0014","72",1,1,1,4,0,NA,NA
"1465","S0014","97",1,1,1,4,1,NA,NA
"1466","S0014","98",1,1,1,5,1,NA,NA
"1467","S0014","99",1,1,1,5,1,NA,NA
"1468","S0014","100",1,1,1,4,1,NA,NA
"1469","S0014","101",1,1,1,4,1,NA,NA
"1470","S0014","102",1,1,1,5,1,NA,NA
"1471","S0014","103",1,1,1,6,1,NA,NA
"1472","S0014","104",1,1,1,4,1,NA,NA
"1473","S0014","9",2,1,1,4,0,NA,NA
"1474","S0014","10",2,1,1,4,0,NA,NA
"1475","S0014","11",2,1,1,4,0,NA,NA
"1476","S0014","12",2,1,1,5,0,NA,NA
"1477","S0014","13",2,1,1,4,0,NA,NA
"1478","S0014","14",2,1,1,3,0,NA,NA
"1479","S0014","15",2,1,1,4,0,NA,NA
"1480","S0014","16",2,1,1,5,0,NA,NA
"1481","S0014","41",2,1,1,4,1,NA,NA
"1482","S0014","42",2,1,1,5,1,NA,NA
"1483","S0014","43",2,1,1,4,1,NA,NA
"1484","S0014","44",2,1,1,4,1,NA,NA
"1485","S0014","45",2,1,1,4,1,NA,NA
"1486","S0014","46",2,1,1,4,1,NA,NA
"1487","S0014","47",2,1,1,3,1,NA,NA
"1488","S0014","48",2,1,1,5,1,NA,NA
"1489","S0014","73",2,1,1,4,0,NA,NA
"1490","S0014","74",2,1,1,4,0,NA,NA
"1491","S0014","75",2,1,1,4,0,NA,NA
"1492","S0014","76",2,1,1,4,0,NA,NA
"1493","S0014","77",2,1,1,3,0,NA,NA
"1494","S0014","78",2,1,1,4,0,NA,NA
"1495","S0014","79",2,1,1,4,0,NA,NA
"1496","S0014","80",2,1,1,3,0,NA,NA
"1497","S0014","105",2,1,1,4,1,NA,NA
"1498","S0014","106",2,1,1,4,1,NA,NA
"1499","S0014","107",2,1,1,4,1,NA,NA
"1500","S0014","108",2,1,1,4,1,NA,NA
"1501","S0014","109",2,1,1,5,1,NA,NA
"1502","S0014","110",2,1,1,4,1,NA,NA
"1503","S0014","111",2,1,1,4,1,NA,NA
"1504","S0014","112",2,1,1,4,1,NA,NA
"1505","S0014","17",3,1,1,5,0,NA,NA
"1506","S0014","18",3,1,1,4,0,NA,NA
"1507","S0014","19",3,1,1,4,0,NA,NA
"1508","S0014","20",3,1,1,4,0,NA,NA
"1509","S0014","21",3,1,1,5,0,NA,NA
"1510","S0014","22",3,1,1,5,0,NA,NA
"1511","S0014","23",3,1,1,4,0,NA,NA
"1512","S0014","24",3,1,1,4,0,NA,NA
"1513","S0014","49",3,1,1,3,1,NA,NA
"1514","S0014","50",3,1,1,5,1,NA,NA
"1515","S0014","51",3,1,1,7,1,NA,NA
"1516","S0014","52",3,1,1,5,1,NA,NA
"1517","S0014","53",3,1,1,5,1,NA,NA
"1518","S0014","54",3,1,1,5,1,NA,NA
"1519","S0014","55",3,1,1,5,1,NA,NA
"1520","S0014","56",3,1,1,5,1,NA,NA
"1521","S0014","81",3,1,1,4,0,NA,NA
"1522","S0014","82",3,1,1,4,0,NA,NA
"1523","S0014","83",3,1,1,4,0,NA,NA
"1524","S0014","84",3,1,1,3,0,NA,NA
"1525","S0014","85",3,1,1,4,0,NA,NA
"1526","S0014","86",3,1,1,4,0,NA,NA
"1527","S0014","87",3,1,1,5,0,NA,NA
"1528","S0014","88",3,1,1,5,0,NA,NA
"1529","S0014","113",3,1,1,3,1,NA,NA
"1530","S0014","114",3,1,1,3,1,NA,NA
"1531","S0014","115",3,1,1,4,1,NA,NA
"1532","S0014","116",3,1,1,4,1,NA,NA
"1533","S0014","117",3,1,1,5,1,NA,NA
"1534","S0014","118",3,1,1,5,1,NA,NA
"1535","S0014","119",3,1,1,5,1,NA,NA
"1536","S0014","120",3,1,1,5,1,NA,NA
"1537","S0014","25",4,1,1,4,0,NA,NA
"1538","S0014","26",4,1,1,4,0,NA,NA
"1539","S0014","27",4,1,1,4,0,NA,NA
"1540","S0014","28",4,1,1,5,0,NA,NA
"1541","S0014","29",4,1,1,4,0,NA,NA
"1542","S0014","30",4,1,1,3,0,NA,NA
"1543","S0014","31",4,1,1,5,0,NA,NA
"1544","S0014","32",4,1,1,4,0,NA,NA
"1545","S0014","57",4,1,1,5,1,NA,NA
"1546","S0014","58",4,1,1,5,1,NA,NA
"1547","S0014","59",4,1,1,5,1,NA,NA
"1548","S0014","60",4,1,1,4,1,NA,NA
"1549","S0014","61",4,1,1,4,1,NA,NA
"1550","S0014","62",4,1,1,4,1,NA,NA
"1551","S0014","63",4,1,1,4,1,NA,NA
"1552","S0014","64",4,1,1,4,1,NA,NA
"1553","S0014","89",4,1,1,5,0,NA,NA
"1554","S0014","90",4,1,1,4,0,NA,NA
"1555","S0014","91",4,1,1,5,0,NA,NA
"1556","S0014","92",4,1,1,4,0,NA,NA
"1557","S0014","93",4,1,1,4,0,NA,NA
"1558","S0014","94",4,1,1,4,0,NA,NA
"1559","S0014","95",4,1,1,4,0,NA,NA
"1560","S0014","96",4,1,1,4,0,NA,NA
"1561","S0014","121",4,1,1,4,1,NA,NA
"1562","S0014","122",4,1,1,4,1,NA,NA
"1563","S0014","123",4,1,1,4,1,NA,NA
"1564","S0014","124",4,1,1,5,1,NA,NA
"1565","S0014","125",4,1,1,5,1,NA,NA
"1566","S0014","126",4,1,1,4,1,NA,NA
"1567","S0014","127",4,1,1,5,1,NA,NA
"1568","S0014","128",4,1,1,5,1,NA,NA
"1569","S0016","17",1,1,1,3,0,NA,NA
"1570","S0016","18",1,1,1,2,0,NA,NA
"1571","S0016","19",1,1,1,7,0,NA,NA
"1572","S0016","20",1,1,1,4,0,NA,NA
"1573","S0016","21",1,1,1,6,0,NA,NA
"1574","S0016","22",1,1,1,4,0,NA,NA
"1575","S0016","23",1,1,1,4,0,NA,NA
"1576","S0016","24",1,1,1,5,0,NA,NA
"1577","S0016","49",1,1,1,5,1,NA,NA
"1578","S0016","50",1,1,1,3,1,NA,NA
"1579","S0016","51",1,1,1,5,1,NA,NA
"1580","S0016","52",1,1,1,5,1,NA,NA
"1581","S0016","53",1,1,1,6,1,NA,NA
"1582","S0016","54",1,1,1,4,1,NA,NA
"1583","S0016","55",1,1,1,4,1,NA,NA
"1584","S0016","56",1,1,1,6,1,NA,NA
"1585","S0016","81",1,1,1,3,0,NA,NA
"1586","S0016","82",1,1,1,4,0,NA,NA
"1587","S0016","83",1,1,1,6,0,NA,NA
"1588","S0016","84",1,1,1,5,0,NA,NA
"1589","S0016","85",1,1,1,4,0,NA,NA
"1590","S0016","86",1,1,1,2,0,NA,NA
"1591","S0016","87",1,1,1,4,0,NA,NA
"1592","S0016","88",1,1,1,3,0,NA,NA
"1593","S0016","113",1,1,1,2,1,NA,NA
"1594","S0016","114",1,1,1,3,1,NA,NA
"1595","S0016","115",1,1,1,7,1,NA,NA
"1596","S0016","116",1,1,1,5,1,NA,NA
"1597","S0016","117",1,1,1,5,1,NA,NA
"1598","S0016","118",1,1,1,4,1,NA,NA
"1599","S0016","119",1,1,1,4,1,NA,NA
"1600","S0016","120",1,1,1,7,1,NA,NA
"1601","S0016","25",2,1,1,6,0,NA,NA
"1602","S0016","26",2,1,1,4,0,NA,NA
"1603","S0016","27",2,1,1,3,0,NA,NA
"1604","S0016","28",2,1,1,4,0,NA,NA
"1605","S0016","29",2,1,1,2,0,NA,NA
"1606","S0016","30",2,1,1,6,0,NA,NA
"1607","S0016","31",2,1,1,4,0,NA,NA
"1608","S0016","32",2,1,1,4,0,NA,NA
"1609","S0016","57",2,1,1,6,1,NA,NA
"1610","S0016","58",2,1,1,5,1,NA,NA
"1611","S0016","59",2,1,1,4,1,NA,NA
"1612","S0016","60",2,1,1,5,1,NA,NA
"1613","S0016","61",2,1,1,5,1,NA,NA
"1614","S0016","62",2,1,1,5,1,NA,NA
"1615","S0016","63",2,1,1,1,1,NA,NA
"1616","S0016","64",2,1,1,6,1,NA,NA
"1617","S0016","89",2,1,1,2,0,NA,NA
"1618","S0016","90",2,1,1,6,0,NA,NA
"1619","S0016","91",2,1,1,3,0,NA,NA
"1620","S0016","92",2,1,1,6,0,NA,NA
"1621","S0016","93",2,1,1,2,0,NA,NA
"1622","S0016","94",2,1,1,6,0,NA,NA
"1623","S0016","95",2,1,1,5,0,NA,NA
"1624","S0016","96",2,1,1,5,0,NA,NA
"1625","S0016","121",2,1,1,6,1,NA,NA
"1626","S0016","122",2,1,1,6,1,NA,NA
"1627","S0016","123",2,1,1,5,1,NA,NA
"1628","S0016","124",2,1,1,6,1,NA,NA
"1629","S0016","125",2,1,1,2,1,NA,NA
"1630","S0016","126",2,1,1,5,1,NA,NA
"1631","S0016","127",2,1,1,6,1,NA,NA
"1632","S0016","128",2,1,1,5,1,NA,NA
"1633","S0016","1",3,1,1,4,1,NA,NA
"1634","S0016","2",3,1,1,5,1,NA,NA
"1635","S0016","3",3,1,1,3,1,NA,NA
"1636","S0016","4",3,1,1,4,1,NA,NA
"1637","S0016","5",3,1,1,3,1,NA,NA
"1638","S0016","6",3,1,1,4,1,NA,NA
"1639","S0016","7",3,1,1,4,1,NA,NA
"1640","S0016","8",3,1,1,4,1,NA,NA
"1641","S0016","33",3,1,1,4,0,NA,NA
"1642","S0016","34",3,1,1,4,0,NA,NA
"1643","S0016","35",3,1,1,3,0,NA,NA
"1644","S0016","36",3,1,1,4,0,NA,NA
"1645","S0016","37",3,1,1,4,0,NA,NA
"1646","S0016","38",3,1,1,3,0,NA,NA
"1647","S0016","39",3,1,1,5,0,NA,NA
"1648","S0016","40",3,1,1,3,0,NA,NA
"1649","S0016","65",3,1,1,4,1,NA,NA
"1650","S0016","66",3,1,1,4,1,NA,NA
"1651","S0016","67",3,1,1,4,1,NA,NA
"1652","S0016","68",3,1,1,5,1,NA,NA
"1653","S0016","69",3,1,1,4,1,NA,NA
"1654","S0016","70",3,1,1,4,1,NA,NA
"1655","S0016","71",3,1,1,3,1,NA,NA
"1656","S0016","72",3,1,1,4,1,NA,NA
"1657","S0016","97",3,1,1,6,0,NA,NA
"1658","S0016","98",3,1,1,4,0,NA,NA
"1659","S0016","99",3,1,1,4,0,NA,NA
"1660","S0016","100",3,1,1,2,0,NA,NA
"1661","S0016","101",3,1,1,3,0,NA,NA
"1662","S0016","102",3,1,1,6,0,NA,NA
"1663","S0016","103",3,1,1,5,0,NA,NA
"1664","S0016","104",3,1,1,4,0,NA,NA
"1665","S0016","9",4,1,1,4,1,NA,NA
"1666","S0016","10",4,1,1,5,1,NA,NA
"1667","S0016","11",4,1,1,6,1,NA,NA
"1668","S0016","12",4,1,1,6,1,NA,NA
"1669","S0016","13",4,1,1,5,1,NA,NA
"1670","S0016","14",4,1,1,4,1,NA,NA
"1671","S0016","15",4,1,1,5,1,NA,NA
"1672","S0016","16",4,1,1,4,1,NA,NA
"1673","S0016","41",4,1,1,6,0,NA,NA
"1674","S0016","42",4,1,1,5,0,NA,NA
"1675","S0016","43",4,1,1,3,0,NA,NA
"1676","S0016","44",4,1,1,4,0,NA,NA
"1677","S0016","45",4,1,1,4,0,NA,NA
"1678","S0016","46",4,1,1,6,0,NA,NA
"1679","S0016","47",4,1,1,5,0,NA,NA
"1680","S0016","48",4,1,1,6,0,NA,NA
"1681","S0016","73",4,1,1,5,1,NA,NA
"1682","S0016","74",4,1,1,6,1,NA,NA
"1683","S0016","75",4,1,1,6,1,NA,NA
"1684","S0016","76",4,1,1,4,1,NA,NA
"1685","S0016","77",4,1,1,5,1,NA,NA
"1686","S0016","78",4,1,1,4,1,NA,NA
"1687","S0016","79",4,1,1,5,1,NA,NA
"1688","S0016","80",4,1,1,6,1,NA,NA
"1689","S0016","105",4,1,1,4,0,NA,NA
"1690","S0016","106",4,1,1,5,0,NA,NA
"1691","S0016","107",4,1,1,5,0,NA,NA
"1692","S0016","108",4,1,1,3,0,NA,NA
"1693","S0016","109",4,1,1,4,0,NA,NA
"1694","S0016","110",4,1,1,6,0,NA,NA
"1695","S0016","111",4,1,1,6,0,NA,NA
"1696","S0016","112",4,1,1,2,0,NA,NA
"1697","S0017","1",1,1,1,4,0,NA,NA
"1698","S0017","2",1,1,1,4,0,NA,NA
"1699","S0017","3",1,1,1,4,0,NA,NA
"1700","S0017","4",1,1,1,5,0,NA,NA
"1701","S0017","5",1,1,1,4,0,NA,NA
"1702","S0017","6",1,1,1,4,0,NA,NA
"1703","S0017","7",1,1,1,4,0,NA,NA
"1704","S0017","8",1,1,1,4,0,NA,NA
"1705","S0017","33",1,1,1,3,1,NA,NA
"1706","S0017","34",1,1,1,5,1,NA,NA
"1707","S0017","35",1,1,1,5,1,NA,NA
"1708","S0017","36",1,1,1,5,1,NA,NA
"1709","S0017","37",1,1,1,5,1,NA,NA
"1710","S0017","38",1,1,1,6,1,NA,NA
"1711","S0017","39",1,1,1,5,1,NA,NA
"1712","S0017","40",1,1,1,6,1,NA,NA
"1713","S0017","65",1,1,1,3,0,NA,NA
"1714","S0017","66",1,1,1,2,0,NA,NA
"1715","S0017","67",1,1,1,3,0,NA,NA
"1716","S0017","68",1,1,1,4,0,NA,NA
"1717","S0017","69",1,1,1,2,0,NA,NA
"1718","S0017","70",1,1,1,4,0,NA,NA
"1719","S0017","71",1,1,1,3,0,NA,NA
"1720","S0017","72",1,1,1,2,0,NA,NA
"1721","S0017","97",1,1,1,5,1,NA,NA
"1722","S0017","98",1,1,1,6,1,NA,NA
"1723","S0017","99",1,1,1,4,1,NA,NA
"1724","S0017","100",1,1,1,3,1,NA,NA
"1725","S0017","101",1,1,1,6,1,NA,NA
"1726","S0017","102",1,1,1,5,1,NA,NA
"1727","S0017","103",1,1,1,6,1,NA,NA
"1728","S0017","104",1,1,1,4,1,NA,NA
"1729","S0017","9",2,1,1,5,0,NA,NA
"1730","S0017","10",2,1,1,4,0,NA,NA
"1731","S0017","11",2,1,1,4,0,NA,NA
"1732","S0017","12",2,1,1,3,0,NA,NA
"1733","S0017","13",2,1,1,2,0,NA,NA
"1734","S0017","14",2,1,1,3,0,NA,NA
"1735","S0017","15",2,1,1,3,0,NA,NA
"1736","S0017","16",2,1,1,5,0,NA,NA
"1737","S0017","41",2,1,1,5,1,NA,NA
"1738","S0017","42",2,1,1,5,1,NA,NA
"1739","S0017","43",2,1,1,5,1,NA,NA
"1740","S0017","44",2,1,1,4,1,NA,NA
"1741","S0017","45",2,1,1,4,1,NA,NA
"1742","S0017","46",2,1,1,4,1,NA,NA
"1743","S0017","47",2,1,1,2,1,NA,NA
"1744","S0017","48",2,1,1,3,1,NA,NA
"1745","S0017","73",2,1,1,4,0,NA,NA
"1746","S0017","74",2,1,1,5,0,NA,NA
"1747","S0017","75",2,1,1,4,0,NA,NA
"1748","S0017","76",2,1,1,4,0,NA,NA
"1749","S0017","77",2,1,1,4,0,NA,NA
"1750","S0017","78",2,1,1,4,0,NA,NA
"1751","S0017","79",2,1,1,5,0,NA,NA
"1752","S0017","80",2,1,1,5,0,NA,NA
"1753","S0017","105",2,1,1,3,1,NA,NA
"1754","S0017","106",2,1,1,3,1,NA,NA
"1755","S0017","107",2,1,1,4,1,NA,NA
"1756","S0017","108",2,1,1,5,1,NA,NA
"1757","S0017","109",2,1,1,5,1,NA,NA
"1758","S0017","110",2,1,1,5,1,NA,NA
"1759","S0017","111",2,1,1,4,1,NA,NA
"1760","S0017","112",2,1,1,4,1,NA,NA
"1761","S0017","17",3,1,1,4,0,NA,NA
"1762","S0017","18",3,1,1,4,0,NA,NA
"1763","S0017","19",3,1,1,5,0,NA,NA
"1764","S0017","20",3,1,1,5,0,NA,NA
"1765","S0017","21",3,1,1,5,0,NA,NA
"1766","S0017","22",3,1,1,5,0,NA,NA
"1767","S0017","23",3,1,1,4,0,NA,NA
"1768","S0017","24",3,1,1,4,0,NA,NA
"1769","S0017","49",3,1,1,3,1,NA,NA
"1770","S0017","50",3,1,1,5,1,NA,NA
"1771","S0017","51",3,1,1,4,1,NA,NA
"1772","S0017","52",3,1,1,5,1,NA,NA
"1773","S0017","53",3,1,1,2,1,NA,NA
"1774","S0017","54",3,1,1,5,1,NA,NA
"1775","S0017","55",3,1,1,5,1,NA,NA
"1776","S0017","56",3,1,1,3,1,NA,NA
"1777","S0017","81",3,1,1,3,0,NA,NA
"1778","S0017","82",3,1,1,5,0,NA,NA
"1779","S0017","83",3,1,1,4,0,NA,NA
"1780","S0017","84",3,1,1,2,0,NA,NA
"1781","S0017","85",3,1,1,2,0,NA,NA
"1782","S0017","86",3,1,1,4,0,NA,NA
"1783","S0017","87",3,1,1,4,0,NA,NA
"1784","S0017","88",3,1,1,5,0,NA,NA
"1785","S0017","113",3,1,1,5,1,NA,NA
"1786","S0017","114",3,1,1,5,1,NA,NA
"1787","S0017","115",3,1,1,4,1,NA,NA
"1788","S0017","116",3,1,1,6,1,NA,NA
"1789","S0017","117",3,1,1,6,1,NA,NA
"1790","S0017","118",3,1,1,3,1,NA,NA
"1791","S0017","119",3,1,1,3,1,NA,NA
"1792","S0017","120",3,1,1,5,1,NA,NA
"1793","S0017","25",4,1,1,4,0,NA,NA
"1794","S0017","26",4,1,1,4,0,NA,NA
"1795","S0017","27",4,1,1,4,0,NA,NA
"1796","S0017","28",4,1,1,5,0,NA,NA
"1797","S0017","29",4,1,1,4,0,NA,NA
"1798","S0017","30",4,1,1,4,0,NA,NA
"1799","S0017","31",4,1,1,3,0,NA,NA
"1800","S0017","32",4,1,1,3,0,NA,NA
"1801","S0017","57",4,1,1,4,1,NA,NA
"1802","S0017","58",4,1,1,5,1,NA,NA
"1803","S0017","59",4,1,1,2,1,NA,NA
"1804","S0017","60",4,1,1,4,1,NA,NA
"1805","S0017","61",4,1,1,5,1,NA,NA
"1806","S0017","62",4,1,1,5,1,NA,NA
"1807","S0017","63",4,1,1,4,1,NA,NA
"1808","S0017","64",4,1,1,5,1,NA,NA
"1809","S0017","89",4,1,1,4,0,NA,NA
"1810","S0017","90",4,1,1,4,0,NA,NA
"1811","S0017","91",4,1,1,5,0,NA,NA
"1812","S0017","92",4,1,1,4,0,NA,NA
"1813","S0017","93",4,1,1,3,0,NA,NA
"1814","S0017","94",4,1,1,4,0,NA,NA
"1815","S0017","95",4,1,1,3,0,NA,NA
"1816","S0017","96",4,1,1,4,0,NA,NA
"1817","S0017","121",4,1,1,5,1,NA,NA
"1818","S0017","122",4,1,1,4,1,NA,NA
"1819","S0017","123",4,1,1,4,1,NA,NA
"1820","S0017","124",4,1,1,4,1,NA,NA
"1821","S0017","125",4,1,1,4,1,NA,NA
"1822","S0017","126",4,1,1,5,1,NA,NA
"1823","S0017","127",4,1,1,5,1,NA,NA
"1824","S0017","128",4,1,1,5,1,NA,NA
"1825","S0018","1",1,1,1,3,0,NA,NA
"1826","S0018","2",1,1,1,4,0,NA,NA
"1827","S0018","3",1,1,1,4,0,NA,NA
"1828","S0018","4",1,1,1,4,0,NA,NA
"1829","S0018","5",1,1,1,4,0,NA,NA
"1830","S0018","6",1,1,1,5,0,NA,NA
"1831","S0018","7",1,1,1,4,0,NA,NA
"1832","S0018","8",1,1,1,4,0,NA,NA
"1833","S0018","33",1,1,1,5,1,NA,NA
"1834","S0018","34",1,1,1,4,1,NA,NA
"1835","S0018","35",1,1,1,5,1,NA,NA
"1836","S0018","36",1,1,1,4,1,NA,NA
"1837","S0018","37",1,1,1,5,1,NA,NA
"1838","S0018","38",1,1,1,4,1,NA,NA
"1839","S0018","39",1,1,1,5,1,NA,NA
"1840","S0018","40",1,1,1,4,1,NA,NA
"1841","S0018","65",1,1,1,5,0,NA,NA
"1842","S0018","66",1,1,1,3,0,NA,NA
"1843","S0018","67",1,1,1,3,0,NA,NA
"1844","S0018","68",1,1,1,4,0,NA,NA
"1845","S0018","69",1,1,1,5,0,NA,NA
"1846","S0018","70",1,1,1,3,0,NA,NA
"1847","S0018","71",1,1,1,3,0,NA,NA
"1848","S0018","72",1,1,1,3,0,NA,NA
"1849","S0018","97",1,1,1,3,1,NA,NA
"1850","S0018","98",1,1,1,2,1,NA,NA
"1851","S0018","99",1,1,1,4,1,NA,NA
"1852","S0018","100",1,1,1,2,1,NA,NA
"1853","S0018","101",1,1,1,4,1,NA,NA
"1854","S0018","102",1,1,1,5,1,NA,NA
"1855","S0018","103",1,1,1,5,1,NA,NA
"1856","S0018","104",1,1,1,5,1,NA,NA
"1857","S0018","9",2,1,1,5,0,NA,NA
"1858","S0018","10",2,1,1,4,0,NA,NA
"1859","S0018","11",2,1,1,5,0,NA,NA
"1860","S0018","12",2,1,1,3,0,NA,NA
"1861","S0018","13",2,1,1,4,0,NA,NA
"1862","S0018","14",2,1,1,3,0,NA,NA
"1863","S0018","15",2,1,1,3,0,NA,NA
"1864","S0018","16",2,1,1,4,0,NA,NA
"1865","S0018","41",2,1,1,5,1,NA,NA
"1866","S0018","42",2,1,1,7,1,NA,NA
"1867","S0018","43",2,1,1,4,1,NA,NA
"1868","S0018","44",2,1,1,4,1,NA,NA
"1869","S0018","45",2,1,1,4,1,NA,NA
"1870","S0018","46",2,1,1,4,1,NA,NA
"1871","S0018","47",2,1,1,4,1,NA,NA
"1872","S0018","48",2,1,1,4,1,NA,NA
"1873","S0018","73",2,1,1,4,0,NA,NA
"1874","S0018","74",2,1,1,4,0,NA,NA
"1875","S0018","75",2,1,1,4,0,NA,NA
"1876","S0018","76",2,1,1,5,0,NA,NA
"1877","S0018","77",2,1,1,5,0,NA,NA
"1878","S0018","78",2,1,1,4,0,NA,NA
"1879","S0018","79",2,1,1,4,0,NA,NA
"1880","S0018","80",2,1,1,2,0,NA,NA
"1881","S0018","105",2,1,1,5,1,NA,NA
"1882","S0018","106",2,1,1,3,1,NA,NA
"1883","S0018","107",2,1,1,4,1,NA,NA
"1884","S0018","108",2,1,1,3,1,NA,NA
"1885","S0018","109",2,1,1,4,1,NA,NA
"1886","S0018","110",2,1,1,5,1,NA,NA
"1887","S0018","111",2,1,1,4,1,NA,NA
"1888","S0018","112",2,1,1,4,1,NA,NA
"1889","S0018","17",3,1,1,3,0,NA,NA
"1890","S0018","18",3,1,1,4,0,NA,NA
"1891","S0018","19",3,1,1,3,0,NA,NA
"1892","S0018","20",3,1,1,4,0,NA,NA
"1893","S0018","21",3,1,1,5,0,NA,NA
"1894","S0018","22",3,1,1,5,0,NA,NA
"1895","S0018","23",3,1,1,3,0,NA,NA
"1896","S0018","24",3,1,1,4,0,NA,NA
"1897","S0018","49",3,1,1,4,1,NA,NA
"1898","S0018","50",3,1,1,4,1,NA,NA
"1899","S0018","51",3,1,1,3,1,NA,NA
"1900","S0018","52",3,1,1,6,1,NA,NA
"1901","S0018","53",3,1,1,4,1,NA,NA
"1902","S0018","54",3,1,1,2,1,NA,NA
"1903","S0018","55",3,1,1,4,1,NA,NA
"1904","S0018","56",3,1,1,2,1,NA,NA
"1905","S0018","81",3,1,1,3,0,NA,NA
"1906","S0018","82",3,1,1,5,0,NA,NA
"1907","S0018","83",3,1,1,4,0,NA,NA
"1908","S0018","84",3,1,1,7,0,NA,NA
"1909","S0018","85",3,1,1,4,0,NA,NA
"1910","S0018","86",3,1,1,4,0,NA,NA
"1911","S0018","87",3,1,1,3,0,NA,NA
"1912","S0018","88",3,1,1,3,0,NA,NA
"1913","S0018","113",3,1,1,3,1,NA,NA
"1914","S0018","114",3,1,1,4,1,NA,NA
"1915","S0018","115",3,1,1,5,1,NA,NA
"1916","S0018","116",3,1,1,5,1,NA,NA
"1917","S0018","117",3,1,1,6,1,NA,NA
"1918","S0018","118",3,1,1,5,1,NA,NA
"1919","S0018","119",3,1,1,3,1,NA,NA
"1920","S0018","120",3,1,1,5,1,NA,NA
"1921","S0018","25",4,1,1,4,0,NA,NA
"1922","S0018","26",4,1,1,4,0,NA,NA
"1923","S0018","27",4,1,1,4,0,NA,NA
"1924","S0018","28",4,1,1,4,0,NA,NA
"1925","S0018","29",4,1,1,4,0,NA,NA
"1926","S0018","30",4,1,1,4,0,NA,NA
"1927","S0018","31",4,1,1,2,0,NA,NA
"1928","S0018","32",4,1,1,3,0,NA,NA
"1929","S0018","57",4,1,1,4,1,NA,NA
"1930","S0018","58",4,1,1,4,1,NA,NA
"1931","S0018","59",4,1,1,4,1,NA,NA
"1932","S0018","60",4,1,1,4,1,NA,NA
"1933","S0018","61",4,1,1,4,1,NA,NA
"1934","S0018","62",4,1,1,4,1,NA,NA
"1935","S0018","63",4,1,1,4,1,NA,NA
"1936","S0018","64",4,1,1,5,1,NA,NA
"1937","S0018","89",4,1,1,3,0,NA,NA
"1938","S0018","90",4,1,1,3,0,NA,NA
"1939","S0018","91",4,1,1,5,0,NA,NA
"1940","S0018","92",4,1,1,4,0,NA,NA
"1941","S0018","93",4,1,1,4,0,NA,NA
"1942","S0018","94",4,1,1,4,0,NA,NA
"1943","S0018","95",4,1,1,5,0,NA,NA
"1944","S0018","96",4,1,1,4,0,NA,NA
"1945","S0018","121",4,1,1,4,1,NA,NA
"1946","S0018","122",4,1,1,4,1,NA,NA
"1947","S0018","123",4,1,1,4,1,NA,NA
"1948","S0018","124",4,1,1,5,1,NA,NA
"1949","S0018","125",4,1,1,4,1,NA,NA
"1950","S0018","126",4,1,1,5,1,NA,NA
"1951","S0018","127",4,1,1,4,1,NA,NA
"1952","S0018","128",4,1,1,3,1,NA,NA
"1953","S0019","25",1,1,1,2,0,NA,NA
"1954","S0019","26",1,1,1,5,0,NA,NA
"1955","S0019","27",1,1,1,3,0,NA,NA
"1956","S0019","28",1,1,1,5,0,NA,NA
"1957","S0019","29",1,1,1,6,0,NA,NA
"1958","S0019","30",1,1,1,5,0,NA,NA
"1959","S0019","31",1,1,1,2,0,NA,NA
"1960","S0019","32",1,1,1,5,0,NA,NA
"1961","S0019","57",1,1,1,5,1,NA,NA
"1962","S0019","58",1,1,1,4,1,NA,NA
"1963","S0019","59",1,1,1,2,1,NA,NA
"1964","S0019","60",1,1,1,6,1,NA,NA
"1965","S0019","61",1,1,1,7,1,NA,NA
"1966","S0019","62",1,1,1,6,1,NA,NA
"1967","S0019","63",1,1,1,6,1,NA,NA
"1968","S0019","64",1,1,1,7,1,NA,NA
"1969","S0019","89",1,1,1,2,0,NA,NA
"1970","S0019","90",1,1,1,5,0,NA,NA
"1971","S0019","91",1,1,1,3,0,NA,NA
"1972","S0019","92",1,1,1,4,0,NA,NA
"1973","S0019","93",1,1,1,4,0,NA,NA
"1974","S0019","94",1,1,1,5,0,NA,NA
"1975","S0019","95",1,1,1,6,0,NA,NA
"1976","S0019","96",1,1,1,2,0,NA,NA
"1977","S0019","121",1,1,1,6,1,NA,NA
"1978","S0019","122",1,1,1,3,1,NA,NA
"1979","S0019","123",1,1,1,6,1,NA,NA
"1980","S0019","124",1,1,1,5,1,NA,NA
"1981","S0019","125",1,1,1,6,1,NA,NA
"1982","S0019","126",1,1,1,6,1,NA,NA
"1983","S0019","127",1,1,1,6,1,NA,NA
"1984","S0019","128",1,1,1,7,1,NA,NA
"1985","S0019","1",2,1,1,2,1,NA,NA
"1986","S0019","2",2,1,1,2,1,NA,NA
"1987","S0019","3",2,1,1,7,1,NA,NA
"1988","S0019","4",2,1,1,4,1,NA,NA
"1989","S0019","5",2,1,1,3,1,NA,NA
"1990","S0019","6",2,1,1,3,1,NA,NA
"1991","S0019","7",2,1,1,6,1,NA,NA
"1992","S0019","8",2,1,1,5,1,NA,NA
"1993","S0019","33",2,1,1,6,0,NA,NA
"1994","S0019","34",2,1,1,5,0,NA,NA
"1995","S0019","35",2,1,1,4,0,NA,NA
"1996","S0019","36",2,1,1,3,0,NA,NA
"1997","S0019","37",2,1,1,5,0,NA,NA
"1998","S0019","38",2,1,1,6,0,NA,NA
"1999","S0019","39",2,1,1,2,0,NA,NA
"2000","S0019","40",2,1,1,6,0,NA,NA
"2001","S0019","65",2,1,1,6,1,NA,NA
"2002","S0019","66",2,1,1,7,1,NA,NA
"2003","S0019","67",2,1,1,2,1,NA,NA
"2004","S0019","68",2,1,1,4,1,NA,NA
"2005","S0019","69",2,1,1,7,1,NA,NA
"2006","S0019","70",2,1,1,6,1,NA,NA
"2007","S0019","71",2,1,1,6,1,NA,NA
"2008","S0019","72",2,1,1,7,1,NA,NA
"2009","S0019","97",2,1,1,6,0,NA,NA
"2010","S0019","98",2,1,1,2,0,NA,NA
"2011","S0019","99",2,1,1,5,0,NA,NA
"2012","S0019","100",2,1,1,2,0,NA,NA
"2013","S0019","101",2,1,1,4,0,NA,NA
"2014","S0019","102",2,1,1,2,0,NA,NA
"2015","S0019","103",2,1,1,6,0,NA,NA
"2016","S0019","104",2,1,1,2,0,NA,NA
"2017","S0019","9",3,1,1,5,1,NA,NA
"2018","S0019","10",3,1,1,4,1,NA,NA
"2019","S0019","11",3,1,1,6,1,NA,NA
"2020","S0019","12",3,1,1,6,1,NA,NA
"2021","S0019","13",3,1,1,6,1,NA,NA
"2022","S0019","14",3,1,1,5,1,NA,NA
"2023","S0019","15",3,1,1,4,1,NA,NA
"2024","S0019","16",3,1,1,6,1,NA,NA
"2025","S0019","41",3,1,1,6,0,NA,NA
"2026","S0019","42",3,1,1,1,0,NA,NA
"2027","S0019","43",3,1,1,5,0,NA,NA
"2028","S0019","44",3,1,1,6,0,NA,NA
"2029","S0019","45",3,1,1,3,0,NA,NA
"2030","S0019","46",3,1,1,2,0,NA,NA
"2031","S0019","47",3,1,1,6,0,NA,NA
"2032","S0019","48",3,1,1,2,0,NA,NA
"2033","S0019","73",3,1,1,5,1,NA,NA
"2034","S0019","74",3,1,1,6,1,NA,NA
"2035","S0019","75",3,1,1,2,1,NA,NA
"2036","S0019","76",3,1,1,2,1,NA,NA
"2037","S0019","77",3,1,1,7,1,NA,NA
"2038","S0019","78",3,1,1,6,1,NA,NA
"2039","S0019","79",3,1,1,2,1,NA,NA
"2040","S0019","80",3,1,1,2,1,NA,NA
"2041","S0019","105",3,1,1,4,0,NA,NA
"2042","S0019","106",3,1,1,4,0,NA,NA
"2043","S0019","107",3,1,1,2,0,NA,NA
"2044","S0019","108",3,1,1,6,0,NA,NA
"2045","S0019","109",3,1,1,1,0,NA,NA
"2046","S0019","110",3,1,1,2,0,NA,NA
"2047","S0019","111",3,1,1,2,0,NA,NA
"2048","S0019","112",3,1,1,3,0,NA,NA
"2049","S0019","17",4,1,1,1,1,NA,NA
"2050","S0019","18",4,1,1,2,1,NA,NA
"2051","S0019","19",4,1,1,6,1,NA,NA
"2052","S0019","20",4,1,1,6,1,NA,NA
"2053","S0019","21",4,1,1,1,1,NA,NA
"2054","S0019","22",4,1,1,7,1,NA,NA
"2055","S0019","23",4,1,1,6,1,NA,NA
"2056","S0019","24",4,1,1,6,1,NA,NA
"2057","S0019","49",4,1,1,2,0,NA,NA
"2058","S0019","50",4,1,1,4,0,NA,NA
"2059","S0019","51",4,1,1,1,0,NA,NA
"2060","S0019","52",4,1,1,6,0,NA,NA
"2061","S0019","53",4,1,1,6,0,NA,NA
"2062","S0019","54",4,1,1,6,0,NA,NA
"2063","S0019","55",4,1,1,6,0,NA,NA
"2064","S0019","56",4,1,1,5,0,NA,NA
"2065","S0019","81",4,1,1,3,1,NA,NA
"2066","S0019","82",4,1,1,4,1,NA,NA
"2067","S0019","83",4,1,1,6,1,NA,NA
"2068","S0019","84",4,1,1,1,1,NA,NA
"2069","S0019","85",4,1,1,1,1,NA,NA
"2070","S0019","86",4,1,1,6,1,NA,NA
"2071","S0019","87",4,1,1,6,1,NA,NA
"2072","S0019","88",4,1,1,2,1,NA,NA
"2073","S0019","113",4,1,1,1,0,NA,NA
"2074","S0019","114",4,1,1,4,0,NA,NA
"2075","S0019","115",4,1,1,4,0,NA,NA
"2076","S0019","116",4,1,1,2,0,NA,NA
"2077","S0019","117",4,1,1,6,0,NA,NA
"2078","S0019","118",4,1,1,4,0,NA,NA
"2079","S0019","119",4,1,1,2,0,NA,NA
"2080","S0019","120",4,1,1,7,0,NA,NA
"2081","S0020","9",1,1,1,4,1,NA,NA
"2082","S0020","10",1,1,1,4,1,NA,NA
"2083","S0020","11",1,1,1,4,1,NA,NA
"2084","S0020","12",1,1,1,4,1,NA,NA
"2085","S0020","13",1,1,1,4,1,NA,NA
"2086","S0020","14",1,1,1,4,1,NA,NA
"2087","S0020","15",1,1,1,4,1,NA,NA
"2088","S0020","16",1,1,1,5,1,NA,NA
"2089","S0020","41",1,1,1,4,0,NA,NA
"2090","S0020","42",1,1,1,4,0,NA,NA
"2091","S0020","43",1,1,1,4,0,NA,NA
"2092","S0020","44",1,1,1,4,0,NA,NA
"2093","S0020","45",1,1,1,4,0,NA,NA
"2094","S0020","46",1,1,1,4,0,NA,NA
"2095","S0020","47",1,1,1,4,0,NA,NA
"2096","S0020","48",1,1,1,4,0,NA,NA
"2097","S0020","73",1,1,1,4,1,NA,NA
"2098","S0020","74",1,1,1,4,1,NA,NA
"2099","S0020","75",1,1,1,4,1,NA,NA
"2100","S0020","76",1,1,1,5,1,NA,NA
"2101","S0020","77",1,1,1,4,1,NA,NA
"2102","S0020","78",1,1,1,4,1,NA,NA
"2103","S0020","79",1,1,1,4,1,NA,NA
"2104","S0020","80",1,1,1,4,1,NA,NA
"2105","S0020","105",1,1,1,4,0,NA,NA
"2106","S0020","106",1,1,1,4,0,NA,NA
"2107","S0020","107",1,1,1,4,0,NA,NA
"2108","S0020","108",1,1,1,4,0,NA,NA
"2109","S0020","109",1,1,1,4,0,NA,NA
"2110","S0020","110",1,1,1,4,0,NA,NA
"2111","S0020","111",1,1,1,4,0,NA,NA
"2112","S0020","112",1,1,1,4,0,NA,NA
"2113","S0020","17",2,1,1,4,1,NA,NA
"2114","S0020","18",2,1,1,4,1,NA,NA
"2115","S0020","19",2,1,1,2,1,NA,NA
"2116","S0020","20",2,1,1,4,1,NA,NA
"2117","S0020","21",2,1,1,5,1,NA,NA
"2118","S0020","22",2,1,1,5,1,NA,NA
"2119","S0020","23",2,1,1,5,1,NA,NA
"2120","S0020","24",2,1,1,4,1,NA,NA
"2121","S0020","49",2,1,1,4,0,NA,NA
"2122","S0020","50",2,1,1,4,0,NA,NA
"2123","S0020","51",2,1,1,5,0,NA,NA
"2124","S0020","52",2,1,1,5,0,NA,NA
"2125","S0020","53",2,1,1,4,0,NA,NA
"2126","S0020","54",2,1,1,4,0,NA,NA
"2127","S0020","55",2,1,1,5,0,NA,NA
"2128","S0020","56",2,1,1,4,0,NA,NA
"2129","S0020","81",2,1,1,4,1,NA,NA
"2130","S0020","82",2,1,1,4,1,NA,NA
"2131","S0020","83",2,1,1,4,1,NA,NA
"2132","S0020","84",2,1,1,6,1,NA,NA
"2133","S0020","85",2,1,1,5,1,NA,NA
"2134","S0020","86",2,1,1,4,1,NA,NA
"2135","S0020","87",2,1,1,4,1,NA,NA
"2136","S0020","88",2,1,1,4,1,NA,NA
"2137","S0020","113",2,1,1,4,0,NA,NA
"2138","S0020","114",2,1,1,3,0,NA,NA
"2139","S0020","115",2,1,1,4,0,NA,NA
"2140","S0020","116",2,1,1,4,0,NA,NA
"2141","S0020","117",2,1,1,4,0,NA,NA
"2142","S0020","118",2,1,1,4,0,NA,NA
"2143","S0020","119",2,1,1,5,0,NA,NA
"2144","S0020","120",2,1,1,3,0,NA,NA
"2145","S0020","25",3,1,1,4,1,NA,NA
"2146","S0020","26",3,1,1,4,1,NA,NA
"2147","S0020","27",3,1,1,5,1,NA,NA
"2148","S0020","28",3,1,1,4,1,NA,NA
"2149","S0020","29",3,1,1,4,1,NA,NA
"2150","S0020","30",3,1,1,4,1,NA,NA
"2151","S0020","31",3,1,1,3,1,NA,NA
"2152","S0020","32",3,1,1,4,1,NA,NA
"2153","S0020","57",3,1,1,4,0,NA,NA
"2154","S0020","58",3,1,1,4,0,NA,NA
"2155","S0020","59",3,1,1,1,0,NA,NA
"2156","S0020","60",3,1,1,4,0,NA,NA
"2157","S0020","61",3,1,1,4,0,NA,NA
"2158","S0020","62",3,1,1,4,0,NA,NA
"2159","S0020","63",3,1,1,4,0,NA,NA
"2160","S0020","64",3,1,1,5,0,NA,NA
"2161","S0020","89",3,1,1,4,1,NA,NA
"2162","S0020","90",3,1,1,5,1,NA,NA
"2163","S0020","91",3,1,1,6,1,NA,NA
"2164","S0020","92",3,1,1,4,1,NA,NA
"2165","S0020","93",3,1,1,4,1,NA,NA
"2166","S0020","94",3,1,1,4,1,NA,NA
"2167","S0020","95",3,1,1,4,1,NA,NA
"2168","S0020","96",3,1,1,5,1,NA,NA
"2169","S0020","121",3,1,1,5,0,NA,NA
"2170","S0020","122",3,1,1,4,0,NA,NA
"2171","S0020","123",3,1,1,4,0,NA,NA
"2172","S0020","124",3,1,1,4,0,NA,NA
"2173","S0020","125",3,1,1,4,0,NA,NA
"2174","S0020","126",3,1,1,4,0,NA,NA
"2175","S0020","127",3,1,1,4,0,NA,NA
"2176","S0020","128",3,1,1,4,0,NA,NA
"2177","S0020","1",4,1,1,4,0,NA,NA
"2178","S0020","2",4,1,1,4,0,NA,NA
"2179","S0020","3",4,1,1,4,0,NA,NA
"2180","S0020","4",4,1,1,4,0,NA,NA
"2181","S0020","5",4,1,1,4,0,NA,NA
"2182","S0020","6",4,1,1,3,0,NA,NA
"2183","S0020","7",4,1,1,2,0,NA,NA
"2184","S0020","8",4,1,1,4,0,NA,NA
"2185","S0020","33",4,1,1,5,1,NA,NA
"2186","S0020","34",4,1,1,4,1,NA,NA
"2187","S0020","35",4,1,1,4,1,NA,NA
"2188","S0020","36",4,1,1,4,1,NA,NA
"2189","S0020","37",4,1,1,4,1,NA,NA
"2190","S0020","38",4,1,1,4,1,NA,NA
"2191","S0020","39",4,1,1,1,1,NA,NA
"2192","S0020","40",4,1,1,4,1,NA,NA
"2193","S0020","65",4,1,1,4,0,NA,NA
"2194","S0020","66",4,1,1,7,0,NA,NA
"2195","S0020","67",4,1,1,3,0,NA,NA
"2196","S0020","68",4,1,1,4,0,NA,NA
"2197","S0020","69",4,1,1,3,0,NA,NA
"2198","S0020","70",4,1,1,4,0,NA,NA
"2199","S0020","71",4,1,1,4,0,NA,NA
"2200","S0020","72",4,1,1,5,0,NA,NA
"2201","S0020","97",4,1,1,4,1,NA,NA
"2202","S0020","98",4,1,1,3,1,NA,NA
"2203","S0020","99",4,1,1,4,1,NA,NA
"2204","S0020","100",4,1,1,3,1,NA,NA
"2205","S0020","101",4,1,1,4,1,NA,NA
"2206","S0020","102",4,1,1,4,1,NA,NA
"2207","S0020","103",4,1,1,2,1,NA,NA
"2208","S0020","104",4,1,1,4,1,NA,NA
"2209","S0021","9",1,1,1,3,1,NA,NA
"2210","S0021","10",1,1,1,4,1,NA,NA
"2211","S0021","11",1,1,1,4,1,NA,NA
"2212","S0021","12",1,1,1,6,1,NA,NA
"2213","S0021","13",1,1,1,5,1,NA,NA
"2214","S0021","14",1,1,1,5,1,NA,NA
"2215","S0021","15",1,1,1,1,1,NA,NA
"2216","S0021","16",1,1,1,7,1,NA,NA
"2217","S0021","41",1,1,1,5,0,NA,NA
"2218","S0021","42",1,1,1,6,0,NA,NA
"2219","S0021","43",1,1,1,5,0,NA,NA
"2220","S0021","44",1,1,1,6,0,NA,NA
"2221","S0021","45",1,1,1,5,0,NA,NA
"2222","S0021","46",1,1,1,5,0,NA,NA
"2223","S0021","47",1,1,1,6,0,NA,NA
"2224","S0021","48",1,1,1,6,0,NA,NA
"2225","S0021","73",1,1,1,6,1,NA,NA
"2226","S0021","74",1,1,1,5,1,NA,NA
"2227","S0021","75",1,1,1,5,1,NA,NA
"2228","S0021","76",1,1,1,5,1,NA,NA
"2229","S0021","77",1,1,1,4,1,NA,NA
"2230","S0021","78",1,1,1,4,1,NA,NA
"2231","S0021","79",1,1,1,5,1,NA,NA
"2232","S0021","80",1,1,1,3,1,NA,NA
"2233","S0021","105",1,1,1,6,0,NA,NA
"2234","S0021","106",1,1,1,5,0,NA,NA
"2235","S0021","107",1,1,1,6,0,NA,NA
"2236","S0021","108",1,1,1,4,0,NA,NA
"2237","S0021","109",1,1,1,7,0,NA,NA
"2238","S0021","110",1,1,1,5,0,NA,NA
"2239","S0021","111",1,1,1,5,0,NA,NA
"2240","S0021","112",1,1,1,4,0,NA,NA
"2241","S0021","17",2,1,1,1,1,NA,NA
"2242","S0021","18",2,1,1,4,1,NA,NA
"2243","S0021","19",2,1,1,6,1,NA,NA
"2244","S0021","20",2,1,1,4,1,NA,NA
"2245","S0021","21",2,1,1,2,1,NA,NA
"2246","S0021","22",2,1,1,3,1,NA,NA
"2247","S0021","23",2,1,1,2,1,NA,NA
"2248","S0021","24",2,1,1,4,1,NA,NA
"2249","S0021","49",2,1,1,2,0,NA,NA
"2250","S0021","50",2,1,1,6,0,NA,NA
"2251","S0021","51",2,1,1,7,0,NA,NA
"2252","S0021","52",2,1,1,7,0,NA,NA
"2253","S0021","53",2,1,1,5,0,NA,NA
"2254","S0021","54",2,1,1,7,0,NA,NA
"2255","S0021","55",2,1,1,6,0,NA,NA
"2256","S0021","56",2,1,1,4,0,NA,NA
"2257","S0021","81",2,1,1,4,1,NA,NA
"2258","S0021","82",2,1,1,2,1,NA,NA
"2259","S0021","83",2,1,1,6,1,NA,NA
"2260","S0021","84",2,1,1,6,1,NA,NA
"2261","S0021","85",2,1,1,4,1,NA,NA
"2262","S0021","86",2,1,1,3,1,NA,NA
"2263","S0021","87",2,1,1,2,1,NA,NA
"2264","S0021","88",2,1,1,4,1,NA,NA
"2265","S0021","113",2,1,1,4,0,NA,NA
"2266","S0021","114",2,1,1,6,0,NA,NA
"2267","S0021","115",2,1,1,4,0,NA,NA
"2268","S0021","116",2,1,1,2,0,NA,NA
"2269","S0021","117",2,1,1,6,0,NA,NA
"2270","S0021","118",2,1,1,6,0,NA,NA
"2271","S0021","119",2,1,1,6,0,NA,NA
"2272","S0021","120",2,1,1,2,0,NA,NA
"2273","S0021","25",3,1,1,5,1,NA,NA
"2274","S0021","26",3,1,1,4,1,NA,NA
"2275","S0021","27",3,1,1,6,1,NA,NA
"2276","S0021","28",3,1,1,5,1,NA,NA
"2277","S0021","29",3,1,1,4,1,NA,NA
"2278","S0021","30",3,1,1,5,1,NA,NA
"2279","S0021","31",3,1,1,6,1,NA,NA
"2280","S0021","32",3,1,1,6,1,NA,NA
"2281","S0021","57",3,1,1,4,0,NA,NA
"2282","S0021","58",3,1,1,5,0,NA,NA
"2283","S0021","59",3,1,1,4,0,NA,NA
"2284","S0021","60",3,1,1,1,0,NA,NA
"2285","S0021","61",3,1,1,7,0,NA,NA
"2286","S0021","62",3,1,1,6,0,NA,NA
"2287","S0021","63",3,1,1,4,0,NA,NA
"2288","S0021","64",3,1,1,4,0,NA,NA
"2289","S0021","89",3,1,1,5,1,NA,NA
"2290","S0021","90",3,1,1,4,1,NA,NA
"2291","S0021","91",3,1,1,6,1,NA,NA
"2292","S0021","92",3,1,1,5,1,NA,NA
"2293","S0021","93",3,1,1,5,1,NA,NA
"2294","S0021","94",3,1,1,5,1,NA,NA
"2295","S0021","95",3,1,1,6,1,NA,NA
"2296","S0021","96",3,1,1,5,1,NA,NA
"2297","S0021","121",3,1,1,4,0,NA,NA
"2298","S0021","122",3,1,1,5,0,NA,NA
"2299","S0021","123",3,1,1,6,0,NA,NA
"2300","S0021","124",3,1,1,5,0,NA,NA
"2301","S0021","125",3,1,1,6,0,NA,NA
"2302","S0021","126",3,1,1,6,0,NA,NA
"2303","S0021","127",3,1,1,4,0,NA,NA
"2304","S0021","128",3,1,1,4,0,NA,NA
"2305","S0021","1",4,1,1,7,0,NA,NA
"2306","S0021","2",4,1,1,4,0,NA,NA
"2307","S0021","3",4,1,1,4,0,NA,NA
"2308","S0021","4",4,1,1,5,0,NA,NA
"2309","S0021","5",4,1,1,6,0,NA,NA
"2310","S0021","6",4,1,1,5,0,NA,NA
"2311","S0021","7",4,1,1,6,0,NA,NA
"2312","S0021","8",4,1,1,5,0,NA,NA
"2313","S0021","33",4,1,1,4,1,NA,NA
"2314","S0021","34",4,1,1,6,1,NA,NA
"2315","S0021","35",4,1,1,6,1,NA,NA
"2316","S0021","36",4,1,1,4,1,NA,NA
"2317","S0021","37",4,1,1,5,1,NA,NA
"2318","S0021","38",4,1,1,4,1,NA,NA
"2319","S0021","39",4,1,1,5,1,NA,NA
"2320","S0021","40",4,1,1,5,1,NA,NA
"2321","S0021","65",4,1,1,5,0,NA,NA
"2322","S0021","66",4,1,1,7,0,NA,NA
"2323","S0021","67",4,1,1,4,0,NA,NA
"2324","S0021","68",4,1,1,5,0,NA,NA
"2325","S0021","69",4,1,1,7,0,NA,NA
"2326","S0021","70",4,1,1,5,0,NA,NA
"2327","S0021","71",4,1,1,4,0,NA,NA
"2328","S0021","72",4,1,1,4,0,NA,NA
"2329","S0021","97",4,1,1,4,1,NA,NA
"2330","S0021","98",4,1,1,6,1,NA,NA
"2331","S0021","99",4,1,1,7,1,NA,NA
"2332","S0021","100",4,1,1,6,1,NA,NA
"2333","S0021","101",4,1,1,4,1,NA,NA
"2334","S0021","102",4,1,1,4,1,NA,NA
"2335","S0021","103",4,1,1,6,1,NA,NA
"2336","S0021","104",4,1,1,6,1,NA,NA
"2337","S0023","17",1,1,1,5,1,NA,NA
"2338","S0023","18",1,1,1,5,1,NA,NA
"2339","S0023","19",1,1,1,5,1,NA,NA
"2340","S0023","20",1,1,1,5,1,NA,NA
"2341","S0023","21",1,1,1,5,1,NA,NA
"2342","S0023","22",1,1,1,5,1,NA,NA
"2343","S0023","23",1,1,1,5,1,NA,NA
"2344","S0023","24",1,1,1,5,1,NA,NA
"2345","S0023","49",1,1,1,5,0,NA,NA
"2346","S0023","50",1,1,1,4,0,NA,NA
"2347","S0023","51",1,1,1,4,0,NA,NA
"2348","S0023","52",1,1,1,4,0,NA,NA
"2349","S0023","53",1,1,1,2,0,NA,NA
"2350","S0023","54",1,1,1,1,0,NA,NA
"2351","S0023","55",1,1,1,6,0,NA,NA
"2352","S0023","56",1,1,1,4,0,NA,NA
"2353","S0023","81",1,1,1,5,1,NA,NA
"2354","S0023","82",1,1,1,5,1,NA,NA
"2355","S0023","83",1,1,1,5,1,NA,NA
"2356","S0023","84",1,1,1,7,1,NA,NA
"2357","S0023","85",1,1,1,5,1,NA,NA
"2358","S0023","86",1,1,1,5,1,NA,NA
"2359","S0023","87",1,1,1,5,1,NA,NA
"2360","S0023","88",1,1,1,5,1,NA,NA
"2361","S0023","113",1,1,1,3,0,NA,NA
"2362","S0023","114",1,1,1,4,0,NA,NA
"2363","S0023","115",1,1,1,4,0,NA,NA
"2364","S0023","116",1,1,1,2,0,NA,NA
"2365","S0023","117",1,1,1,6,0,NA,NA
"2366","S0023","118",1,1,1,4,0,NA,NA
"2367","S0023","119",1,1,1,4,0,NA,NA
"2368","S0023","120",1,1,1,1,0,NA,NA
"2369","S0023","25",2,1,1,4,1,NA,NA
"2370","S0023","26",2,1,1,1,1,NA,NA
"2371","S0023","27",2,1,1,5,1,NA,NA
"2372","S0023","28",2,1,1,5,1,NA,NA
"2373","S0023","29",2,1,1,5,1,NA,NA
"2374","S0023","30",2,1,1,5,1,NA,NA
"2375","S0023","31",2,1,1,1,1,NA,NA
"2376","S0023","32",2,1,1,5,1,NA,NA
"2377","S0023","57",2,1,1,4,0,NA,NA
"2378","S0023","58",2,1,1,6,0,NA,NA
"2379","S0023","59",2,1,1,1,0,NA,NA
"2380","S0023","60",2,1,1,4,0,NA,NA
"2381","S0023","61",2,1,1,1,0,NA,NA
"2382","S0023","62",2,1,1,4,0,NA,NA
"2383","S0023","63",2,1,1,4,0,NA,NA
"2384","S0023","64",2,1,1,4,0,NA,NA
"2385","S0023","89",2,1,1,5,1,NA,NA
"2386","S0023","90",2,1,1,4,1,NA,NA
"2387","S0023","91",2,1,1,6,1,NA,NA
"2388","S0023","92",2,1,1,4,1,NA,NA
"2389","S0023","93",2,1,1,4,1,NA,NA
"2390","S0023","94",2,1,1,5,1,NA,NA
"2391","S0023","95",2,1,1,5,1,NA,NA
"2392","S0023","96",2,1,1,5,1,NA,NA
"2393","S0023","121",2,1,1,5,0,NA,NA
"2394","S0023","122",2,1,1,5,0,NA,NA
"2395","S0023","123",2,1,1,4,0,NA,NA
"2396","S0023","124",2,1,1,5,0,NA,NA
"2397","S0023","125",2,1,1,4,0,NA,NA
"2398","S0023","126",2,1,1,4,0,NA,NA
"2399","S0023","127",2,1,1,3,0,NA,NA
"2400","S0023","128",2,1,1,6,0,NA,NA
"2401","S0023","1",3,1,1,4,0,NA,NA
"2402","S0023","2",3,1,1,4,0,NA,NA
"2403","S0023","3",3,1,1,5,0,NA,NA
"2404","S0023","4",3,1,1,5,0,NA,NA
"2405","S0023","5",3,1,1,3,0,NA,NA
"2406","S0023","6",3,1,1,4,0,NA,NA
"2407","S0023","7",3,1,1,4,0,NA,NA
"2408","S0023","8",3,1,1,4,0,NA,NA
"2409","S0023","33",3,1,1,5,1,NA,NA
"2410","S0023","34",3,1,1,4,1,NA,NA
"2411","S0023","35",3,1,1,4,1,NA,NA
"2412","S0023","36",3,1,1,4,1,NA,NA
"2413","S0023","37",3,1,1,4,1,NA,NA
"2414","S0023","38",3,1,1,5,1,NA,NA
"2415","S0023","39",3,1,1,4,1,NA,NA
"2416","S0023","40",3,1,1,3,1,NA,NA
"2417","S0023","65",3,1,1,5,0,NA,NA
"2418","S0023","66",3,1,1,7,0,NA,NA
"2419","S0023","67",3,1,1,4,0,NA,NA
"2420","S0023","68",3,1,1,4,0,NA,NA
"2421","S0023","69",3,1,1,6,0,NA,NA
"2422","S0023","70",3,1,1,4,0,NA,NA
"2423","S0023","71",3,1,1,4,0,NA,NA
"2424","S0023","72",3,1,1,3,0,NA,NA
"2425","S0023","97",3,1,1,4,1,NA,NA
"2426","S0023","98",3,1,1,3,1,NA,NA
"2427","S0023","99",3,1,1,4,1,NA,NA
"2428","S0023","100",3,1,1,4,1,NA,NA
"2429","S0023","101",3,1,1,4,1,NA,NA
"2430","S0023","102",3,1,1,5,1,NA,NA
"2431","S0023","103",3,1,1,5,1,NA,NA
"2432","S0023","104",3,1,1,5,1,NA,NA
"2433","S0023","9",4,1,1,5,0,NA,NA
"2434","S0023","10",4,1,1,4,0,NA,NA
"2435","S0023","11",4,1,1,4,0,NA,NA
"2436","S0023","12",4,1,1,4,0,NA,NA
"2437","S0023","13",4,1,1,2,0,NA,NA
"2438","S0023","14",4,1,1,4,0,NA,NA
"2439","S0023","15",4,1,1,4,0,NA,NA
"2440","S0023","16",4,1,1,1,0,NA,NA
"2441","S0023","41",4,1,1,4,1,NA,NA
"2442","S0023","42",4,1,1,4,1,NA,NA
"2443","S0023","43",4,1,1,5,1,NA,NA
"2444","S0023","44",4,1,1,4,1,NA,NA
"2445","S0023","45",4,1,1,4,1,NA,NA
"2446","S0023","46",4,1,1,3,1,NA,NA
"2447","S0023","47",4,1,1,5,1,NA,NA
"2448","S0023","48",4,1,1,4,1,NA,NA
"2449","S0023","73",4,1,1,4,0,NA,NA
"2450","S0023","74",4,1,1,4,0,NA,NA
"2451","S0023","75",4,1,1,3,0,NA,NA
"2452","S0023","76",4,1,1,3,0,NA,NA
"2453","S0023","77",4,1,1,4,0,NA,NA
"2454","S0023","78",4,1,1,4,0,NA,NA
"2455","S0023","79",4,1,1,4,0,NA,NA
"2456","S0023","80",4,1,1,4,0,NA,NA
"2457","S0023","105",4,1,1,3,1,NA,NA
"2458","S0023","106",4,1,1,3,1,NA,NA
"2459","S0023","107",4,1,1,4,1,NA,NA
"2460","S0023","108",4,1,1,5,1,NA,NA
"2461","S0023","109",4,1,1,3,1,NA,NA
"2462","S0023","110",4,1,1,4,1,NA,NA
"2463","S0023","111",4,1,1,5,1,NA,NA
"2464","S0023","112",4,1,1,4,1,NA,NA
"2465","S0024","1",1,1,1,4,0,NA,NA
"2466","S0024","2",1,1,1,4,0,NA,NA
"2467","S0024","3",1,1,1,4,0,NA,NA
"2468","S0024","4",1,1,1,4,0,NA,NA
"2469","S0024","5",1,1,1,4,0,NA,NA
"2470","S0024","6",1,1,1,4,0,NA,NA
"2471","S0024","7",1,1,1,4,0,NA,NA
"2472","S0024","8",1,1,1,4,0,NA,NA
"2473","S0024","33",1,1,1,5,1,NA,NA
"2474","S0024","34",1,1,1,5,1,NA,NA
"2475","S0024","35",1,1,1,5,1,NA,NA
"2476","S0024","36",1,1,1,4,1,NA,NA
"2477","S0024","37",1,1,1,5,1,NA,NA
"2478","S0024","38",1,1,1,5,1,NA,NA
"2479","S0024","39",1,1,1,5,1,NA,NA
"2480","S0024","40",1,1,1,5,1,NA,NA
"2481","S0024","65",1,1,1,4,0,NA,NA
"2482","S0024","66",1,1,1,6,0,NA,NA
"2483","S0024","67",1,1,1,4,0,NA,NA
"2484","S0024","68",1,1,1,4,0,NA,NA
"2485","S0024","69",1,1,1,7,0,NA,NA
"2486","S0024","70",1,1,1,4,0,NA,NA
"2487","S0024","71",1,1,1,4,0,NA,NA
"2488","S0024","72",1,1,1,7,0,NA,NA
"2489","S0024","97",1,1,1,5,1,NA,NA
"2490","S0024","98",1,1,1,5,1,NA,NA
"2491","S0024","99",1,1,1,5,1,NA,NA
"2492","S0024","100",1,1,1,5,1,NA,NA
"2493","S0024","101",1,1,1,5,1,NA,NA
"2494","S0024","102",1,1,1,5,1,NA,NA
"2495","S0024","103",1,1,1,4,1,NA,NA
"2496","S0024","104",1,1,1,4,1,NA,NA
"2497","S0024","9",2,1,1,4,0,NA,NA
"2498","S0024","10",2,1,1,4,0,NA,NA
"2499","S0024","11",2,1,1,4,0,NA,NA
"2500","S0024","12",2,1,1,4,0,NA,NA
"2501","S0024","13",2,1,1,4,0,NA,NA
"2502","S0024","14",2,1,1,4,0,NA,NA
"2503","S0024","15",2,1,1,4,0,NA,NA
"2504","S0024","16",2,1,1,5,0,NA,NA
"2505","S0024","41",2,1,1,4,1,NA,NA
"2506","S0024","42",2,1,1,5,1,NA,NA
"2507","S0024","43",2,1,1,4,1,NA,NA
"2508","S0024","44",2,1,1,5,1,NA,NA
"2509","S0024","45",2,1,1,4,1,NA,NA
"2510","S0024","46",2,1,1,4,1,NA,NA
"2511","S0024","47",2,1,1,4,1,NA,NA
"2512","S0024","48",2,1,1,4,1,NA,NA
"2513","S0024","73",2,1,1,4,0,NA,NA
"2514","S0024","74",2,1,1,4,0,NA,NA
"2515","S0024","75",2,1,1,4,0,NA,NA
"2516","S0024","76",2,1,1,5,0,NA,NA
"2517","S0024","77",2,1,1,5,0,NA,NA
"2518","S0024","78",2,1,1,4,0,NA,NA
"2519","S0024","79",2,1,1,4,0,NA,NA
"2520","S0024","80",2,1,1,3,0,NA,NA
"2521","S0024","105",2,1,1,4,1,NA,NA
"2522","S0024","106",2,1,1,4,1,NA,NA
"2523","S0024","107",2,1,1,4,1,NA,NA
"2524","S0024","108",2,1,1,5,1,NA,NA
"2525","S0024","109",2,1,1,6,1,NA,NA
"2526","S0024","110",2,1,1,4,1,NA,NA
"2527","S0024","111",2,1,1,4,1,NA,NA
"2528","S0024","112",2,1,1,4,1,NA,NA
"2529","S0024","17",3,1,1,4,0,NA,NA
"2530","S0024","18",3,1,1,4,0,NA,NA
"2531","S0024","19",3,1,1,4,0,NA,NA
"2532","S0024","20",3,1,1,4,0,NA,NA
"2533","S0024","21",3,1,1,4,0,NA,NA
"2534","S0024","22",3,1,1,4,0,NA,NA
"2535","S0024","23",3,1,1,4,0,NA,NA
"2536","S0024","24",3,1,1,4,0,NA,NA
"2537","S0024","49",3,1,1,4,1,NA,NA
"2538","S0024","50",3,1,1,4,1,NA,NA
"2539","S0024","51",3,1,1,4,1,NA,NA
"2540","S0024","52",3,1,1,4,1,NA,NA
"2541","S0024","53",3,1,1,4,1,NA,NA
"2542","S0024","54",3,1,1,4,1,NA,NA
"2543","S0024","55",3,1,1,4,1,NA,NA
"2544","S0024","56",3,1,1,5,1,NA,NA
"2545","S0024","81",3,1,1,4,0,NA,NA
"2546","S0024","82",3,1,1,4,0,NA,NA
"2547","S0024","83",3,1,1,4,0,NA,NA
"2548","S0024","84",3,1,1,5,0,NA,NA
"2549","S0024","85",3,1,1,4,0,NA,NA
"2550","S0024","86",3,1,1,4,0,NA,NA
"2551","S0024","87",3,1,1,4,0,NA,NA
"2552","S0024","88",3,1,1,4,0,NA,NA
"2553","S0024","113",3,1,1,4,1,NA,NA
"2554","S0024","114",3,1,1,4,1,NA,NA
"2555","S0024","115",3,1,1,7,1,NA,NA
"2556","S0024","116",3,1,1,4,1,NA,NA
"2557","S0024","117",3,1,1,7,1,NA,NA
"2558","S0024","118",3,1,1,4,1,NA,NA
"2559","S0024","119",3,1,1,6,1,NA,NA
"2560","S0024","120",3,1,1,4,1,NA,NA
"2561","S0024","25",4,1,1,4,0,NA,NA
"2562","S0024","26",4,1,1,4,0,NA,NA
"2563","S0024","27",4,1,1,4,0,NA,NA
"2564","S0024","28",4,1,1,3,0,NA,NA
"2565","S0024","29",4,1,1,4,0,NA,NA
"2566","S0024","30",4,1,1,4,0,NA,NA
"2567","S0024","31",4,1,1,4,0,NA,NA
"2568","S0024","32",4,1,1,4,0,NA,NA
"2569","S0024","57",4,1,1,4,1,NA,NA
"2570","S0024","58",4,1,1,4,1,NA,NA
"2571","S0024","59",4,1,1,5,1,NA,NA
"2572","S0024","60",4,1,1,4,1,NA,NA
"2573","S0024","61",4,1,1,5,1,NA,NA
"2574","S0024","62",4,1,1,3,1,NA,NA
"2575","S0024","63",4,1,1,4,1,NA,NA
"2576","S0024","64",4,1,1,6,1,NA,NA
"2577","S0024","89",4,1,1,4,0,NA,NA
"2578","S0024","90",4,1,1,4,0,NA,NA
"2579","S0024","91",4,1,1,4,0,NA,NA
"2580","S0024","92",4,1,1,4,0,NA,NA
"2581","S0024","93",4,1,1,4,0,NA,NA
"2582","S0024","94",4,1,1,4,0,NA,NA
"2583","S0024","95",4,1,1,4,0,NA,NA
"2584","S0024","96",4,1,1,4,0,NA,NA
"2585","S0024","121",4,1,1,4,1,NA,NA
"2586","S0024","122",4,1,1,4,1,NA,NA
"2587","S0024","123",4,1,1,4,1,NA,NA
"2588","S0024","124",4,1,1,4,1,NA,NA
"2589","S0024","125",4,1,1,5,1,NA,NA
"2590","S0024","126",4,1,1,4,1,NA,NA
"2591","S0024","127",4,1,1,4,1,NA,NA
"2592","S0024","128",4,1,1,4,1,NA,NA
"2593","S0025","17",1,1,1,6,1,NA,NA
"2594","S0025","18",1,1,1,6,1,NA,NA
"2595","S0025","19",1,1,1,6,1,NA,NA
"2596","S0025","20",1,1,1,7,1,NA,NA
"2597","S0025","21",1,1,1,7,1,NA,NA
"2598","S0025","22",1,1,1,7,1,NA,NA
"2599","S0025","23",1,1,1,6,1,NA,NA
"2600","S0025","24",1,1,1,5,1,NA,NA
"2601","S0025","49",1,1,1,4,0,NA,NA
"2602","S0025","50",1,1,1,1,0,NA,NA
"2603","S0025","51",1,1,1,4,0,NA,NA
"2604","S0025","52",1,1,1,5,0,NA,NA
"2605","S0025","53",1,1,1,4,0,NA,NA
"2606","S0025","54",1,1,1,6,0,NA,NA
"2607","S0025","55",1,1,1,4,0,NA,NA
"2608","S0025","56",1,1,1,4,0,NA,NA
"2609","S0025","81",1,1,1,6,1,NA,NA
"2610","S0025","82",1,1,1,4,1,NA,NA
"2611","S0025","83",1,1,1,7,1,NA,NA
"2612","S0025","84",1,1,1,7,1,NA,NA
"2613","S0025","85",1,1,1,7,1,NA,NA
"2614","S0025","86",1,1,1,7,1,NA,NA
"2615","S0025","87",1,1,1,7,1,NA,NA
"2616","S0025","88",1,1,1,7,1,NA,NA
"2617","S0025","113",1,1,1,4,0,NA,NA
"2618","S0025","114",1,1,1,4,0,NA,NA
"2619","S0025","115",1,1,1,4,0,NA,NA
"2620","S0025","116",1,1,1,5,0,NA,NA
"2621","S0025","117",1,1,1,6,0,NA,NA
"2622","S0025","118",1,1,1,5,0,NA,NA
"2623","S0025","119",1,1,1,4,0,NA,NA
"2624","S0025","120",1,1,1,3,0,NA,NA
"2625","S0025","25",2,1,1,4,1,NA,NA
"2626","S0025","26",2,1,1,6,1,NA,NA
"2627","S0025","27",2,1,1,7,1,NA,NA
"2628","S0025","28",2,1,1,6,1,NA,NA
"2629","S0025","29",2,1,1,4,1,NA,NA
"2630","S0025","30",2,1,1,6,1,NA,NA
"2631","S0025","31",2,1,1,6,1,NA,NA
"2632","S0025","32",2,1,1,6,1,NA,NA
"2633","S0025","57",2,1,1,4,0,NA,NA
"2634","S0025","58",2,1,1,4,0,NA,NA
"2635","S0025","59",2,1,1,4,0,NA,NA
"2636","S0025","60",2,1,1,4,0,NA,NA
"2637","S0025","61",2,1,1,5,0,NA,NA
"2638","S0025","62",2,1,1,4,0,NA,NA
"2639","S0025","63",2,1,1,4,0,NA,NA
"2640","S0025","64",2,1,1,5,0,NA,NA
"2641","S0025","89",2,1,1,5,1,NA,NA
"2642","S0025","90",2,1,1,7,1,NA,NA
"2643","S0025","91",2,1,1,6,1,NA,NA
"2644","S0025","92",2,1,1,4,1,NA,NA
"2645","S0025","93",2,1,1,5,1,NA,NA
"2646","S0025","94",2,1,1,5,1,NA,NA
"2647","S0025","95",2,1,1,6,1,NA,NA
"2648","S0025","96",2,1,1,4,1,NA,NA
"2649","S0025","121",2,1,1,2,0,NA,NA
"2650","S0025","122",2,1,1,5,0,NA,NA
"2651","S0025","123",2,1,1,7,0,NA,NA
"2652","S0025","124",2,1,1,6,0,NA,NA
"2653","S0025","125",2,1,1,4,0,NA,NA
"2654","S0025","126",2,1,1,4,0,NA,NA
"2655","S0025","127",2,1,1,7,0,NA,NA
"2656","S0025","128",2,1,1,4,0,NA,NA
"2657","S0026","25",1,1,1,5,1,NA,NA
"2658","S0026","26",1,1,1,1,1,NA,NA
"2659","S0026","27",1,1,1,5,1,NA,NA
"2660","S0026","28",1,1,1,7,1,NA,NA
"2661","S0026","29",1,1,1,5,1,NA,NA
"2662","S0026","30",1,1,1,5,1,NA,NA
"2663","S0026","31",1,1,1,3,1,NA,NA
"2664","S0026","32",1,1,1,3,1,NA,NA
"2665","S0026","57",1,1,1,5,0,NA,NA
"2666","S0026","58",1,1,1,6,0,NA,NA
"2667","S0026","59",1,1,1,1,0,NA,NA
"2668","S0026","60",1,1,1,5,0,NA,NA
"2669","S0026","61",1,1,1,7,0,NA,NA
"2670","S0026","62",1,1,1,3,0,NA,NA
"2671","S0026","63",1,1,1,4,0,NA,NA
"2672","S0026","64",1,1,1,6,0,NA,NA
"2673","S0026","89",1,1,1,6,1,NA,NA
"2674","S0026","90",1,1,1,5,1,NA,NA
"2675","S0026","91",1,1,1,1,1,NA,NA
"2676","S0026","92",1,1,1,7,1,NA,NA
"2677","S0026","93",1,1,1,2,1,NA,NA
"2678","S0026","94",1,1,1,5,1,NA,NA
"2679","S0026","95",1,1,1,6,1,NA,NA
"2680","S0026","96",1,1,1,5,1,NA,NA
"2681","S0026","121",1,1,1,2,0,NA,NA
"2682","S0026","122",1,1,1,4,0,NA,NA
"2683","S0026","123",1,1,1,7,0,NA,NA
"2684","S0026","124",1,1,1,6,0,NA,NA
"2685","S0026","125",1,1,1,3,0,NA,NA
"2686","S0026","126",1,1,1,7,0,NA,NA
"2687","S0026","127",1,1,1,5,0,NA,NA
"2688","S0026","128",1,1,1,6,0,NA,NA
"2689","S0027","17",1,1,1,4,0,NA,NA
"2690","S0027","18",1,1,1,4,0,NA,NA
"2691","S0027","19",1,1,1,5,0,NA,NA
"2692","S0027","20",1,1,1,5,0,NA,NA
"2693","S0027","21",1,1,1,2,0,NA,NA
"2694","S0027","22",1,1,1,5,0,NA,NA
"2695","S0027","23",1,1,1,5,0,NA,NA
"2696","S0027","24",1,1,1,5,0,NA,NA
"2697","S0027","49",1,1,1,3,1,NA,NA
"2698","S0027","50",1,1,1,5,1,NA,NA
"2699","S0027","51",1,1,1,4,1,NA,NA
"2700","S0027","52",1,1,1,5,1,NA,NA
"2701","S0027","53",1,1,1,5,1,NA,NA
"2702","S0027","54",1,1,1,5,1,NA,NA
"2703","S0027","55",1,1,1,5,1,NA,NA
"2704","S0027","56",1,1,1,6,1,NA,NA
"2705","S0027","81",1,1,1,5,0,NA,NA
"2706","S0027","82",1,1,1,5,0,NA,NA
"2707","S0027","83",1,1,1,5,0,NA,NA
"2708","S0027","84",1,1,1,2,0,NA,NA
"2709","S0027","85",1,1,1,6,0,NA,NA
"2710","S0027","86",1,1,1,3,0,NA,NA
"2711","S0027","87",1,1,1,5,0,NA,NA
"2712","S0027","88",1,1,1,5,0,NA,NA
"2713","S0027","113",1,1,1,6,1,NA,NA
"2714","S0027","114",1,1,1,5,1,NA,NA
"2715","S0027","115",1,1,1,5,1,NA,NA
"2716","S0027","116",1,1,1,4,1,NA,NA
"2717","S0027","117",1,1,1,4,1,NA,NA
"2718","S0027","118",1,1,1,4,1,NA,NA
"2719","S0027","119",1,1,1,3,1,NA,NA
"2720","S0027","120",1,1,1,5,1,NA,NA
"2721","S0027","25",2,1,1,4,0,NA,NA
"2722","S0027","26",2,1,1,4,0,NA,NA
"2723","S0027","27",2,1,1,4,0,NA,NA
"2724","S0027","28",2,1,1,5,0,NA,NA
"2725","S0027","29",2,1,1,3,0,NA,NA
"2726","S0027","30",2,1,1,3,0,NA,NA
"2727","S0027","31",2,1,1,3,0,NA,NA
"2728","S0027","32",2,1,1,5,0,NA,NA
"2729","S0027","57",2,1,1,3,1,NA,NA
"2730","S0027","58",2,1,1,6,1,NA,NA
"2731","S0027","59",2,1,1,4,1,NA,NA
"2732","S0027","60",2,1,1,3,1,NA,NA
"2733","S0027","61",2,1,1,3,1,NA,NA
"2734","S0027","62",2,1,1,5,1,NA,NA
"2735","S0027","63",2,1,1,4,1,NA,NA
"2736","S0027","64",2,1,1,6,1,NA,NA
"2737","S0027","89",2,1,1,3,0,NA,NA
"2738","S0027","90",2,1,1,4,0,NA,NA
"2739","S0027","91",2,1,1,5,0,NA,NA
"2740","S0027","92",2,1,1,4,0,NA,NA
"2741","S0027","93",2,1,1,5,0,NA,NA
"2742","S0027","94",2,1,1,4,0,NA,NA
"2743","S0027","95",2,1,1,5,0,NA,NA
"2744","S0027","96",2,1,1,5,0,NA,NA
"2745","S0027","121",2,1,1,5,1,NA,NA
"2746","S0027","122",2,1,1,5,1,NA,NA
"2747","S0027","123",2,1,1,5,1,NA,NA
"2748","S0027","124",2,1,1,5,1,NA,NA
"2749","S0027","125",2,1,1,4,1,NA,NA
"2750","S0027","126",2,1,1,5,1,NA,NA
"2751","S0027","127",2,1,1,6,1,NA,NA
"2752","S0027","128",2,1,1,5,1,NA,NA
"2753","S0027","1",3,1,1,5,1,NA,NA
"2754","S0027","2",3,1,1,4,1,NA,NA
"2755","S0027","3",3,1,1,5,1,NA,NA
"2756","S0027","4",3,1,1,5,1,NA,NA
"2757","S0027","5",3,1,1,5,1,NA,NA
"2758","S0027","6",3,1,1,5,1,NA,NA
"2759","S0027","7",3,1,1,3,1,NA,NA
"2760","S0027","8",3,1,1,5,1,NA,NA
"2761","S0027","33",3,1,1,3,0,NA,NA
"2762","S0027","34",3,1,1,5,0,NA,NA
"2763","S0027","35",3,1,1,4,0,NA,NA
"2764","S0027","36",3,1,1,5,0,NA,NA
"2765","S0027","37",3,1,1,4,0,NA,NA
"2766","S0027","38",3,1,1,5,0,NA,NA
"2767","S0027","39",3,1,1,5,0,NA,NA
"2768","S0027","40",3,1,1,4,0,NA,NA
"2769","S0027","65",3,1,1,5,1,NA,NA
"2770","S0027","66",3,1,1,5,1,NA,NA
"2771","S0027","67",3,1,1,3,1,NA,NA
"2772","S0027","68",3,1,1,4,1,NA,NA
"2773","S0027","69",3,1,1,2,1,NA,NA
"2774","S0027","70",3,1,1,5,1,NA,NA
"2775","S0027","71",3,1,1,5,1,NA,NA
"2776","S0027","72",3,1,1,7,1,NA,NA
"2777","S0027","97",3,1,1,3,0,NA,NA
"2778","S0027","98",3,1,1,3,0,NA,NA
"2779","S0027","99",3,1,1,4,0,NA,NA
"2780","S0027","100",3,1,1,4,0,NA,NA
"2781","S0027","101",3,1,1,4,0,NA,NA
"2782","S0027","102",3,1,1,5,0,NA,NA
"2783","S0027","103",3,1,1,6,0,NA,NA
"2784","S0027","104",3,1,1,5,0,NA,NA
"2785","S0027","9",4,1,1,5,1,NA,NA
"2786","S0027","10",4,1,1,5,1,NA,NA
"2787","S0027","11",4,1,1,5,1,NA,NA
"2788","S0027","12",4,1,1,5,1,NA,NA
"2789","S0027","13",4,1,1,5,1,NA,NA
"2790","S0027","14",4,1,1,5,1,NA,NA
"2791","S0027","15",4,1,1,5,1,NA,NA
"2792","S0027","16",4,1,1,6,1,NA,NA
