"","subject","statement_identifier","presentation_identifier","within_identifier","between_identifier","response","repeated","rt","trial"
"1",1,1,"TimePressureTest1","easy",1,NA,1,NA,389
"2",1,2,"TimePressureTest1","easy",1,1,1,0.532,392
"3",1,3,"TimePressureTest1","easy",1,1,1,0.302,394
"4",1,4,"TimePressureTest1","difficult",1,NA,0,NA,395
"5",1,5,"TimePressureTest1","difficult",1,0,1,0.307,396
"6",1,6,"TimePressureTest1","easy",1,NA,0,NA,398
"7",1,7,"TimePressureTest1","difficult",1,NA,1,NA,399
"8",1,8,"TimePressureTest1","easy",1,NA,0,NA,400
"9",1,9,"TimePressureTest1","difficult",1,NA,1,NA,401
"10",1,10,"TimePressureTest1","difficult",1,NA,0,NA,402
"11",1,11,"TimePressureTest1","easy",1,NA,0,NA,405
"12",1,12,"TimePressureTest1","difficult",1,NA,0,NA,407
"13",1,13,"TimePressureTest1","easy",1,NA,0,NA,408
"14",1,14,"TimePressureTest1","easy",1,NA,1,NA,410
"15",1,15,"TimePressureTest1","easy",1,NA,0,NA,411
"16",1,16,"TimePressureTest1","easy",1,NA,1,NA,412
"17",1,17,"TimePressureTest1","difficult",1,NA,0,NA,413
"18",1,18,"TimePressureTest1","difficult",1,NA,1,NA,414
"19",1,19,"TimePressureTest1","difficult",1,NA,0,NA,415
"20",1,20,"TimePressureTest1","difficult",1,NA,1,NA,416
"21",1,21,"TimePressureTest1","easy",1,1,1,0.699,417
"22",1,22,"TimePressureTest1","difficult",1,NA,0,NA,418
"23",1,23,"TimePressureTest1","easy",1,NA,0,NA,419
"24",1,24,"TimePressureTest1","difficult",1,NA,1,NA,420
"25",1,25,"TimePressureTest2","easy",1,NA,1,NA,421
"26",1,26,"TimePressureTest2","easy",1,NA,0,NA,422
"27",1,27,"TimePressureTest2","easy",1,NA,0,NA,423
"28",1,28,"TimePressureTest2","easy",1,1,1,0.361,424
"29",1,29,"TimePressureTest2","difficult",1,NA,0,NA,426
"30",1,30,"TimePressureTest2","difficult",1,1,1,0.753,427
"31",1,31,"TimePressureTest2","easy",1,NA,1,NA,428
"32",1,32,"TimePressureTest2","difficult",1,NA,0,NA,429
"33",1,33,"TimePressureTest2","difficult",1,1,1,0.278,431
"34",1,34,"TimePressureTest2","difficult",1,1,1,0.379,432
"35",1,35,"TimePressureTest2","easy",1,NA,0,NA,433
"36",1,36,"TimePressureTest2","difficult",1,NA,0,NA,434
"37",1,37,"TimePressureTest2","difficult",1,NA,1,NA,435
"38",1,38,"TimePressureTest2","easy",1,NA,0,NA,437
"39",1,39,"TimePressureTest2","difficult",1,NA,0,NA,438
"40",1,40,"TimePressureTest2","easy",1,1,1,0.36,439
"41",1,41,"TimePressureTest2","difficult",1,NA,0,NA,441
"42",1,42,"TimePressureTest2","easy",1,NA,0,NA,442
"43",1,43,"TimePressureTest2","easy",1,NA,0,NA,444
"44",1,44,"TimePressureTest2","easy",1,NA,1,NA,445
"45",1,45,"TimePressureTest2","easy",1,NA,1,NA,447
"46",1,46,"TimePressureTest2","difficult",1,NA,1,NA,449
"47",1,47,"TimePressureTest2","difficult",1,0,1,0.483,450
"48",1,48,"TimePressureTest2","difficult",1,NA,0,NA,452
"49",100,33,"TimePressureTest1","difficult",1,0,0,0.056,390
"50",100,8,"TimePressureTest1","easy",1,0,1,0.219,391
"51",100,10,"TimePressureTest1","difficult",1,1,1,0.193,392
"52",100,17,"TimePressureTest1","difficult",1,1,1,0.053,394
"53",100,14,"TimePressureTest1","easy",1,0,0,0.272,395
"54",100,49,"TimePressureTest1","easy",1,0,1,0.089,397
"55",100,29,"TimePressureTest1","difficult",1,0,1,0.181,399
"56",100,22,"TimePressureTest1","difficult",1,0,1,0.165,400
"57",100,25,"TimePressureTest1","easy",1,1,0,0.248,402
"58",100,37,"TimePressureTest1","difficult",1,0,0,0.232,403
"59",100,50,"TimePressureTest1","easy",1,1,1,0.105,404
"60",100,51,"TimePressureTest1","easy",1,0,1,0.198,405
"61",100,52,"TimePressureTest1","easy",1,0,0,0.029,406
"62",100,47,"TimePressureTest1","difficult",1,0,0,0.186,407
"63",100,53,"TimePressureTest1","difficult",1,0,1,0.322,408
"64",100,38,"TimePressureTest1","easy",1,0,1,0.04,409
"65",100,21,"TimePressureTest1","easy",1,NA,0,NA,411
"66",100,54,"TimePressureTest1","easy",1,1,0,0.174,412
"67",100,44,"TimePressureTest1","easy",1,0,0,0.138,413
"68",100,7,"TimePressureTest1","difficult",1,0,0,0.261,415
"69",100,55,"TimePressureTest1","difficult",1,0,0,0.062,416
"70",100,23,"TimePressureTest1","easy",1,1,1,0.24,417
"71",100,56,"TimePressureTest1","difficult",1,0,0,0.184,418
"72",100,57,"TimePressureTest1","difficult",1,0,1,0.311,420
"73",100,19,"TimePressureTest2","difficult",1,0,1,0.306,421
"74",100,58,"TimePressureTest2","difficult",1,0,0,0.115,422
"75",100,59,"TimePressureTest2","difficult",1,0,0,0.221,424
"76",100,5,"TimePressureTest2","difficult",1,1,0,0.198,426
"77",100,18,"TimePressureTest2","difficult",1,0,0,0.188,427
"78",100,60,"TimePressureTest2","easy",1,NA,0,NA,429
"79",100,61,"TimePressureTest2","difficult",1,1,1,0.235,430
"80",100,12,"TimePressureTest2","difficult",1,1,1,0.229,431
"81",100,40,"TimePressureTest2","easy",1,1,0,0.056,432
"82",100,1,"TimePressureTest2","easy",1,0,0,0.317,433
"83",100,6,"TimePressureTest2","easy",1,1,1,0.173,434
"84",100,36,"TimePressureTest2","difficult",1,NA,1,NA,436
"85",100,27,"TimePressureTest2","easy",1,0,1,0.3,437
"86",100,62,"TimePressureTest2","difficult",1,NA,1,NA,439
"87",100,63,"TimePressureTest2","easy",1,0,1,0.1,440
"88",100,13,"TimePressureTest2","easy",1,0,1,0.146,441
"89",100,64,"TimePressureTest2","easy",1,1,1,0.204,442
"90",100,65,"TimePressureTest2","difficult",1,1,0,0.209,443
"91",100,66,"TimePressureTest2","easy",1,1,1,0.324,445
"92",100,28,"TimePressureTest2","easy",1,1,0,0.199,446
"93",100,67,"TimePressureTest2","easy",1,0,0,0.175,447
"94",100,20,"TimePressureTest2","difficult",1,1,0,0.367,448
"95",100,41,"TimePressureTest2","difficult",1,NA,1,NA,449
"96",100,45,"TimePressureTest2","easy",1,0,0,0.143,452
"97",101,10,"NoPressureTest1","difficult",1,1,1,1.157,390
"98",101,64,"NoPressureTest1","easy",1,1,1,0.772,392
"99",101,15,"NoPressureTest1","easy",1,0,1,2.027,393
"100",101,4,"NoPressureTest1","difficult",1,1,1,0.616,396
"101",101,45,"NoPressureTest1","easy",1,0,0,0.478,397
"102",101,2,"NoPressureTest1","easy",1,0,0,1.903,398
"103",101,12,"NoPressureTest1","difficult",1,1,1,0.283,399
"104",101,49,"NoPressureTest1","easy",1,0,1,0.487,400
"105",101,17,"NoPressureTest1","difficult",1,1,1,0.326,401
"106",101,51,"NoPressureTest1","easy",1,0,1,0.943,402
"107",101,22,"NoPressureTest1","difficult",1,1,1,0.418,404
"108",101,16,"NoPressureTest1","easy",1,1,0,3.037,405
"109",101,1,"NoPressureTest1","easy",1,1,0,1.437,407
"110",101,7,"NoPressureTest1","difficult",1,0,0,0.539,408
"111",101,58,"NoPressureTest1","difficult",1,0,0,1.095,409
"112",101,18,"NoPressureTest1","difficult",1,1,0,2.018,411
"113",101,42,"NoPressureTest1","easy",1,1,1,3.017,412
"114",101,47,"NoPressureTest1","difficult",1,0,0,0.409,413
"115",101,3,"NoPressureTest1","easy",1,1,0,2.595,414
"116",101,54,"NoPressureTest1","easy",1,0,0,0.684,415
"117",101,68,"NoPressureTest1","difficult",1,1,1,0.739,417
"118",101,26,"NoPressureTest1","easy",1,1,1,2.131,418
"119",101,37,"NoPressureTest1","difficult",1,1,0,1.027,419
"120",101,5,"NoPressureTest1","difficult",1,1,0,0.462,420
"121",101,20,"NoPressureTest2","difficult",1,1,0,1.075,421
"122",101,61,"NoPressureTest2","difficult",1,1,1,1.288,422
"123",101,6,"NoPressureTest2","easy",1,1,1,2.407,423
"124",101,24,"NoPressureTest2","difficult",1,0,0,0.922,425
"125",101,69,"NoPressureTest2","easy",1,0,0,1.704,426
"126",101,62,"NoPressureTest2","difficult",1,0,1,1.094,427
"127",101,28,"NoPressureTest2","easy",1,1,0,0.808,428
"128",101,36,"NoPressureTest2","difficult",1,1,1,0.624,429
"129",101,39,"NoPressureTest2","difficult",1,0,1,0.898,430
"130",101,56,"NoPressureTest2","difficult",1,0,0,1.713,431
"131",101,67,"NoPressureTest2","easy",1,1,0,0.859,433
"132",101,35,"NoPressureTest2","easy",1,1,1,0.596,435
"133",101,70,"NoPressureTest2","easy",1,1,0,2.095,436
"134",101,8,"NoPressureTest2","easy",1,1,1,1.714,438
"135",101,59,"NoPressureTest2","difficult",1,0,0,1.284,439
"136",101,25,"NoPressureTest2","easy",1,1,0,2.529,440
"137",101,65,"NoPressureTest2","difficult",1,0,0,3.136,443
"138",101,11,"NoPressureTest2","easy",1,0,1,0.809,444
"139",101,19,"NoPressureTest2","difficult",1,1,1,2.272,445
"140",101,46,"NoPressureTest2","difficult",1,1,0,0.385,446
"141",101,50,"NoPressureTest2","easy",1,1,1,1.217,447
"142",101,44,"NoPressureTest2","easy",1,0,0,0.8,448
"143",101,32,"NoPressureTest2","difficult",1,0,1,0.642,449
"144",101,38,"NoPressureTest2","easy",1,1,1,0.341,451
"145",102,48,"NoPressureTest1","difficult",1,1,1,2.281,389
"146",102,67,"NoPressureTest1","easy",1,1,0,3.038,390
"147",102,7,"NoPressureTest1","difficult",1,0,0,1.52,391
"148",102,36,"NoPressureTest1","difficult",1,0,1,5.556,392
"149",102,6,"NoPressureTest1","easy",1,1,1,0.372,393
"150",102,42,"NoPressureTest1","easy",1,0,1,0.796,394
"151",102,24,"NoPressureTest1","difficult",1,0,0,0.602,395
"152",102,57,"NoPressureTest1","difficult",1,0,1,1.615,396
"153",102,60,"NoPressureTest1","easy",1,1,0,1.755,398
"154",102,47,"NoPressureTest1","difficult",1,0,0,1.267,401
"155",102,40,"NoPressureTest1","easy",1,1,0,0.598,402
"156",102,16,"NoPressureTest1","easy",1,1,0,2.014,403
"157",102,62,"NoPressureTest1","difficult",1,0,1,3.155,404
"158",102,37,"NoPressureTest1","difficult",1,0,0,1.716,405
"159",102,43,"NoPressureTest1","easy",1,1,1,4.545,406
"160",102,61,"NoPressureTest1","difficult",1,1,1,2.569,407
"161",102,33,"NoPressureTest1","difficult",1,0,0,0.797,409
"162",102,41,"NoPressureTest1","difficult",1,0,1,4.629,411
"163",102,45,"NoPressureTest1","easy",1,0,0,2.701,414
"164",102,63,"NoPressureTest1","easy",1,0,1,0.3,416
"165",102,38,"NoPressureTest1","easy",1,1,1,0.381,417
"166",102,1,"NoPressureTest1","easy",1,0,0,2.917,418
"167",102,71,"NoPressureTest1","difficult",1,1,0,2.133,419
"168",102,51,"NoPressureTest1","easy",1,0,1,2.953,420
"169",102,28,"NoPressureTest2","easy",1,0,0,1.065,421
"170",102,15,"NoPressureTest2","easy",1,1,1,0.296,423
"171",102,58,"NoPressureTest2","difficult",1,0,0,0.28,424
"172",102,13,"NoPressureTest2","easy",1,0,1,3.583,425
"173",102,9,"NoPressureTest2","difficult",1,0,0,3.074,426
"174",102,5,"NoPressureTest2","difficult",1,0,0,3.699,427
"175",102,26,"NoPressureTest2","easy",1,1,1,0.49,428
"176",102,14,"NoPressureTest2","easy",1,0,0,0.325,429
"177",102,55,"NoPressureTest2","difficult",1,0,0,0.554,430
"178",102,29,"NoPressureTest2","difficult",1,0,1,3.468,431
"179",102,27,"NoPressureTest2","easy",1,0,1,3.054,433
"180",102,39,"NoPressureTest2","difficult",1,1,1,2.549,434
"181",102,25,"NoPressureTest2","easy",1,0,0,2.009,435
"182",102,2,"NoPressureTest2","easy",1,0,0,7.16,437
"183",102,23,"NoPressureTest2","easy",1,1,1,0.581,438
"184",102,30,"NoPressureTest2","difficult",1,1,0,2.881,439
"185",102,31,"NoPressureTest2","easy",1,1,0,5.204,441
"186",102,19,"NoPressureTest2","difficult",1,1,1,3.78,442
"187",102,65,"NoPressureTest2","difficult",1,1,0,4.033,443
"188",102,12,"NoPressureTest2","difficult",1,1,1,8.263,444
"189",102,21,"NoPressureTest2","easy",1,0,0,4.967,446
"190",102,32,"NoPressureTest2","difficult",1,0,1,4.652,448
"191",102,4,"NoPressureTest2","difficult",1,1,1,1.953,451
"192",102,11,"NoPressureTest2","easy",1,0,1,0.931,452
"193",103,3,"NoPressureTest1","easy",1,1,1,3.897,389
"194",103,28,"NoPressureTest1","easy",1,1,1,2.948,390
"195",103,21,"NoPressureTest1","easy",1,0,1,2.16,391
"196",103,35,"NoPressureTest1","easy",1,0,0,9.673,394
"197",103,30,"NoPressureTest1","difficult",1,0,1,2.885,396
"198",103,2,"NoPressureTest1","easy",1,0,1,2.934,397
"199",103,48,"NoPressureTest1","difficult",1,0,0,3.556,398
"200",103,31,"NoPressureTest1","easy",1,0,1,0.273,399
"201",103,20,"NoPressureTest1","difficult",1,0,1,0.28,400
"202",103,50,"NoPressureTest1","easy",1,0,0,8.168,401
"203",103,8,"NoPressureTest1","easy",1,0,0,4.391,404
"204",103,62,"NoPressureTest1","difficult",1,0,0,3.864,406
"205",103,55,"NoPressureTest1","difficult",1,0,1,0.285,407
"206",103,68,"NoPressureTest1","difficult",1,1,0,2.004,408
"207",103,59,"NoPressureTest1","difficult",1,1,1,4.068,409
"208",103,12,"NoPressureTest1","difficult",1,1,0,3.322,410
"209",103,37,"NoPressureTest1","difficult",1,1,1,0.42,411
"210",103,46,"NoPressureTest1","difficult",1,0,1,3.013,413
"211",103,23,"NoPressureTest1","easy",1,1,0,9.651,415
"212",103,14,"NoPressureTest1","easy",1,0,1,1.553,416
"213",103,41,"NoPressureTest1","difficult",1,1,0,4.615,417
"214",103,42,"NoPressureTest1","easy",1,0,0,1.805,418
"215",103,10,"NoPressureTest1","difficult",1,0,0,3.715,419
"216",103,6,"NoPressureTest1","easy",1,1,0,0.656,420
"217",103,1,"NoPressureTest2","easy",1,0,1,1.357,421
"218",103,54,"NoPressureTest2","easy",1,1,1,0.402,424
"219",103,66,"NoPressureTest2","easy",1,1,0,11.276,425
"220",103,9,"NoPressureTest2","difficult",1,0,1,1.026,427
"221",103,47,"NoPressureTest2","difficult",1,1,1,0.231,428
"222",103,18,"NoPressureTest2","difficult",1,1,1,6.133,429
"223",103,17,"NoPressureTest2","difficult",1,1,0,7.387,430
"224",103,22,"NoPressureTest2","difficult",1,1,0,1.099,431
"225",103,45,"NoPressureTest2","easy",1,1,1,0.261,432
"226",103,60,"NoPressureTest2","easy",1,1,1,0.264,434
"227",103,4,"NoPressureTest2","difficult",1,1,0,0.704,435
"228",103,64,"NoPressureTest2","easy",1,1,0,0.28,438
"229",103,26,"NoPressureTest2","easy",1,0,0,2.773,439
"230",103,53,"NoPressureTest2","difficult",1,0,0,6.209,440
"231",103,34,"NoPressureTest2","difficult",1,1,1,3.608,441
"232",103,44,"NoPressureTest2","easy",1,0,1,4.494,442
"233",103,58,"NoPressureTest2","difficult",1,0,1,5.377,443
"234",103,11,"NoPressureTest2","easy",1,1,0,7.777,444
"235",103,63,"NoPressureTest2","easy",1,0,0,0.287,445
"236",103,57,"NoPressureTest2","difficult",1,1,0,5.77,446
"237",103,16,"NoPressureTest2","easy",1,1,1,3.821,448
"238",103,27,"NoPressureTest2","easy",1,1,0,4.408,449
"239",103,24,"NoPressureTest2","difficult",1,1,1,0.305,450
"240",103,61,"NoPressureTest2","difficult",1,0,0,4.665,451
"241",104,33,"TimePressureTest1","difficult",1,1,1,0.213,389
"242",104,11,"TimePressureTest1","easy",1,NA,0,NA,390
"243",104,26,"TimePressureTest1","easy",1,1,0,0.251,392
"244",104,72,"TimePressureTest1","difficult",1,NA,0,NA,393
"245",104,37,"TimePressureTest1","difficult",1,1,1,0.239,394
"246",104,38,"TimePressureTest1","easy",1,1,0,0.145,395
"247",104,45,"TimePressureTest1","easy",1,1,1,0.131,396
"248",104,14,"TimePressureTest1","easy",1,NA,1,NA,397
"249",104,61,"TimePressureTest1","difficult",1,NA,0,NA,398
"250",104,65,"TimePressureTest1","difficult",1,1,1,0.239,399
"251",104,68,"TimePressureTest1","difficult",1,NA,0,NA,402
"252",104,28,"TimePressureTest1","easy",1,1,1,0.166,404
"253",104,66,"TimePressureTest1","easy",1,1,0,0.216,406
"254",104,59,"TimePressureTest1","difficult",1,1,1,0.105,407
"255",104,60,"TimePressureTest1","easy",1,NA,1,NA,409
"256",104,69,"TimePressureTest1","easy",1,0,1,0.201,410
"257",104,9,"TimePressureTest1","difficult",1,1,1,0.286,411
"258",104,41,"TimePressureTest1","difficult",1,1,0,0.038,412
"259",104,42,"TimePressureTest1","easy",1,0,0,0.161,413
"260",104,36,"TimePressureTest1","difficult",1,1,0,0.087,414
"261",104,57,"TimePressureTest1","difficult",1,0,0,0.17,415
"262",104,16,"TimePressureTest1","easy",1,NA,1,NA,416
"263",104,51,"TimePressureTest1","easy",1,NA,0,NA,418
"264",104,34,"TimePressureTest1","difficult",1,1,1,0.185,419
"265",104,29,"TimePressureTest2","difficult",1,NA,0,NA,421
"266",104,64,"TimePressureTest2","easy",1,0,0,0.172,422
"267",104,49,"TimePressureTest2","easy",1,NA,0,NA,423
"268",104,52,"TimePressureTest2","easy",1,0,1,0.175,424
"269",104,54,"TimePressureTest2","easy",1,1,1,0.151,425
"270",104,50,"TimePressureTest2","easy",1,1,0,0.173,426
"271",104,39,"TimePressureTest2","difficult",1,1,0,0.282,428
"272",104,7,"TimePressureTest2","difficult",1,1,1,0.207,429
"273",104,32,"TimePressureTest2","difficult",1,1,0,0.213,432
"274",104,70,"TimePressureTest2","easy",1,1,1,0.119,436
"275",104,46,"TimePressureTest2","difficult",1,1,1,0.166,438
"276",104,25,"TimePressureTest2","easy",1,1,1,0.211,439
"277",104,62,"TimePressureTest2","difficult",1,1,0,0.259,440
"278",104,35,"TimePressureTest2","easy",1,0,0,0.235,441
"279",104,20,"TimePressureTest2","difficult",1,0,1,0.199,442
"280",104,6,"TimePressureTest2","easy",1,1,0,0.175,444
"281",104,44,"TimePressureTest2","easy",1,0,1,0.08,445
"282",104,5,"TimePressureTest2","difficult",1,0,1,0.158,446
"283",104,12,"TimePressureTest2","difficult",1,1,0,0.3,447
"284",104,47,"TimePressureTest2","difficult",1,0,1,0.277,448
"285",104,13,"TimePressureTest2","easy",1,NA,0,NA,449
"286",104,2,"TimePressureTest2","easy",1,0,1,0.116,450
"287",104,30,"TimePressureTest2","difficult",1,0,1,0.291,451
"288",104,19,"TimePressureTest2","difficult",1,NA,0,NA,452
"289",106,59,"TimePressureTest1","difficult",1,1,0,0.165,389
"290",106,10,"TimePressureTest1","difficult",1,1,1,0.159,390
"291",106,26,"TimePressureTest1","easy",1,NA,1,NA,391
"292",106,30,"TimePressureTest1","difficult",1,1,0,0.025,392
"293",106,23,"TimePressureTest1","easy",1,1,1,0.214,394
"294",106,21,"TimePressureTest1","easy",1,0,0,0.204,395
"295",106,52,"TimePressureTest1","easy",1,1,0,0.017,396
"296",106,35,"TimePressureTest1","easy",1,0,1,0.236,397
"297",106,45,"TimePressureTest1","easy",1,1,0,0.241,398
"298",106,4,"TimePressureTest1","difficult",1,0,1,0.245,399
"299",106,16,"TimePressureTest1","easy",1,0,0,0.204,401
"300",106,38,"TimePressureTest1","easy",1,1,1,0.042,402
"301",106,7,"TimePressureTest1","difficult",1,1,0,0.247,403
"302",106,31,"TimePressureTest1","easy",1,1,0,0.099,404
"303",106,17,"TimePressureTest1","difficult",1,1,1,0.01,405
"304",106,48,"TimePressureTest1","difficult",1,1,1,0.104,406
"305",106,27,"TimePressureTest1","easy",1,NA,1,NA,407
"306",106,65,"TimePressureTest1","difficult",1,0,0,0.143,409
"307",106,55,"TimePressureTest1","difficult",1,0,0,0.158,410
"308",106,11,"TimePressureTest1","easy",1,0,1,0.195,411
"309",106,70,"TimePressureTest1","easy",1,1,0,0.15,416
"310",106,57,"TimePressureTest1","difficult",1,0,1,0.061,417
"311",106,37,"TimePressureTest1","difficult",1,NA,0,NA,418
"312",106,22,"TimePressureTest1","difficult",1,0,1,0.203,419
"313",106,13,"TimePressureTest2","easy",1,1,1,0.002,421
"314",106,8,"TimePressureTest2","easy",1,0,1,0.223,423
"315",106,29,"TimePressureTest2","difficult",1,1,1,0.142,424
"316",106,68,"TimePressureTest2","difficult",1,1,1,0.171,425
"317",106,54,"TimePressureTest2","easy",1,1,0,0.166,427
"318",106,40,"TimePressureTest2","easy",1,1,0,0.142,428
"319",106,69,"TimePressureTest2","easy",1,0,0,0.212,429
"320",106,24,"TimePressureTest2","difficult",1,1,0,0.16,430
"321",106,58,"TimePressureTest2","difficult",1,1,0,0.219,433
"322",106,32,"TimePressureTest2","difficult",1,1,1,0.176,435
"323",106,12,"TimePressureTest2","difficult",1,1,1,0.029,436
"324",106,5,"TimePressureTest2","difficult",1,0,0,0.162,437
"325",106,6,"TimePressureTest2","easy",1,1,1,0.135,438
"326",106,2,"TimePressureTest2","easy",1,NA,0,NA,439
"327",106,43,"TimePressureTest2","easy",1,NA,1,NA,440
"328",106,67,"TimePressureTest2","easy",1,0,0,0.123,441
"329",106,3,"TimePressureTest2","easy",1,1,0,0.161,442
"330",106,15,"TimePressureTest2","easy",1,NA,1,NA,444
"331",106,39,"TimePressureTest2","difficult",1,1,1,0.17,446
"332",106,51,"TimePressureTest2","easy",1,1,1,0.195,447
"333",106,62,"TimePressureTest2","difficult",1,0,1,0.099,448
"334",106,9,"TimePressureTest2","difficult",1,NA,0,NA,450
"335",106,71,"TimePressureTest2","difficult",1,0,0,0.061,451
"336",106,47,"TimePressureTest2","difficult",1,1,0,0.185,452
"337",107,50,"NoPressureTest1","easy",1,1,1,1.953,389
"338",107,39,"NoPressureTest1","difficult",1,0,1,0.664,390
"339",107,30,"NoPressureTest1","difficult",1,1,0,1.098,392
"340",107,40,"NoPressureTest1","easy",1,0,0,0.576,393
"341",107,21,"NoPressureTest1","easy",1,1,0,1.069,394
"342",107,46,"NoPressureTest1","difficult",1,0,0,0.942,395
"343",107,51,"NoPressureTest1","easy",1,0,1,0.373,396
"344",107,5,"NoPressureTest1","difficult",1,0,0,2.481,397
"345",107,14,"NoPressureTest1","easy",1,0,0,0.483,399
"346",107,44,"NoPressureTest1","easy",1,1,0,0.36,401
"347",107,15,"NoPressureTest1","easy",1,1,1,0.262,403
"348",107,68,"NoPressureTest1","difficult",1,1,1,0.333,404
"349",107,55,"NoPressureTest1","difficult",1,0,0,0.495,405
"350",107,28,"NoPressureTest1","easy",1,0,0,0.903,406
"351",107,29,"NoPressureTest1","difficult",1,0,1,1.265,408
"352",107,26,"NoPressureTest1","easy",1,1,1,0.571,409
"353",107,48,"NoPressureTest1","difficult",1,1,1,0.299,411
"354",107,49,"NoPressureTest1","easy",1,0,1,0.712,412
"355",107,20,"NoPressureTest1","difficult",1,1,0,1.992,413
"356",107,72,"NoPressureTest1","difficult",1,1,1,1.333,414
"357",107,63,"NoPressureTest1","easy",1,0,1,0.289,415
"358",107,31,"NoPressureTest1","easy",1,0,0,0.803,417
"359",107,9,"NoPressureTest1","difficult",1,1,0,1.267,419
"360",107,4,"NoPressureTest1","difficult",1,1,1,1.558,420
"361",107,67,"NoPressureTest2","easy",1,1,0,0.421,421
"362",107,33,"NoPressureTest2","difficult",1,1,0,0.646,423
"363",107,70,"NoPressureTest2","easy",1,1,0,0.302,424
"364",107,1,"NoPressureTest2","easy",1,0,0,1.605,425
"365",107,52,"NoPressureTest2","easy",1,1,0,1.248,426
"366",107,61,"NoPressureTest2","difficult",1,1,1,1.925,428
"367",107,18,"NoPressureTest2","difficult",1,0,0,0.772,429
"368",107,23,"NoPressureTest2","easy",1,0,1,2.705,430
"369",107,7,"NoPressureTest2","difficult",1,0,0,0.528,432
"370",107,16,"NoPressureTest2","easy",1,1,0,0.67,433
"371",107,71,"NoPressureTest2","difficult",1,0,0,0.685,434
"372",107,11,"NoPressureTest2","easy",1,0,1,1.083,435
"373",107,36,"NoPressureTest2","difficult",1,1,1,0.585,437
"374",107,64,"NoPressureTest2","easy",1,1,1,0.197,438
"375",107,60,"NoPressureTest2","easy",1,1,0,1.765,439
"376",107,27,"NoPressureTest2","easy",1,0,1,1.263,440
"377",107,65,"NoPressureTest2","difficult",1,0,0,3.141,442
"378",107,58,"NoPressureTest2","difficult",1,1,0,1.12,443
"379",107,22,"NoPressureTest2","difficult",1,0,1,0.943,444
"380",107,6,"NoPressureTest2","easy",1,1,1,0.477,447
"381",107,57,"NoPressureTest2","difficult",1,0,1,0.339,448
"382",107,32,"NoPressureTest2","difficult",1,0,1,0.408,449
"383",107,10,"NoPressureTest2","difficult",1,1,1,0.245,451
"384",107,42,"NoPressureTest2","easy",1,0,1,0.204,452
"385",108,58,"NoPressureTest1","difficult",1,0,0,1.764,389
"386",108,1,"NoPressureTest1","easy",1,0,0,3.053,390
"387",108,69,"NoPressureTest1","easy",1,0,0,0.996,391
"388",108,60,"NoPressureTest1","easy",1,1,0,2.686,392
"389",108,8,"NoPressureTest1","easy",1,1,1,3.82,393
"390",108,50,"NoPressureTest1","easy",1,1,1,4.747,397
"391",108,38,"NoPressureTest1","easy",1,1,1,0.568,399
"392",108,33,"NoPressureTest1","difficult",1,1,0,2.192,400
"393",108,49,"NoPressureTest1","easy",1,1,1,1.222,401
"394",108,30,"NoPressureTest1","difficult",1,0,0,1.802,402
"395",108,63,"NoPressureTest1","easy",1,1,1,1.072,404
"396",108,64,"NoPressureTest1","easy",1,1,1,1.239,405
"397",108,20,"NoPressureTest1","difficult",1,1,0,1.541,406
"398",108,48,"NoPressureTest1","difficult",1,0,1,1.126,407
"399",108,32,"NoPressureTest1","difficult",1,0,1,2.46,408
"400",108,65,"NoPressureTest1","difficult",1,0,0,2.158,409
"401",108,45,"NoPressureTest1","easy",1,0,0,3.263,411
"402",108,28,"NoPressureTest1","easy",1,1,0,2.563,412
"403",108,62,"NoPressureTest1","difficult",1,0,1,1.372,413
"404",108,57,"NoPressureTest1","difficult",1,1,1,1.229,415
"405",108,16,"NoPressureTest1","easy",1,1,0,1.382,417
"406",108,41,"NoPressureTest1","difficult",1,1,1,1.661,418
"407",108,46,"NoPressureTest1","difficult",1,0,0,2.628,419
"408",108,68,"NoPressureTest1","difficult",1,1,1,0.886,420
"409",108,40,"NoPressureTest2","easy",1,1,0,0.39,421
"410",108,17,"NoPressureTest2","difficult",1,1,1,0.751,423
"411",108,2,"NoPressureTest2","easy",1,1,0,1.008,425
"412",108,43,"NoPressureTest2","easy",1,1,1,3.489,426
"413",108,18,"NoPressureTest2","difficult",1,0,0,2.497,427
"414",108,37,"NoPressureTest2","difficult",1,0,0,1.687,428
"415",108,53,"NoPressureTest2","difficult",1,1,1,1.311,430
"416",108,19,"NoPressureTest2","difficult",1,1,1,2.025,431
"417",108,4,"NoPressureTest2","difficult",1,0,1,1.863,433
"418",108,23,"NoPressureTest2","easy",1,1,1,0.549,435
"419",108,11,"NoPressureTest2","easy",1,1,1,0.781,436
"420",108,42,"NoPressureTest2","easy",1,0,1,0.995,438
"421",108,21,"NoPressureTest2","easy",1,1,0,1.257,439
"422",108,59,"NoPressureTest2","difficult",1,1,0,2.53,440
"423",108,9,"NoPressureTest2","difficult",1,1,0,1.184,441
"424",108,36,"NoPressureTest2","difficult",1,1,1,1.34,442
"425",108,3,"NoPressureTest2","easy",1,1,0,1.55,443
"426",108,27,"NoPressureTest2","easy",1,1,1,1.888,444
"427",108,10,"NoPressureTest2","difficult",1,1,1,0.556,445
"428",108,24,"NoPressureTest2","difficult",1,0,0,0.603,446
"429",108,67,"NoPressureTest2","easy",1,1,0,1.381,447
"430",108,5,"NoPressureTest2","difficult",1,1,0,2.093,449
"431",108,15,"NoPressureTest2","easy",1,0,1,1.999,451
"432",108,44,"NoPressureTest2","easy",1,0,0,2.286,452
"433",110,39,"NoPressureTest1","difficult",1,1,1,0.801,389
"434",110,2,"NoPressureTest1","easy",1,1,0,0.922,390
"435",110,24,"NoPressureTest1","difficult",1,0,0,0.748,391
"436",110,11,"NoPressureTest1","easy",1,0,1,0.411,392
"437",110,33,"NoPressureTest1","difficult",1,1,0,1.23,394
"438",110,10,"NoPressureTest1","difficult",1,1,1,0.451,395
"439",110,57,"NoPressureTest1","difficult",1,1,1,1.63,396
"440",110,7,"NoPressureTest1","difficult",1,0,0,2.068,398
"441",110,4,"NoPressureTest1","difficult",1,0,1,0.666,399
"442",110,25,"NoPressureTest1","easy",1,0,0,0.431,403
"443",110,41,"NoPressureTest1","difficult",1,0,1,0.483,404
"444",110,56,"NoPressureTest1","difficult",1,0,0,0.527,405
"445",110,54,"NoPressureTest1","easy",1,0,0,1.027,406
"446",110,47,"NoPressureTest1","difficult",1,0,0,0.394,408
"447",110,6,"NoPressureTest1","easy",1,1,1,0.346,410
"448",110,70,"NoPressureTest1","easy",1,1,0,0.419,411
"449",110,43,"NoPressureTest1","easy",1,1,1,2.237,412
"450",110,18,"NoPressureTest1","difficult",1,0,0,0.585,413
"451",110,12,"NoPressureTest1","difficult",1,1,1,1.384,415
"452",110,38,"NoPressureTest1","easy",1,1,1,0.307,416
"453",110,31,"NoPressureTest1","easy",1,0,0,1.377,417
"454",110,8,"NoPressureTest1","easy",1,0,1,0.367,418
"455",110,1,"NoPressureTest1","easy",1,0,0,1.865,419
"456",110,35,"NoPressureTest1","easy",1,0,1,0.312,420
"457",110,46,"NoPressureTest2","difficult",1,0,0,1.782,421
"458",110,14,"NoPressureTest2","easy",1,0,0,1.493,422
"459",110,49,"NoPressureTest2","easy",1,1,1,0.363,423
"460",110,40,"NoPressureTest2","easy",1,1,0,0.479,427
"461",110,22,"NoPressureTest2","difficult",1,1,1,0.467,428
"462",110,67,"NoPressureTest2","easy",1,1,0,0.524,429
"463",110,55,"NoPressureTest2","difficult",1,1,0,0.779,430
"464",110,68,"NoPressureTest2","difficult",1,1,1,0.265,432
"465",110,59,"NoPressureTest2","difficult",1,1,0,0.627,434
"466",110,63,"NoPressureTest2","easy",1,0,1,0.128,435
"467",110,21,"NoPressureTest2","easy",1,1,0,1.015,436
"468",110,64,"NoPressureTest2","easy",1,0,1,0.408,437
"469",110,20,"NoPressureTest2","difficult",1,0,0,0.609,438
"470",110,45,"NoPressureTest2","easy",1,0,0,0.225,439
"471",110,50,"NoPressureTest2","easy",1,1,1,1.389,440
"472",110,29,"NoPressureTest2","difficult",1,0,1,0.862,441
"473",110,17,"NoPressureTest2","difficult",1,1,1,0.653,442
"474",110,61,"NoPressureTest2","difficult",1,0,1,0.553,443
"475",110,16,"NoPressureTest2","easy",1,1,0,0.246,444
"476",110,26,"NoPressureTest2","easy",1,0,1,0.309,445
"477",110,36,"NoPressureTest2","difficult",1,1,1,0.262,446
"478",110,30,"NoPressureTest2","difficult",1,1,0,0.815,450
"479",110,9,"NoPressureTest2","difficult",1,0,0,1.524,451
"480",110,42,"NoPressureTest2","easy",1,0,1,0.387,452
"481",112,11,"NoPressureTest1","easy",1,0,0,1.642,389
"482",112,19,"NoPressureTest1","difficult",1,0,0,2.515,390
"483",112,37,"NoPressureTest1","difficult",1,1,1,2.704,392
"484",112,47,"NoPressureTest1","difficult",1,1,1,0.972,393
"485",112,40,"NoPressureTest1","easy",1,1,1,0.803,394
"486",112,46,"NoPressureTest1","difficult",1,1,1,1.31,396
"487",112,17,"NoPressureTest1","difficult",1,0,0,4.064,398
"488",112,60,"NoPressureTest1","easy",1,1,1,0.997,399
"489",112,66,"NoPressureTest1","easy",1,1,0,2.555,400
"490",112,31,"NoPressureTest1","easy",1,0,1,2.664,402
"491",112,22,"NoPressureTest1","difficult",1,0,0,2.027,403
"492",112,25,"NoPressureTest1","easy",1,0,1,3.178,404
"493",112,4,"NoPressureTest1","difficult",1,1,0,1.105,405
"494",112,24,"NoPressureTest1","difficult",1,1,1,1.06,407
"495",112,26,"NoPressureTest1","easy",1,1,0,1.516,409
"496",112,44,"NoPressureTest1","easy",1,0,1,3.453,410
"497",112,71,"NoPressureTest1","difficult",1,0,1,3.462,411
"498",112,51,"NoPressureTest1","easy",1,0,0,2.334,412
"499",112,42,"NoPressureTest1","easy",1,0,0,1.63,414
"500",112,55,"NoPressureTest1","difficult",1,1,1,2.059,415
"501",112,15,"NoPressureTest1","easy",1,1,0,4.276,416
"502",112,39,"NoPressureTest1","difficult",1,1,0,2.705,418
"503",112,14,"NoPressureTest1","easy",1,0,1,1.772,419
"504",112,41,"NoPressureTest1","difficult",1,0,0,0.744,420
"505",112,35,"NoPressureTest2","easy",1,0,0,1.657,421
"506",112,62,"NoPressureTest2","difficult",1,0,0,1.175,423
"507",112,56,"NoPressureTest2","difficult",1,1,1,2.351,426
"508",112,16,"NoPressureTest2","easy",1,1,1,2.29,427
"509",112,27,"NoPressureTest2","easy",1,1,0,4.308,429
"510",112,18,"NoPressureTest2","difficult",1,0,1,1.984,430
"511",112,7,"NoPressureTest2","difficult",1,0,1,1.781,431
"512",112,10,"NoPressureTest2","difficult",1,0,0,5.106,432
"513",112,2,"NoPressureTest2","easy",1,0,1,1.119,433
"514",112,1,"NoPressureTest2","easy",1,1,1,1.368,434
"515",112,48,"NoPressureTest2","difficult",1,0,0,4.743,436
"516",112,33,"NoPressureTest2","difficult",1,1,1,1.421,438
"517",112,9,"NoPressureTest2","difficult",1,0,1,1.364,439
"518",112,59,"NoPressureTest2","difficult",1,0,1,4.49,440
"519",112,49,"NoPressureTest2","easy",1,0,0,0.456,441
"520",112,61,"NoPressureTest2","difficult",1,0,0,1.887,442
"521",112,36,"NoPressureTest2","difficult",1,1,0,0.738,444
"522",112,45,"NoPressureTest2","easy",1,1,1,1.673,445
"523",112,64,"NoPressureTest2","easy",1,1,0,3.003,446
"524",112,28,"NoPressureTest2","easy",1,1,1,1.988,447
"525",112,23,"NoPressureTest2","easy",1,1,0,0.81,448
"526",112,21,"NoPressureTest2","easy",1,1,1,1.331,449
"527",112,6,"NoPressureTest2","easy",1,1,0,0.884,450
"528",112,57,"NoPressureTest2","difficult",1,0,0,3.166,452
"529",115,67,"TimePressureTest1","easy",1,1,1,0.172,390
"530",115,61,"TimePressureTest1","difficult",1,NA,0,NA,391
"531",115,57,"TimePressureTest1","difficult",1,0,0,0.429,392
"532",115,6,"TimePressureTest1","easy",1,1,0,0.218,394
"533",115,29,"TimePressureTest1","difficult",1,1,0,0.272,397
"534",115,8,"TimePressureTest1","easy",1,0,0,0.004,398
"535",115,45,"TimePressureTest1","easy",1,NA,1,NA,399
"536",115,58,"TimePressureTest1","difficult",1,0,1,0.155,400
"537",115,65,"TimePressureTest1","difficult",1,1,1,0.263,401
"538",115,64,"TimePressureTest1","easy",1,0,0,0.319,403
"539",115,22,"TimePressureTest1","difficult",1,0,0,0.197,404
"540",115,25,"TimePressureTest1","easy",1,1,1,0.221,405
"541",115,19,"TimePressureTest1","difficult",1,NA,0,NA,406
"542",115,56,"TimePressureTest1","difficult",1,1,1,0.215,407
"543",115,20,"TimePressureTest1","difficult",1,1,1,0.215,409
"544",115,21,"TimePressureTest1","easy",1,1,1,0.239,411
"545",115,43,"TimePressureTest1","easy",1,0,0,0.402,412
"546",115,55,"TimePressureTest1","difficult",1,0,1,0.222,413
"547",115,10,"TimePressureTest1","difficult",1,NA,0,NA,414
"548",115,11,"TimePressureTest1","easy",1,0,0,0.2,415
"549",115,27,"TimePressureTest1","easy",1,0,0,0.211,416
"550",115,16,"TimePressureTest1","easy",1,1,1,0.213,417
"551",115,59,"TimePressureTest1","difficult",1,0,1,0.302,419
"552",115,44,"TimePressureTest1","easy",1,0,1,0.23,420
"553",115,1,"TimePressureTest2","easy",1,0,1,0.269,421
"554",115,50,"TimePressureTest2","easy",1,NA,0,NA,422
"555",115,42,"TimePressureTest2","easy",1,0,0,0.257,423
"556",115,53,"TimePressureTest2","difficult",1,0,0,0.301,424
"557",115,28,"TimePressureTest2","easy",1,1,1,0.236,425
"558",115,54,"TimePressureTest2","easy",1,1,1,0.26,426
"559",115,49,"TimePressureTest2","easy",1,0,0,0.205,427
"560",115,18,"TimePressureTest2","difficult",1,0,1,0.27,428
"561",115,5,"TimePressureTest2","difficult",1,1,1,0.014,431
"562",115,7,"TimePressureTest2","difficult",1,0,1,0.344,432
"563",115,12,"TimePressureTest2","difficult",1,NA,0,NA,433
"564",115,33,"TimePressureTest2","difficult",1,0,1,0.274,434
"565",115,72,"TimePressureTest2","difficult",1,NA,0,NA,435
"566",115,30,"TimePressureTest2","difficult",1,1,1,0.005,436
"567",115,38,"TimePressureTest2","easy",1,1,0,0.235,438
"568",115,51,"TimePressureTest2","easy",1,0,0,0.237,439
"569",115,9,"TimePressureTest2","difficult",1,0,1,0.383,441
"570",115,39,"TimePressureTest2","difficult",1,1,0,0.296,442
"571",115,4,"TimePressureTest2","difficult",1,NA,0,NA,445
"572",115,70,"TimePressureTest2","easy",1,1,1,0.181,448
"573",115,23,"TimePressureTest2","easy",1,1,0,0.209,449
"574",115,14,"TimePressureTest2","easy",1,0,1,0.182,450
"575",115,2,"TimePressureTest2","easy",1,0,1,0.24,451
"576",115,62,"TimePressureTest2","difficult",1,0,0,0.441,452
"577",116,14,"NoPressureTest1","easy",1,0,1,1.069,390
"578",116,50,"NoPressureTest1","easy",1,1,0,0.551,391
"579",116,42,"NoPressureTest1","easy",1,0,0,0.264,393
"580",116,54,"NoPressureTest1","easy",1,1,1,1.655,394
"581",116,72,"NoPressureTest1","difficult",1,1,0,3.052,395
"582",116,34,"NoPressureTest1","difficult",1,1,1,0.469,396
"583",116,57,"NoPressureTest1","difficult",1,0,0,0.233,397
"584",116,17,"NoPressureTest1","difficult",1,0,0,1.309,399
"585",116,37,"NoPressureTest1","difficult",1,1,1,0.668,400
"586",116,24,"NoPressureTest1","difficult",1,0,1,0.215,401
"587",116,1,"NoPressureTest1","easy",1,1,1,1.631,403
"588",116,64,"NoPressureTest1","easy",1,0,0,0.341,404
"589",116,70,"NoPressureTest1","easy",1,1,1,0.693,405
"590",116,48,"NoPressureTest1","difficult",1,0,0,0.664,406
"591",116,8,"NoPressureTest1","easy",1,0,0,2.038,410
"592",116,60,"NoPressureTest1","easy",1,0,1,0.264,411
"593",116,15,"NoPressureTest1","easy",1,0,0,4.713,412
"594",116,71,"NoPressureTest1","difficult",1,0,1,1.057,413
"595",116,27,"NoPressureTest1","easy",1,0,0,1.832,414
"596",116,59,"NoPressureTest1","difficult",1,1,1,4.814,415
"597",116,62,"NoPressureTest1","difficult",1,0,0,2.598,417
"598",116,69,"NoPressureTest1","easy",1,0,1,1.578,418
"599",116,47,"NoPressureTest1","difficult",1,1,1,0.764,419
"600",116,39,"NoPressureTest1","difficult",1,0,0,1.54,420
"601",116,22,"NoPressureTest2","difficult",1,1,0,2.272,422
"602",116,49,"NoPressureTest2","easy",1,1,0,0.591,423
"603",116,56,"NoPressureTest2","difficult",1,1,1,2.079,424
"604",116,19,"NoPressureTest2","difficult",1,1,0,0.275,426
"605",116,25,"NoPressureTest2","easy",1,1,1,3.086,427
"606",116,9,"NoPressureTest2","difficult",1,0,1,0.466,428
"607",116,26,"NoPressureTest2","easy",1,1,0,0.247,429
"608",116,10,"NoPressureTest2","difficult",1,0,0,3.132,430
"609",116,31,"NoPressureTest2","easy",1,0,1,0.731,431
"610",116,33,"NoPressureTest2","difficult",1,0,1,2.068,432
"611",116,43,"NoPressureTest2","easy",1,1,0,0.531,434
"612",116,20,"NoPressureTest2","difficult",1,1,1,0.303,435
"613",116,29,"NoPressureTest2","difficult",1,1,0,2.635,437
"614",116,35,"NoPressureTest2","easy",1,0,0,0.533,439
"615",116,55,"NoPressureTest2","difficult",1,1,1,0.301,440
"616",116,2,"NoPressureTest2","easy",1,0,1,3.646,442
"617",116,32,"NoPressureTest2","difficult",1,1,0,0.906,443
"618",116,7,"NoPressureTest2","difficult",1,1,1,2.263,444
"619",116,52,"NoPressureTest2","easy",1,1,1,4.57,445
"620",116,63,"NoPressureTest2","easy",1,0,0,0.238,446
"621",116,38,"NoPressureTest2","easy",1,1,0,0.276,447
"622",116,40,"NoPressureTest2","easy",1,1,1,1.934,449
"623",116,3,"NoPressureTest2","easy",1,0,1,0.408,450
"624",116,12,"NoPressureTest2","difficult",1,1,0,1.008,451
"625",117,43,"TimePressureTest1","easy",1,0,1,0.961,389
"626",117,62,"TimePressureTest1","difficult",1,0,1,0.758,391
"627",117,44,"TimePressureTest1","easy",1,0,0,1.032,393
"628",117,40,"TimePressureTest1","easy",1,1,0,0.268,394
"629",117,1,"TimePressureTest1","easy",1,NA,0,NA,395
"630",117,21,"TimePressureTest1","easy",1,1,0,0.538,396
"631",117,61,"TimePressureTest1","difficult",1,1,1,0.834,398
"632",117,14,"TimePressureTest1","easy",1,0,0,0.412,399
"633",117,34,"TimePressureTest1","difficult",1,0,0,0.414,400
"634",117,12,"TimePressureTest1","difficult",1,0,1,0.375,401
"635",117,58,"TimePressureTest1","difficult",1,0,0,0.451,402
"636",117,49,"TimePressureTest1","easy",1,0,1,0.755,403
"637",117,50,"TimePressureTest1","easy",1,1,1,1.326,405
"638",117,6,"TimePressureTest1","easy",1,1,1,0.401,408
"639",117,51,"TimePressureTest1","easy",1,0,1,0.29,409
"640",117,46,"TimePressureTest1","difficult",1,0,0,0.792,410
"641",117,4,"TimePressureTest1","difficult",1,1,1,0.303,411
"642",117,20,"TimePressureTest1","difficult",1,1,0,0.908,412
"643",117,57,"TimePressureTest1","difficult",1,0,1,0.925,413
"644",117,19,"TimePressureTest1","difficult",1,1,1,0.566,414
"645",117,18,"TimePressureTest1","difficult",1,0,0,0.948,415
"646",117,54,"TimePressureTest1","easy",1,1,0,0.921,416
"647",117,30,"TimePressureTest1","difficult",1,0,0,1.326,417
"648",117,42,"TimePressureTest1","easy",1,0,1,1.197,418
"649",117,59,"TimePressureTest2","difficult",1,0,0,1.161,421
"650",117,65,"TimePressureTest2","difficult",1,1,0,1.065,422
"651",117,8,"TimePressureTest2","easy",1,0,1,1.174,423
"652",117,41,"TimePressureTest2","difficult",1,1,1,0.987,424
"653",117,11,"TimePressureTest2","easy",1,1,1,0.943,425
"654",117,66,"TimePressureTest2","easy",1,1,1,0.674,426
"655",117,68,"TimePressureTest2","difficult",1,NA,1,NA,427
"656",117,25,"TimePressureTest2","easy",1,1,0,0.845,428
"657",117,67,"TimePressureTest2","easy",1,1,0,1.084,429
"658",117,37,"TimePressureTest2","difficult",1,1,0,0.858,431
"659",117,60,"TimePressureTest2","easy",1,0,0,0.94,432
"660",117,15,"TimePressureTest2","easy",1,0,1,1.124,434
"661",117,55,"TimePressureTest2","difficult",1,1,0,0.318,437
"662",117,29,"TimePressureTest2","difficult",1,0,1,0.785,439
"663",117,9,"TimePressureTest2","difficult",1,0,0,0.911,440
"664",117,22,"TimePressureTest2","difficult",1,0,1,1.091,441
"665",117,53,"TimePressureTest2","difficult",1,0,1,0.724,442
"666",117,7,"TimePressureTest2","difficult",1,0,0,0.745,444
"667",117,28,"TimePressureTest2","easy",1,1,0,0.502,445
"668",117,45,"TimePressureTest2","easy",1,0,0,0.481,446
"669",117,32,"TimePressureTest2","difficult",1,0,1,1.306,447
"670",117,35,"TimePressureTest2","easy",1,0,1,0.766,448
"671",117,69,"TimePressureTest2","easy",1,0,0,0.338,451
"672",117,38,"TimePressureTest2","easy",1,1,1,0.29,452
"673",118,72,"TimePressureTest1","difficult",1,1,0,0.266,389
"674",118,12,"TimePressureTest1","difficult",1,1,0,0.138,390
"675",118,68,"TimePressureTest1","difficult",1,0,0,0.208,392
"676",118,67,"TimePressureTest1","easy",1,1,1,0.186,393
"677",118,3,"TimePressureTest1","easy",1,1,1,0.261,396
"678",118,15,"TimePressureTest1","easy",1,NA,0,NA,397
"679",118,71,"TimePressureTest1","difficult",1,0,1,0.137,398
"680",118,7,"TimePressureTest1","difficult",1,1,1,0.173,399
"681",118,18,"TimePressureTest1","difficult",1,1,1,0.237,400
"682",118,29,"TimePressureTest1","difficult",1,NA,0,NA,402
"683",118,28,"TimePressureTest1","easy",1,NA,1,NA,403
"684",118,35,"TimePressureTest1","easy",1,0,0,0.221,404
"685",118,30,"TimePressureTest1","difficult",1,0,1,0.149,405
"686",118,10,"TimePressureTest1","difficult",1,1,0,0.049,406
"687",118,2,"TimePressureTest1","easy",1,NA,1,NA,407
"688",118,21,"TimePressureTest1","easy",1,1,1,0.24,408
"689",118,43,"TimePressureTest1","easy",1,NA,0,NA,410
"690",118,19,"TimePressureTest1","difficult",1,NA,0,NA,411
"691",118,63,"TimePressureTest1","easy",1,0,0,0.162,412
"692",118,46,"TimePressureTest1","difficult",1,NA,1,NA,414
"693",118,24,"TimePressureTest1","difficult",1,NA,1,NA,416
"694",118,44,"TimePressureTest1","easy",1,1,1,0.257,418
"695",118,42,"TimePressureTest1","easy",1,0,0,0.156,419
"696",118,38,"TimePressureTest1","easy",1,1,0,0.219,420
"697",118,39,"TimePressureTest2","difficult",1,1,0,0.194,421
"698",118,17,"TimePressureTest2","difficult",1,0,0,0.218,423
"699",118,64,"TimePressureTest2","easy",1,1,0,0.252,424
"700",118,58,"TimePressureTest2","difficult",1,NA,1,NA,426
"701",118,61,"TimePressureTest2","difficult",1,1,0,0.189,428
"702",118,57,"TimePressureTest2","difficult",1,1,0,0.242,429
"703",118,1,"TimePressureTest2","easy",1,0,1,0.207,430
"704",118,54,"TimePressureTest2","easy",1,NA,1,NA,431
"705",118,33,"TimePressureTest2","difficult",1,NA,1,NA,432
"706",118,9,"TimePressureTest2","difficult",1,NA,1,NA,433
"707",118,40,"TimePressureTest2","easy",1,1,1,0.243,434
"708",118,51,"TimePressureTest2","easy",1,1,0,0.263,435
"709",118,32,"TimePressureTest2","difficult",1,NA,0,NA,436
"710",118,65,"TimePressureTest2","difficult",1,0,1,0.244,438
"711",118,26,"TimePressureTest2","easy",1,NA,0,NA,441
"712",118,52,"TimePressureTest2","easy",1,1,1,0.219,443
"713",118,45,"TimePressureTest2","easy",1,NA,1,NA,444
"714",118,22,"TimePressureTest2","difficult",1,NA,0,NA,445
"715",118,8,"TimePressureTest2","easy",1,1,0,0.264,447
"716",118,50,"TimePressureTest2","easy",1,1,0,0.113,448
"717",118,59,"TimePressureTest2","difficult",1,1,1,0.246,449
"718",118,25,"TimePressureTest2","easy",1,1,1,0.223,450
"719",118,27,"TimePressureTest2","easy",1,NA,0,NA,451
"720",118,37,"TimePressureTest2","difficult",1,NA,1,NA,452
"721",119,33,"NoPressureTest1","difficult",1,1,1,3.611,391
"722",119,18,"NoPressureTest1","difficult",1,1,1,1.43,392
"723",119,67,"NoPressureTest1","easy",1,1,1,2.381,393
"724",119,25,"NoPressureTest1","easy",1,1,1,2.607,394
"725",119,70,"NoPressureTest1","easy",1,1,1,1.804,396
"726",119,48,"NoPressureTest1","difficult",1,0,0,1.199,397
"727",119,62,"NoPressureTest1","difficult",1,0,0,0.789,398
"728",119,8,"NoPressureTest1","easy",1,0,0,2.692,399
"729",119,9,"NoPressureTest1","difficult",1,1,1,0.857,400
"730",119,61,"NoPressureTest1","difficult",1,1,0,5.993,401
"731",119,56,"NoPressureTest1","difficult",1,1,1,0.604,402
"732",119,64,"NoPressureTest1","easy",1,1,0,2.258,405
"733",119,46,"NoPressureTest1","difficult",1,1,1,0.576,406
"734",119,36,"NoPressureTest1","difficult",1,1,0,1.78,408
"735",119,10,"NoPressureTest1","difficult",1,1,0,3.035,409
"736",119,63,"NoPressureTest1","easy",1,0,0,1.974,410
"737",119,69,"NoPressureTest1","easy",1,1,1,0.297,413
"738",119,7,"NoPressureTest1","difficult",1,1,1,4.206,414
"739",119,50,"NoPressureTest1","easy",1,1,0,3.132,415
"740",119,22,"NoPressureTest1","difficult",1,0,0,0.997,416
"741",119,1,"NoPressureTest1","easy",1,1,1,0.885,417
"742",119,15,"NoPressureTest1","easy",1,1,0,3.018,418
"743",119,60,"NoPressureTest1","easy",1,0,1,1.034,419
"744",119,11,"NoPressureTest1","easy",1,0,0,4.957,420
"745",119,24,"NoPressureTest2","difficult",1,1,1,2.031,422
"746",119,59,"NoPressureTest2","difficult",1,1,1,0.935,423
"747",119,29,"NoPressureTest2","difficult",1,0,0,4.816,424
"748",119,19,"NoPressureTest2","difficult",1,1,0,4.398,426
"749",119,27,"NoPressureTest2","easy",1,0,0,1.774,427
"750",119,58,"NoPressureTest2","difficult",1,1,1,1.537,428
"751",119,52,"NoPressureTest2","easy",1,0,1,3.758,429
"752",119,47,"NoPressureTest2","difficult",1,1,1,2.44,430
"753",119,35,"NoPressureTest2","easy",1,0,0,9.356,431
"754",119,38,"NoPressureTest2","easy",1,1,0,1.339,432
"755",119,37,"NoPressureTest2","difficult",1,1,1,0.503,433
"756",119,20,"NoPressureTest2","difficult",1,1,1,1.446,435
"757",119,3,"NoPressureTest2","easy",1,1,1,2.239,436
"758",119,23,"NoPressureTest2","easy",1,1,0,2.165,437
"759",119,41,"NoPressureTest2","difficult",1,0,0,1.521,438
"760",119,57,"NoPressureTest2","difficult",1,0,0,1.831,441
"761",119,13,"NoPressureTest2","easy",1,0,0,0.879,442
"762",119,39,"NoPressureTest2","difficult",1,1,0,2.538,443
"763",119,21,"NoPressureTest2","easy",1,1,1,0.558,444
"764",119,31,"NoPressureTest2","easy",1,0,1,6.439,445
"765",119,45,"NoPressureTest2","easy",1,0,1,0.819,446
"766",119,40,"NoPressureTest2","easy",1,1,1,0.34,449
"767",119,4,"NoPressureTest2","difficult",1,0,0,0.893,451
"768",119,6,"NoPressureTest2","easy",1,1,0,2.22,452
"769",12,56,"NoPressureTest1","difficult",1,1,1,0.549,389
"770",12,16,"NoPressureTest1","easy",1,1,1,0.827,390
"771",12,68,"NoPressureTest1","difficult",1,0,0,1.441,393
"772",12,71,"NoPressureTest1","difficult",1,1,1,0.596,394
"773",12,61,"NoPressureTest1","difficult",1,1,0,1.162,395
"774",12,53,"NoPressureTest1","difficult",1,0,0,0.967,396
"775",12,30,"NoPressureTest1","difficult",1,0,1,2.704,397
"776",12,13,"NoPressureTest1","easy",1,1,0,1.436,400
"777",12,34,"NoPressureTest1","difficult",1,1,1,0.562,401
"778",12,69,"NoPressureTest1","easy",1,0,1,1.067,402
"779",12,38,"NoPressureTest1","easy",1,1,0,0.914,403
"780",12,2,"NoPressureTest1","easy",1,1,1,0.606,404
"781",12,26,"NoPressureTest1","easy",1,1,0,0.646,405
"782",12,40,"NoPressureTest1","easy",1,1,1,0.56,407
"783",12,63,"NoPressureTest1","easy",1,0,0,1.035,408
"784",12,23,"NoPressureTest1","easy",1,1,0,0.356,409
"785",12,32,"NoPressureTest1","difficult",1,1,0,1.513,410
"786",12,44,"NoPressureTest1","easy",1,1,1,0.429,411
"787",12,39,"NoPressureTest1","difficult",1,1,0,0.875,412
"788",12,33,"NoPressureTest1","difficult",1,0,1,2.254,413
"789",12,27,"NoPressureTest1","easy",1,0,0,0.753,414
"790",12,58,"NoPressureTest1","difficult",1,1,1,0.506,416
"791",12,4,"NoPressureTest1","difficult",1,0,0,1.687,417
"792",12,25,"NoPressureTest1","easy",1,1,1,0.913,418
"793",12,1,"NoPressureTest2","easy",1,0,1,0.949,421
"794",12,20,"NoPressureTest2","difficult",1,1,1,0.367,422
"795",12,62,"NoPressureTest2","difficult",1,0,0,1.114,423
"796",12,49,"NoPressureTest2","easy",1,0,0,0.245,426
"797",12,22,"NoPressureTest2","difficult",1,0,0,1.733,428
"798",12,24,"NoPressureTest2","difficult",1,1,1,0.29,429
"799",12,37,"NoPressureTest2","difficult",1,1,1,0.393,430
"800",12,31,"NoPressureTest2","easy",1,0,1,0.665,431
"801",12,64,"NoPressureTest2","easy",1,0,0,1.07,432
"802",12,6,"NoPressureTest2","easy",1,1,0,0.983,433
"803",12,67,"NoPressureTest2","easy",1,1,1,1.233,434
"804",12,60,"NoPressureTest2","easy",1,1,1,0.868,436
"805",12,29,"NoPressureTest2","difficult",1,0,0,2.505,437
"806",12,43,"NoPressureTest2","easy",1,1,0,2.605,438
"807",12,9,"NoPressureTest2","difficult",1,0,1,1.845,440
"808",12,36,"NoPressureTest2","difficult",1,1,0,3.541,441
"809",12,19,"NoPressureTest2","difficult",1,1,0,0.928,442
"810",12,8,"NoPressureTest2","easy",1,0,0,1.151,445
"811",12,41,"NoPressureTest2","difficult",1,1,0,0.278,446
"812",12,70,"NoPressureTest2","easy",1,1,1,0.329,447
"813",12,42,"NoPressureTest2","easy",1,1,0,2.049,448
"814",12,28,"NoPressureTest2","easy",1,1,1,0.965,449
"815",12,7,"NoPressureTest2","difficult",1,1,1,0.99,450
"816",12,55,"NoPressureTest2","difficult",1,0,1,1.716,452
"817",120,60,"NoPressureTest1","easy",1,1,0,2.547,389
"818",120,43,"NoPressureTest1","easy",1,1,1,4.119,393
"819",120,3,"NoPressureTest1","easy",1,1,0,2.536,394
"820",120,22,"NoPressureTest1","difficult",1,1,1,0.39,396
"821",120,38,"NoPressureTest1","easy",1,1,1,0.315,397
"822",120,29,"NoPressureTest1","difficult",1,1,1,1.422,398
"823",120,2,"NoPressureTest1","easy",1,0,0,2.533,399
"824",120,33,"NoPressureTest1","difficult",1,1,0,1.937,400
"825",120,30,"NoPressureTest1","difficult",1,0,0,3.219,401
"826",120,4,"NoPressureTest1","difficult",1,0,1,2.728,402
"827",120,68,"NoPressureTest1","difficult",1,0,1,3.371,403
"828",120,70,"NoPressureTest1","easy",1,1,0,0.654,404
"829",120,17,"NoPressureTest1","difficult",1,1,1,0.883,406
"830",120,49,"NoPressureTest1","easy",1,0,1,0.506,407
"831",120,48,"NoPressureTest1","difficult",1,0,1,0.317,408
"832",120,67,"NoPressureTest1","easy",1,1,0,0.514,410
"833",120,24,"NoPressureTest1","difficult",1,0,0,0.67,411
"834",120,11,"NoPressureTest1","easy",1,0,1,0.95,413
"835",120,18,"NoPressureTest1","difficult",1,1,0,1.407,414
"836",120,51,"NoPressureTest1","easy",1,0,1,0.303,415
"837",120,7,"NoPressureTest1","difficult",1,1,0,1.852,416
"838",120,20,"NoPressureTest1","difficult",1,1,0,1.967,417
"839",120,6,"NoPressureTest1","easy",1,0,1,1.011,418
"840",120,1,"NoPressureTest1","easy",1,0,0,1.618,420
"841",120,63,"NoPressureTest2","easy",1,0,1,0.292,422
"842",120,27,"NoPressureTest2","easy",1,0,1,1.25,423
"843",120,10,"NoPressureTest2","difficult",1,1,1,1.383,424
"844",120,23,"NoPressureTest2","easy",1,1,1,0.321,425
"845",120,46,"NoPressureTest2","difficult",1,0,0,0.544,426
"846",120,61,"NoPressureTest2","difficult",1,1,1,5.287,427
"847",120,36,"NoPressureTest2","difficult",1,1,1,1.552,428
"848",120,40,"NoPressureTest2","easy",1,0,0,0.27,429
"849",120,54,"NoPressureTest2","easy",1,1,0,0.307,430
"850",120,28,"NoPressureTest2","easy",1,0,0,0.928,431
"851",120,9,"NoPressureTest2","difficult",1,1,0,2.144,432
"852",120,69,"NoPressureTest2","easy",1,0,0,0.883,434
"853",120,15,"NoPressureTest2","easy",1,1,1,0.791,435
"854",120,66,"NoPressureTest2","easy",1,1,1,0.448,436
"855",120,44,"NoPressureTest2","easy",1,0,0,1.36,437
"856",120,71,"NoPressureTest2","difficult",1,0,0,0.681,438
"857",120,13,"NoPressureTest2","easy",1,0,1,4.023,440
"858",120,52,"NoPressureTest2","easy",1,0,0,0.345,442
"859",120,57,"NoPressureTest2","difficult",1,1,1,0.529,443
"860",120,37,"NoPressureTest2","difficult",1,0,0,1.681,445
"861",120,59,"NoPressureTest2","difficult",1,1,0,0.996,447
"862",120,19,"NoPressureTest2","difficult",1,0,1,0.888,448
"863",120,58,"NoPressureTest2","difficult",1,0,0,0.194,451
"864",120,41,"NoPressureTest2","difficult",1,1,1,0.904,452
"865",121,21,"NoPressureTest1","easy",1,0,1,0.298,389
"866",121,1,"NoPressureTest1","easy",1,1,1,0.391,390
"867",121,35,"NoPressureTest1","easy",1,0,0,0.464,391
"868",121,7,"NoPressureTest1","difficult",1,1,1,0.684,392
"869",121,49,"NoPressureTest1","easy",1,0,0,0.258,393
"870",121,50,"NoPressureTest1","easy",1,1,0,0.308,394
"871",121,53,"NoPressureTest1","difficult",1,0,0,0.308,395
"872",121,68,"NoPressureTest1","difficult",1,0,0,0.316,397
"873",121,17,"NoPressureTest1","difficult",1,0,0,0.294,398
"874",121,25,"NoPressureTest1","easy",1,1,1,2.964,400
"875",121,9,"NoPressureTest1","difficult",1,1,1,0.721,402
"876",121,32,"NoPressureTest1","difficult",1,0,0,0.446,404
"877",121,60,"NoPressureTest1","easy",1,1,1,0.449,405
"878",121,37,"NoPressureTest1","difficult",1,1,1,0.302,407
"879",121,67,"NoPressureTest1","easy",1,0,1,0.275,408
"880",121,59,"NoPressureTest1","difficult",1,1,1,1.02,409
"881",121,20,"NoPressureTest1","difficult",1,1,1,2.76,410
"882",121,6,"NoPressureTest1","easy",1,0,0,0.273,411
"883",121,10,"NoPressureTest1","difficult",1,0,0,0.327,412
"884",121,51,"NoPressureTest1","easy",1,0,0,0.378,413
"885",121,24,"NoPressureTest1","difficult",1,1,1,0.319,414
"886",121,64,"NoPressureTest1","easy",1,0,0,0.3,416
"887",121,57,"NoPressureTest1","difficult",1,0,0,0.189,419
"888",121,14,"NoPressureTest1","easy",1,1,1,0.357,420
"889",121,62,"NoPressureTest2","difficult",1,0,0,0.509,421
"890",121,31,"NoPressureTest2","easy",1,1,1,1.681,422
"891",121,56,"NoPressureTest2","difficult",1,1,1,1.486,424
"892",121,70,"NoPressureTest2","easy",1,0,1,0.236,425
"893",121,23,"NoPressureTest2","easy",1,0,0,0.26,426
"894",121,34,"NoPressureTest2","difficult",1,1,1,1.09,429
"895",121,61,"NoPressureTest2","difficult",1,0,0,0.426,430
"896",121,43,"NoPressureTest2","easy",1,0,0,0.94,431
"897",121,54,"NoPressureTest2","easy",1,1,1,4.835,432
"898",121,28,"NoPressureTest2","easy",1,0,1,0.716,434
"899",121,30,"NoPressureTest2","difficult",1,1,1,2.306,435
"900",121,33,"NoPressureTest2","difficult",1,0,1,0.663,436
"901",121,55,"NoPressureTest2","difficult",1,1,1,1.103,437
"902",121,11,"NoPressureTest2","easy",1,0,0,0.815,438
"903",121,13,"NoPressureTest2","easy",1,0,0,1.119,439
"904",121,65,"NoPressureTest2","difficult",1,0,1,0.526,440
"905",121,8,"NoPressureTest2","easy",1,0,0,0.341,442
"906",121,19,"NoPressureTest2","difficult",1,0,0,0.239,443
"907",121,15,"NoPressureTest2","easy",1,0,0,0.048,445
"908",121,48,"NoPressureTest2","difficult",1,0,0,1.277,446
"909",121,72,"NoPressureTest2","difficult",1,0,0,0.265,447
"910",121,69,"NoPressureTest2","easy",1,0,1,0.291,449
"911",121,2,"NoPressureTest2","easy",1,1,1,0.527,450
"912",121,12,"NoPressureTest2","difficult",1,0,0,0.652,451
"913",122,13,"TimePressureTest1","easy",1,0,1,0.241,389
"914",122,52,"TimePressureTest1","easy",1,0,0,0.285,393
"915",122,38,"TimePressureTest1","easy",1,1,1,0.342,394
"916",122,25,"TimePressureTest1","easy",1,NA,0,NA,396
"917",122,65,"TimePressureTest1","difficult",1,0,0,0.357,398
"918",122,8,"TimePressureTest1","easy",1,0,1,0.493,399
"919",122,66,"TimePressureTest1","easy",1,1,1,0.548,400
"920",122,30,"TimePressureTest1","difficult",1,0,0,0.368,401
"921",122,48,"TimePressureTest1","difficult",1,0,1,0.336,402
"922",122,32,"TimePressureTest1","difficult",1,NA,1,NA,403
"923",122,50,"TimePressureTest1","easy",1,0,1,0.532,404
"924",122,46,"TimePressureTest1","difficult",1,1,0,0.406,405
"925",122,72,"TimePressureTest1","difficult",1,0,1,0.278,406
"926",122,33,"TimePressureTest1","difficult",1,1,0,0.497,407
"927",122,61,"TimePressureTest1","difficult",1,NA,1,NA,408
"928",122,44,"TimePressureTest1","easy",1,0,0,0.252,409
"929",122,49,"TimePressureTest1","easy",1,0,1,0.293,410
"930",122,20,"TimePressureTest1","difficult",1,1,0,0.497,411
"931",122,22,"TimePressureTest1","difficult",1,0,1,0.384,413
"932",122,57,"TimePressureTest1","difficult",1,NA,1,NA,414
"933",122,70,"TimePressureTest1","easy",1,1,0,0.325,415
"934",122,40,"TimePressureTest1","easy",1,1,0,0.468,417
"935",122,55,"TimePressureTest1","difficult",1,0,0,0.325,418
"936",122,14,"TimePressureTest1","easy",1,0,0,0.34,419
"937",122,12,"TimePressureTest2","difficult",1,0,1,0.316,421
"938",122,27,"TimePressureTest2","easy",1,0,1,0.622,424
"939",122,18,"TimePressureTest2","difficult",1,NA,0,NA,425
"940",122,28,"TimePressureTest2","easy",1,1,0,0.609,426
"941",122,31,"TimePressureTest2","easy",1,0,0,0.576,427
"942",122,5,"TimePressureTest2","difficult",1,1,0,0.384,430
"943",122,67,"TimePressureTest2","easy",1,NA,0,NA,431
"944",122,60,"TimePressureTest2","easy",1,NA,0,NA,433
"945",122,19,"TimePressureTest2","difficult",1,1,1,0.357,435
"946",122,58,"TimePressureTest2","difficult",1,1,0,0.369,436
"947",122,26,"TimePressureTest2","easy",1,NA,1,NA,437
"948",122,43,"TimePressureTest2","easy",1,NA,1,NA,438
"949",122,34,"TimePressureTest2","difficult",1,1,0,0.254,439
"950",122,47,"TimePressureTest2","difficult",1,0,0,0.274,440
"951",122,11,"TimePressureTest2","easy",1,NA,1,NA,441
"952",122,41,"TimePressureTest2","difficult",1,1,1,0.391,443
"953",122,2,"TimePressureTest2","easy",1,NA,0,NA,444
"954",122,37,"TimePressureTest2","difficult",1,NA,0,NA,445
"955",122,3,"TimePressureTest2","easy",1,1,0,0.3,446
"956",122,39,"TimePressureTest2","difficult",1,1,1,0.478,448
"957",122,29,"TimePressureTest2","difficult",1,NA,1,NA,449
"958",122,10,"TimePressureTest2","difficult",1,0,1,0.3,450
"959",122,6,"TimePressureTest2","easy",1,1,1,0.428,451
"960",122,63,"TimePressureTest2","easy",1,0,1,0.473,452
"961",123,50,"NoPressureTest1","easy",1,0,1,2.002,389
"962",123,3,"NoPressureTest1","easy",1,1,0,2.273,391
"963",123,36,"NoPressureTest1","difficult",1,1,1,2.24,392
"964",123,71,"NoPressureTest1","difficult",1,0,0,1.027,393
"965",123,56,"NoPressureTest1","difficult",1,0,0,4.594,394
"966",123,58,"NoPressureTest1","difficult",1,0,0,2.564,396
"967",123,10,"NoPressureTest1","difficult",1,1,1,7.41,399
"968",123,63,"NoPressureTest1","easy",1,0,1,3.137,401
"969",123,46,"NoPressureTest1","difficult",1,1,0,0.82,403
"970",123,2,"NoPressureTest1","easy",1,0,0,3.962,404
"971",123,44,"NoPressureTest1","easy",1,0,0,4.898,405
"972",123,11,"NoPressureTest1","easy",1,1,1,0.363,406
"973",123,15,"NoPressureTest1","easy",1,0,1,1.596,407
"974",123,32,"NoPressureTest1","difficult",1,0,1,3.109,409
"975",123,57,"NoPressureTest1","difficult",1,1,1,3.074,410
"976",123,53,"NoPressureTest1","difficult",1,0,1,11.262,412
"977",123,47,"NoPressureTest1","difficult",1,0,0,0.3,413
"978",123,38,"NoPressureTest1","easy",1,1,1,0.294,414
"979",123,21,"NoPressureTest1","easy",1,0,0,3.669,415
"980",123,5,"NoPressureTest1","difficult",1,1,0,2.407,416
"981",123,16,"NoPressureTest1","easy",1,1,0,1.191,417
"982",123,61,"NoPressureTest1","difficult",1,0,1,1.667,418
"983",123,31,"NoPressureTest1","easy",1,0,0,1.014,419
"984",123,49,"NoPressureTest1","easy",1,1,1,0.632,420
"985",123,55,"NoPressureTest2","difficult",1,0,0,0.282,421
"986",123,22,"NoPressureTest2","difficult",1,0,1,1.432,422
"987",123,48,"NoPressureTest2","difficult",1,1,1,1.061,423
"988",123,35,"NoPressureTest2","easy",1,0,1,2.924,424
"989",123,30,"NoPressureTest2","difficult",1,0,0,1.278,425
"990",123,40,"NoPressureTest2","easy",1,0,0,0.233,426
"991",123,26,"NoPressureTest2","easy",1,1,1,1.198,427
"992",123,25,"NoPressureTest2","easy",1,0,0,1.652,428
"993",123,34,"NoPressureTest2","difficult",1,0,0,0.386,429
"994",123,51,"NoPressureTest2","easy",1,1,1,0.42,430
"995",123,67,"NoPressureTest2","easy",1,0,0,2.139,431
"996",123,60,"NoPressureTest2","easy",1,1,0,1.858,432
"997",123,66,"NoPressureTest2","easy",1,1,1,0.344,436
"998",123,19,"NoPressureTest2","difficult",1,1,1,0.874,437
"999",123,64,"NoPressureTest2","easy",1,0,1,0.288,441
"1000",123,17,"NoPressureTest2","difficult",1,1,1,1.9,442
"1001",123,69,"NoPressureTest2","easy",1,0,0,1.104,443
"1002",123,65,"NoPressureTest2","difficult",1,1,0,4.076,444
"1003",123,42,"NoPressureTest2","easy",1,0,1,0.296,446
"1004",123,18,"NoPressureTest2","difficult",1,0,0,0.443,447
"1005",123,41,"NoPressureTest2","difficult",1,1,1,1.243,449
"1006",123,62,"NoPressureTest2","difficult",1,1,1,1.201,450
"1007",123,24,"NoPressureTest2","difficult",1,1,0,0.532,451
"1008",123,52,"NoPressureTest2","easy",1,0,0,0.742,452
"1009",124,64,"NoPressureTest1","easy",1,0,0,0.512,389
"1010",124,61,"NoPressureTest1","difficult",1,1,0,0.314,391
"1011",124,2,"NoPressureTest1","easy",1,1,1,0.303,392
"1012",124,39,"NoPressureTest1","difficult",1,1,0,0.251,393
"1013",124,34,"NoPressureTest1","difficult",1,1,1,0.978,394
"1014",124,35,"NoPressureTest1","easy",1,0,0,0.273,396
"1015",124,9,"NoPressureTest1","difficult",1,1,1,0.432,398
"1016",124,29,"NoPressureTest1","difficult",1,0,0,0.542,399
"1017",124,49,"NoPressureTest1","easy",1,0,0,0.455,401
"1018",124,66,"NoPressureTest1","easy",1,1,0,0.341,402
"1019",124,20,"NoPressureTest1","difficult",1,1,1,0.232,403
"1020",124,6,"NoPressureTest1","easy",1,0,0,0.718,405
"1021",124,42,"NoPressureTest1","easy",1,0,0,0.256,407
"1022",124,25,"NoPressureTest1","easy",1,1,1,0.437,408
"1023",124,7,"NoPressureTest1","difficult",1,0,1,0.486,409
"1024",124,53,"NoPressureTest1","difficult",1,0,0,0.476,410
"1025",124,24,"NoPressureTest1","difficult",1,1,1,0.239,411
"1026",124,37,"NoPressureTest1","difficult",1,0,1,0.24,412
"1027",124,60,"NoPressureTest1","easy",1,0,1,0.237,413
"1028",124,22,"NoPressureTest1","difficult",1,1,0,0.294,414
"1029",124,17,"NoPressureTest1","difficult",1,0,0,0.3,415
"1030",124,1,"NoPressureTest1","easy",1,1,1,0.258,416
"1031",124,67,"NoPressureTest1","easy",1,1,1,0.189,418
"1032",124,21,"NoPressureTest1","easy",1,0,1,0.308,420
"1033",124,59,"NoPressureTest2","difficult",1,1,1,0.427,424
"1034",124,56,"NoPressureTest2","difficult",1,1,1,0.275,425
"1035",124,70,"NoPressureTest2","easy",1,1,1,0.216,426
"1036",124,5,"NoPressureTest2","difficult",1,0,1,0.516,428
"1037",124,26,"NoPressureTest2","easy",1,1,0,0.279,429
"1038",124,44,"NoPressureTest2","easy",1,0,1,0.215,430
"1039",124,54,"NoPressureTest2","easy",1,1,1,0.262,431
"1040",124,12,"NoPressureTest2","difficult",1,0,0,0.215,432
"1041",124,43,"NoPressureTest2","easy",1,1,0,0.258,433
"1042",124,10,"NoPressureTest2","difficult",1,1,0,0.616,434
"1043",124,62,"NoPressureTest2","difficult",1,0,0,0.362,437
"1044",124,8,"NoPressureTest2","easy",1,0,0,1.621,438
"1045",124,11,"NoPressureTest2","easy",1,0,0,0.439,439
"1046",124,68,"NoPressureTest2","difficult",1,1,0,0.21,440
"1047",124,30,"NoPressureTest2","difficult",1,1,1,0.272,441
"1048",124,71,"NoPressureTest2","difficult",1,1,1,0.199,443
"1049",124,3,"NoPressureTest2","easy",1,1,1,0.539,444
"1050",124,52,"NoPressureTest2","easy",1,0,1,0.317,445
"1051",124,51,"NoPressureTest2","easy",1,0,0,0.969,446
"1052",124,15,"NoPressureTest2","easy",1,1,0,0.659,447
"1053",124,48,"NoPressureTest2","difficult",1,0,0,0.19,448
"1054",124,31,"NoPressureTest2","easy",1,1,1,0.414,449
"1055",124,46,"NoPressureTest2","difficult",1,1,1,0.267,451
"1056",124,32,"NoPressureTest2","difficult",1,1,0,0.029,452
"1057",125,39,"TimePressureTest1","difficult",1,0,0,0.431,389
"1058",125,13,"TimePressureTest1","easy",1,0,0,0.998,390
"1059",125,48,"TimePressureTest1","difficult",1,0,0,0.747,391
"1060",125,46,"TimePressureTest1","difficult",1,1,1,0.973,393
"1061",125,34,"TimePressureTest1","difficult",1,0,1,0.941,394
"1062",125,38,"TimePressureTest1","easy",1,1,0,1.275,395
"1063",125,1,"TimePressureTest1","easy",1,0,1,0.273,396
"1064",125,23,"TimePressureTest1","easy",1,1,0,1.514,397
"1065",125,9,"TimePressureTest1","difficult",1,0,1,0.729,398
"1066",125,54,"TimePressureTest1","easy",1,1,1,0.268,401
"1067",125,35,"TimePressureTest1","easy",1,0,0,0.955,402
"1068",125,32,"TimePressureTest1","difficult",1,0,0,0.491,404
"1069",125,64,"TimePressureTest1","easy",1,0,0,0.311,405
"1070",125,17,"TimePressureTest1","difficult",1,0,0,0.542,407
"1071",125,40,"TimePressureTest1","easy",1,0,1,0.602,408
"1072",125,47,"TimePressureTest1","difficult",1,0,1,0.989,409
"1073",125,45,"TimePressureTest1","easy",1,0,1,0.99,411
"1074",125,37,"TimePressureTest1","difficult",1,0,1,0.359,412
"1075",125,60,"TimePressureTest1","easy",1,0,1,0.446,413
"1076",125,10,"TimePressureTest1","difficult",1,0,0,1.353,414
"1077",125,2,"TimePressureTest1","easy",1,0,1,1.567,416
"1078",125,58,"TimePressureTest1","difficult",1,0,1,0.814,418
"1079",125,51,"TimePressureTest1","easy",1,0,0,0.894,419
"1080",125,12,"TimePressureTest1","difficult",1,0,0,0.843,420
"1081",125,70,"TimePressureTest2","easy",1,1,1,0.232,422
"1082",125,67,"TimePressureTest2","easy",1,0,1,0.999,423
"1083",125,49,"TimePressureTest2","easy",1,0,0,0.464,424
"1084",125,5,"TimePressureTest2","difficult",1,1,1,0.38,425
"1085",125,24,"TimePressureTest2","difficult",1,1,1,0.586,426
"1086",125,41,"TimePressureTest2","difficult",1,0,0,0.286,427
"1087",125,14,"TimePressureTest2","easy",1,0,1,0.287,428
"1088",125,8,"TimePressureTest2","easy",1,0,0,0.266,429
"1089",125,19,"TimePressureTest2","difficult",1,NA,0,NA,430
"1090",125,69,"TimePressureTest2","easy",1,0,1,0.379,432
"1091",125,20,"TimePressureTest2","difficult",1,1,1,0.217,433
"1092",125,71,"TimePressureTest2","difficult",1,0,1,0.303,434
"1093",125,22,"TimePressureTest2","difficult",1,0,0,0.342,436
"1094",125,15,"TimePressureTest2","easy",1,1,0,0.321,437
"1095",125,50,"TimePressureTest2","easy",1,0,0,0.646,439
"1096",125,42,"TimePressureTest2","easy",1,0,0,0.279,441
"1097",125,33,"TimePressureTest2","difficult",1,0,1,0.7,442
"1098",125,30,"TimePressureTest2","difficult",1,0,1,1.362,443
"1099",125,29,"TimePressureTest2","difficult",1,0,0,1.011,444
"1100",125,3,"TimePressureTest2","easy",1,1,1,0.313,445
"1101",125,16,"TimePressureTest2","easy",1,1,1,1.722,446
"1102",125,72,"TimePressureTest2","difficult",1,1,0,1.654,448
"1103",125,36,"TimePressureTest2","difficult",1,1,0,0.447,451
"1104",125,66,"TimePressureTest2","easy",1,0,0,0.644,452
"1105",126,19,"NoPressureTest1","difficult",1,0,0,5.303,389
"1106",126,5,"NoPressureTest1","difficult",1,1,1,5.227,390
"1107",126,49,"NoPressureTest1","easy",1,0,0,0.427,391
"1108",126,23,"NoPressureTest1","easy",1,1,0,1.5,392
"1109",126,32,"NoPressureTest1","difficult",1,0,0,5.262,394
"1110",126,9,"NoPressureTest1","difficult",1,1,1,5.584,395
"1111",126,53,"NoPressureTest1","difficult",1,0,0,5.846,396
"1112",126,22,"NoPressureTest1","difficult",1,0,0,3.509,397
"1113",126,64,"NoPressureTest1","easy",1,0,0,2.419,399
"1114",126,11,"NoPressureTest1","easy",1,1,0,8.818,400
"1115",126,13,"NoPressureTest1","easy",1,0,0,0.758,401
"1116",126,4,"NoPressureTest1","difficult",1,1,0,6.578,402
"1117",126,65,"NoPressureTest1","difficult",1,0,1,1.714,403
"1118",126,2,"NoPressureTest1","easy",1,1,1,15.269,404
"1119",126,60,"NoPressureTest1","easy",1,0,1,0.512,405
"1120",126,24,"NoPressureTest1","difficult",1,1,1,0.491,407
"1121",126,14,"NoPressureTest1","easy",1,0,1,0.356,410
"1122",126,18,"NoPressureTest1","difficult",1,1,1,2.278,411
"1123",126,28,"NoPressureTest1","easy",1,0,1,10.53,412
"1124",126,59,"NoPressureTest1","difficult",1,1,1,1.319,413
"1125",126,17,"NoPressureTest1","difficult",1,0,0,6.563,414
"1126",126,40,"NoPressureTest1","easy",1,1,1,1.525,416
"1127",126,38,"NoPressureTest1","easy",1,1,0,4.819,417
"1128",126,1,"NoPressureTest1","easy",1,0,1,11.155,418
"1129",126,63,"NoPressureTest2","easy",1,0,0,2.899,421
"1130",126,52,"NoPressureTest2","easy",1,0,1,1.774,423
"1131",126,56,"NoPressureTest2","difficult",1,1,1,4.852,424
"1132",126,55,"NoPressureTest2","difficult",1,0,1,5.341,425
"1133",126,41,"NoPressureTest2","difficult",1,0,0,4.948,426
"1134",126,15,"NoPressureTest2","easy",1,1,0,3.817,427
"1135",126,47,"NoPressureTest2","difficult",1,1,1,3.714,428
"1136",126,10,"NoPressureTest2","difficult",1,1,0,5.616,429
"1137",126,21,"NoPressureTest2","easy",1,1,1,0.608,431
"1138",126,57,"NoPressureTest2","difficult",1,0,0,2.817,433
"1139",126,31,"NoPressureTest2","easy",1,0,1,1.853,434
"1140",126,26,"NoPressureTest2","easy",1,0,0,10.112,435
"1141",126,30,"NoPressureTest2","difficult",1,0,1,7.666,437
"1142",126,29,"NoPressureTest2","difficult",1,0,0,1.671,439
"1143",126,33,"NoPressureTest2","difficult",1,1,1,2.143,440
"1144",126,66,"NoPressureTest2","easy",1,1,0,0.929,441
"1145",126,39,"NoPressureTest2","difficult",1,1,0,1.627,442
"1146",126,46,"NoPressureTest2","difficult",1,1,1,2.192,443
"1147",126,44,"NoPressureTest2","easy",1,1,1,1.514,446
"1148",126,16,"NoPressureTest2","easy",1,1,1,5.353,448
"1149",126,35,"NoPressureTest2","easy",1,0,0,7.247,449
"1150",126,48,"NoPressureTest2","difficult",1,0,0,2.721,450
"1151",126,3,"NoPressureTest2","easy",1,1,1,6.257,451
"1152",126,51,"NoPressureTest2","easy",1,0,0,1.318,452
"1153",129,33,"TimePressureTest1","difficult",1,1,0,0.275,389
"1154",129,28,"TimePressureTest1","easy",1,1,0,0.274,390
"1155",129,71,"TimePressureTest1","difficult",1,0,0,0.241,391
"1156",129,68,"TimePressureTest1","difficult",1,NA,1,NA,393
"1157",129,29,"TimePressureTest1","difficult",1,1,1,0.372,394
"1158",129,27,"TimePressureTest1","easy",1,0,1,0.466,395
"1159",129,6,"TimePressureTest1","easy",1,1,1,0.221,396
"1160",129,69,"TimePressureTest1","easy",1,0,0,0.315,397
"1161",129,16,"TimePressureTest1","easy",1,1,0,0.237,398
"1162",129,72,"TimePressureTest1","difficult",1,1,1,0.277,399
"1163",129,22,"TimePressureTest1","difficult",1,1,1,0.219,401
"1164",129,42,"TimePressureTest1","easy",1,0,1,0.278,402
"1165",129,57,"TimePressureTest1","difficult",1,1,1,0.211,403
"1166",129,9,"TimePressureTest1","difficult",1,0,0,0.327,404
"1167",129,70,"TimePressureTest1","easy",1,1,0,0.31,405
"1168",129,15,"TimePressureTest1","easy",1,1,1,0.244,406
"1169",129,58,"TimePressureTest1","difficult",1,0,0,0.247,412
"1170",129,49,"TimePressureTest1","easy",1,1,1,0.385,413
"1171",129,65,"TimePressureTest1","difficult",1,1,0,0.323,414
"1172",129,2,"TimePressureTest1","easy",1,1,0,0.392,415
"1173",129,38,"TimePressureTest1","easy",1,1,1,0.234,417
"1174",129,45,"TimePressureTest1","easy",1,0,0,0.217,418
"1175",129,7,"TimePressureTest1","difficult",1,0,0,0.371,419
"1176",129,62,"TimePressureTest1","difficult",1,1,1,0.469,420
"1177",129,59,"TimePressureTest2","difficult",1,0,0,0.782,421
"1178",129,66,"TimePressureTest2","easy",1,1,1,0.616,422
"1179",129,35,"TimePressureTest2","easy",1,0,1,0.649,424
"1180",129,61,"TimePressureTest2","difficult",1,1,1,0.338,426
"1181",129,19,"TimePressureTest2","difficult",1,0,1,0.315,427
"1182",129,54,"TimePressureTest2","easy",1,1,0,0.289,430
"1183",129,12,"TimePressureTest2","difficult",1,NA,1,NA,431
"1184",129,31,"TimePressureTest2","easy",1,0,0,0.514,432
"1185",129,24,"TimePressureTest2","difficult",1,1,0,0.276,433
"1186",129,8,"TimePressureTest2","easy",1,1,1,0.538,434
"1187",129,18,"TimePressureTest2","difficult",1,1,0,0.309,435
"1188",129,30,"TimePressureTest2","difficult",1,0,0,0.31,436
"1189",129,3,"TimePressureTest2","easy",1,0,0,0.589,437
"1190",129,44,"TimePressureTest2","easy",1,1,0,0.932,438
"1191",129,55,"TimePressureTest2","difficult",1,0,0,0.714,439
"1192",129,43,"TimePressureTest2","easy",1,1,1,0.248,440
"1193",129,14,"TimePressureTest2","easy",1,0,0,0.231,441
"1194",129,64,"TimePressureTest2","easy",1,1,1,0.195,444
"1195",129,47,"TimePressureTest2","difficult",1,0,0,0.338,445
"1196",129,63,"TimePressureTest2","easy",1,0,1,0.213,446
"1197",129,53,"TimePressureTest2","difficult",1,0,1,0.584,447
"1198",129,17,"TimePressureTest2","difficult",1,1,1,0.277,449
"1199",129,41,"TimePressureTest2","difficult",1,0,1,0.273,451
"1200",129,21,"TimePressureTest2","easy",1,1,0,0.253,452
"1201",131,20,"TimePressureTest1","difficult",1,NA,0,NA,391
"1202",131,57,"TimePressureTest1","difficult",1,0,1,0.049,392
"1203",131,35,"TimePressureTest1","easy",1,0,1,0.182,393
"1204",131,36,"TimePressureTest1","difficult",1,0,1,0.272,394
"1205",131,28,"TimePressureTest1","easy",1,1,0,0.254,395
"1206",131,11,"TimePressureTest1","easy",1,1,1,0.039,397
"1207",131,37,"TimePressureTest1","difficult",1,0,0,0.161,398
"1208",131,71,"TimePressureTest1","difficult",1,0,0,0.324,399
"1209",131,55,"TimePressureTest1","difficult",1,0,0,0.253,400
"1210",131,4,"TimePressureTest1","difficult",1,0,1,0.24,402
"1211",131,59,"TimePressureTest1","difficult",1,0,0,0.527,403
"1212",131,40,"TimePressureTest1","easy",1,1,0,0.351,404
"1213",131,8,"TimePressureTest1","easy",1,0,1,0.414,407
"1214",131,38,"TimePressureTest1","easy",1,1,1,0.188,409
"1215",131,5,"TimePressureTest1","difficult",1,1,0,0.258,410
"1216",131,14,"TimePressureTest1","easy",1,NA,0,NA,411
"1217",131,43,"TimePressureTest1","easy",1,1,1,0.437,412
"1218",131,25,"TimePressureTest1","easy",1,1,0,0.295,414
"1219",131,2,"TimePressureTest1","easy",1,0,0,0.302,415
"1220",131,53,"TimePressureTest1","difficult",1,0,1,0.528,416
"1221",131,50,"TimePressureTest1","easy",1,0,1,0.241,417
"1222",131,62,"TimePressureTest1","difficult",1,0,1,0.297,418
"1223",131,61,"TimePressureTest1","difficult",1,0,1,0.323,419
"1224",131,69,"TimePressureTest1","easy",1,1,0,0.244,420
"1225",131,9,"TimePressureTest2","difficult",1,0,0,0.326,422
"1226",131,16,"TimePressureTest2","easy",1,0,0,0.279,424
"1227",131,27,"TimePressureTest2","easy",1,0,1,0.322,426
"1228",131,46,"TimePressureTest2","difficult",1,1,0,0.455,427
"1229",131,34,"TimePressureTest2","difficult",1,0,0,0.294,428
"1230",131,65,"TimePressureTest2","difficult",1,1,0,0.268,429
"1231",131,19,"TimePressureTest2","difficult",1,1,1,0.423,431
"1232",131,66,"TimePressureTest2","easy",1,1,1,0.384,432
"1233",131,45,"TimePressureTest2","easy",1,0,0,0.281,433
"1234",131,31,"TimePressureTest2","easy",1,0,0,0.267,434
"1235",131,68,"TimePressureTest2","difficult",1,1,1,0.289,435
"1236",131,32,"TimePressureTest2","difficult",1,0,1,0.251,436
"1237",131,58,"TimePressureTest2","difficult",1,0,0,0.226,438
"1238",131,22,"TimePressureTest2","difficult",1,1,1,0.324,439
"1239",131,41,"TimePressureTest2","difficult",1,0,1,0.212,440
"1240",131,1,"TimePressureTest2","easy",1,NA,0,NA,442
"1241",131,3,"TimePressureTest2","easy",1,NA,0,NA,443
"1242",131,23,"TimePressureTest2","easy",1,0,1,0.336,444
"1243",131,13,"TimePressureTest2","easy",1,1,1,0.205,445
"1244",131,10,"TimePressureTest2","difficult",1,0,1,0.294,447
"1245",131,63,"TimePressureTest2","easy",1,0,1,0.259,448
"1246",131,70,"TimePressureTest2","easy",1,1,0,0.183,449
"1247",131,47,"TimePressureTest2","difficult",1,0,0,0.503,450
"1248",131,64,"TimePressureTest2","easy",1,1,1,0.246,452
"1249",133,48,"TimePressureTest1","difficult",1,1,0,0.477,389
"1250",133,24,"TimePressureTest1","difficult",1,0,1,0.171,391
"1251",133,27,"TimePressureTest1","easy",1,0,0,0.149,392
"1252",133,12,"TimePressureTest1","difficult",1,NA,0,NA,395
"1253",133,18,"TimePressureTest1","difficult",1,1,1,0.238,397
"1254",133,55,"TimePressureTest1","difficult",1,0,1,0.152,398
"1255",133,28,"TimePressureTest1","easy",1,1,1,0.139,400
"1256",133,3,"TimePressureTest1","easy",1,1,1,0.183,401
"1257",133,60,"TimePressureTest1","easy",1,1,1,0.049,402
"1258",133,42,"TimePressureTest1","easy",1,0,0,0.206,404
"1259",133,46,"TimePressureTest1","difficult",1,1,1,0.201,406
"1260",133,43,"TimePressureTest1","easy",1,1,0,0.189,407
"1261",133,26,"TimePressureTest1","easy",1,1,0,0.133,408
"1262",133,1,"TimePressureTest1","easy",1,0,1,0.19,409
"1263",133,8,"TimePressureTest1","easy",1,0,0,0.321,410
"1264",133,17,"TimePressureTest1","difficult",1,1,0,0.221,411
"1265",133,20,"TimePressureTest1","difficult",1,0,1,0.155,412
"1266",133,9,"TimePressureTest1","difficult",1,0,1,0.213,413
"1267",133,14,"TimePressureTest1","easy",1,1,1,0.168,415
"1268",133,68,"TimePressureTest1","difficult",1,1,0,0.213,416
"1269",133,31,"TimePressureTest1","easy",1,0,1,0.253,417
"1270",133,38,"TimePressureTest1","easy",1,1,0,0.289,418
"1271",133,61,"TimePressureTest1","difficult",1,0,0,0.24,419
"1272",133,4,"TimePressureTest1","difficult",1,0,0,0.32,420
"1273",133,65,"TimePressureTest2","difficult",1,1,1,0.188,421
"1274",133,32,"TimePressureTest2","difficult",1,0,0,0.196,423
"1275",133,52,"TimePressureTest2","easy",1,0,1,0.165,424
"1276",133,62,"TimePressureTest2","difficult",1,0,0,0.196,425
"1277",133,53,"TimePressureTest2","difficult",1,0,0,0.312,428
"1278",133,23,"TimePressureTest2","easy",1,0,0,0.387,430
"1279",133,51,"TimePressureTest2","easy",1,0,0,0.277,431
"1280",133,41,"TimePressureTest2","difficult",1,1,0,0.231,432
"1281",133,69,"TimePressureTest2","easy",1,0,1,0.154,434
"1282",133,2,"TimePressureTest2","easy",1,0,1,0.361,435
"1283",133,7,"TimePressureTest2","difficult",1,1,1,0.224,437
"1284",133,37,"TimePressureTest2","difficult",1,1,1,0.187,438
"1285",133,66,"TimePressureTest2","easy",1,1,0,0.173,439
"1286",133,6,"TimePressureTest2","easy",1,1,0,0.073,441
"1287",133,25,"TimePressureTest2","easy",1,0,1,0.257,442
"1288",133,40,"TimePressureTest2","easy",1,1,1,0.205,443
"1289",133,39,"TimePressureTest2","difficult",1,1,0,0.204,444
"1290",133,34,"TimePressureTest2","difficult",1,1,1,0.2,446
"1291",133,56,"TimePressureTest2","difficult",1,0,1,0.191,447
"1292",133,49,"TimePressureTest2","easy",1,1,0,0.195,448
"1293",133,70,"TimePressureTest2","easy",1,1,1,0.183,449
"1294",133,36,"TimePressureTest2","difficult",1,1,0,0.202,450
"1295",133,35,"TimePressureTest2","easy",1,0,0,0.029,451
"1296",133,59,"TimePressureTest2","difficult",1,0,1,0.16,452
"1297",134,11,"TimePressureTest1","easy",1,1,1,0.131,389
"1298",134,50,"TimePressureTest1","easy",1,0,1,0.169,390
"1299",134,62,"TimePressureTest1","difficult",1,NA,1,NA,391
"1300",134,52,"TimePressureTest1","easy",1,1,0,0.218,395
"1301",134,8,"TimePressureTest1","easy",1,NA,1,NA,396
"1302",134,42,"TimePressureTest1","easy",1,0,1,0.027,398
"1303",134,23,"TimePressureTest1","easy",1,1,1,0.126,399
"1304",134,30,"TimePressureTest1","difficult",1,0,0,0.025,401
"1305",134,26,"TimePressureTest1","easy",1,NA,1,NA,402
"1306",134,45,"TimePressureTest1","easy",1,0,0,0.216,403
"1307",134,28,"TimePressureTest1","easy",1,1,0,0.16,404
"1308",134,70,"TimePressureTest1","easy",1,1,0,0.134,405
"1309",134,69,"TimePressureTest1","easy",1,1,0,0.133,406
"1310",134,58,"TimePressureTest1","difficult",1,1,0,0.025,407
"1311",134,19,"TimePressureTest1","difficult",1,1,1,0.171,409
"1312",134,4,"TimePressureTest1","difficult",1,1,1,0.248,410
"1313",134,61,"TimePressureTest1","difficult",1,1,1,0.128,411
"1314",134,54,"TimePressureTest1","easy",1,0,0,0.162,412
"1315",134,20,"TimePressureTest1","difficult",1,1,0,0.193,414
"1316",134,9,"TimePressureTest1","difficult",1,NA,0,NA,415
"1317",134,24,"TimePressureTest1","difficult",1,0,0,0.087,416
"1318",134,53,"TimePressureTest1","difficult",1,1,1,0.17,417
"1319",134,39,"TimePressureTest1","difficult",1,1,1,0.131,418
"1320",134,34,"TimePressureTest1","difficult",1,1,0,0.121,419
"1321",134,71,"TimePressureTest2","difficult",1,NA,0,NA,421
"1322",134,41,"TimePressureTest2","difficult",1,1,1,0.083,422
"1323",134,68,"TimePressureTest2","difficult",1,1,1,0.012,424
"1324",134,37,"TimePressureTest2","difficult",1,NA,0,NA,425
"1325",134,43,"TimePressureTest2","easy",1,NA,1,NA,426
"1326",134,13,"TimePressureTest2","easy",1,1,1,0.069,427
"1327",134,59,"TimePressureTest2","difficult",1,1,0,0.127,428
"1328",134,72,"TimePressureTest2","difficult",1,1,1,0.087,429
"1329",134,48,"TimePressureTest2","difficult",1,0,1,0.062,433
"1330",134,38,"TimePressureTest2","easy",1,1,1,0.098,434
"1331",134,49,"TimePressureTest2","easy",1,NA,1,NA,436
"1332",134,3,"TimePressureTest2","easy",1,1,0,0.049,437
"1333",134,60,"TimePressureTest2","easy",1,1,0,0.149,438
"1334",134,35,"TimePressureTest2","easy",1,1,1,0.035,439
"1335",134,2,"TimePressureTest2","easy",1,1,0,0.105,440
"1336",134,47,"TimePressureTest2","difficult",1,1,0,0.018,441
"1337",134,1,"TimePressureTest2","easy",1,NA,0,NA,442
"1338",134,16,"TimePressureTest2","easy",1,1,0,0.047,443
"1339",134,31,"TimePressureTest2","easy",1,1,0,0.069,444
"1340",134,15,"TimePressureTest2","easy",1,NA,1,NA,445
"1341",134,7,"TimePressureTest2","difficult",1,NA,0,NA,447
"1342",134,12,"TimePressureTest2","difficult",1,0,1,0.099,448
"1343",134,46,"TimePressureTest2","difficult",1,1,0,0.025,451
"1344",134,32,"TimePressureTest2","difficult",1,1,1,0.109,452
"1345",136,50,"NoPressureTest1","easy",1,0,1,9.045,389
"1346",136,20,"NoPressureTest1","difficult",1,1,0,2.364,390
"1347",136,13,"NoPressureTest1","easy",1,1,1,0.962,391
"1348",136,35,"NoPressureTest1","easy",1,0,1,0.822,392
"1349",136,40,"NoPressureTest1","easy",1,1,0,0.332,394
"1350",136,47,"NoPressureTest1","difficult",1,1,0,0.234,395
"1351",136,58,"NoPressureTest1","difficult",1,1,0,0.253,398
"1352",136,10,"NoPressureTest1","difficult",1,1,1,0.232,399
"1353",136,5,"NoPressureTest1","difficult",1,0,0,1.237,400
"1354",136,69,"NoPressureTest1","easy",1,0,0,1.946,403
"1355",136,23,"NoPressureTest1","easy",1,0,1,0.236,404
"1356",136,22,"NoPressureTest1","difficult",1,1,1,0.536,405
"1357",136,4,"NoPressureTest1","difficult",1,1,1,0.931,407
"1358",136,45,"NoPressureTest1","easy",1,0,0,2.921,408
"1359",136,14,"NoPressureTest1","easy",1,0,0,0.637,409
"1360",136,61,"NoPressureTest1","difficult",1,1,1,1.023,410
"1361",136,18,"NoPressureTest1","difficult",1,0,0,3.002,412
"1362",136,7,"NoPressureTest1","difficult",1,1,0,0.282,413
"1363",136,3,"NoPressureTest1","easy",1,1,0,0.344,414
"1364",136,48,"NoPressureTest1","difficult",1,0,1,0.214,415
"1365",136,38,"NoPressureTest1","easy",1,1,1,0.138,416
"1366",136,11,"NoPressureTest1","easy",1,1,1,0.094,417
"1367",136,60,"NoPressureTest1","easy",1,0,0,9.873,419
"1368",136,57,"NoPressureTest1","difficult",1,1,1,0.765,420
"1369",136,33,"NoPressureTest2","difficult",1,1,0,0.924,421
"1370",136,53,"NoPressureTest2","difficult",1,0,1,4.861,424
"1371",136,26,"NoPressureTest2","easy",1,0,1,6.574,425
"1372",136,30,"NoPressureTest2","difficult",1,1,0,1.063,427
"1373",136,37,"NoPressureTest2","difficult",1,1,0,0.506,430
"1374",136,39,"NoPressureTest2","difficult",1,1,1,1.139,432
"1375",136,2,"NoPressureTest2","easy",1,1,0,1.563,433
"1376",136,36,"NoPressureTest2","difficult",1,1,1,0.508,434
"1377",136,6,"NoPressureTest2","easy",1,1,1,0.836,435
"1378",136,21,"NoPressureTest2","easy",1,1,0,0.822,436
"1379",136,9,"NoPressureTest2","difficult",1,1,0,1.566,437
"1380",136,54,"NoPressureTest2","easy",1,1,0,1.626,438
"1381",136,62,"NoPressureTest2","difficult",1,1,1,1.202,439
"1382",136,63,"NoPressureTest2","easy",1,1,1,3.32,441
"1383",136,67,"NoPressureTest2","easy",1,0,0,0.942,442
"1384",136,52,"NoPressureTest2","easy",1,0,0,0.71,443
"1385",136,66,"NoPressureTest2","easy",1,1,1,0.459,444
"1386",136,17,"NoPressureTest2","difficult",1,1,1,0.494,445
"1387",136,27,"NoPressureTest2","easy",1,0,1,0.657,446
"1388",136,8,"NoPressureTest2","easy",1,0,1,0.646,447
"1389",136,46,"NoPressureTest2","difficult",1,1,0,0.245,449
"1390",136,55,"NoPressureTest2","difficult",1,1,0,0.347,450
"1391",136,32,"NoPressureTest2","difficult",1,1,1,0.273,451
"1392",136,70,"NoPressureTest2","easy",1,1,0,2.41,452
"1393",138,18,"TimePressureTest1","difficult",1,0,1,0.241,389
"1394",138,17,"TimePressureTest1","difficult",1,0,0,0.229,390
"1395",138,65,"TimePressureTest1","difficult",1,0,1,0.282,391
"1396",138,16,"TimePressureTest1","easy",1,1,1,0.26,393
"1397",138,52,"TimePressureTest1","easy",1,0,1,0.224,394
"1398",138,40,"TimePressureTest1","easy",1,0,1,0.226,396
"1399",138,6,"TimePressureTest1","easy",1,1,0,0.216,397
"1400",138,69,"TimePressureTest1","easy",1,0,1,0.251,398
"1401",138,53,"TimePressureTest1","difficult",1,1,0,0.378,399
"1402",138,5,"TimePressureTest1","difficult",1,0,1,0.513,400
"1403",138,48,"TimePressureTest1","difficult",1,1,0,0.29,401
"1404",138,35,"TimePressureTest1","easy",1,0,0,0.218,404
"1405",138,36,"TimePressureTest1","difficult",1,1,0,0.232,407
"1406",138,72,"TimePressureTest1","difficult",1,0,0,0.39,409
"1407",138,55,"TimePressureTest1","difficult",1,0,1,0.22,410
"1408",138,28,"TimePressureTest1","easy",1,1,1,0.269,411
"1409",138,64,"TimePressureTest1","easy",1,1,0,0.242,412
"1410",138,58,"TimePressureTest1","difficult",1,0,1,0.229,413
"1411",138,42,"TimePressureTest1","easy",1,0,0,0.248,414
"1412",138,1,"TimePressureTest1","easy",1,0,1,0.248,416
"1413",138,11,"TimePressureTest1","easy",1,0,0,0.467,417
"1414",138,43,"TimePressureTest1","easy",1,1,0,0.405,418
"1415",138,71,"TimePressureTest1","difficult",1,0,1,0.293,419
"1416",138,62,"TimePressureTest1","difficult",1,0,0,0.329,420
"1417",138,39,"TimePressureTest2","difficult",1,1,0,0.225,422
"1418",138,15,"TimePressureTest2","easy",1,1,0,0.219,423
"1419",138,49,"TimePressureTest2","easy",1,0,0,0.205,424
"1420",138,47,"TimePressureTest2","difficult",1,0,1,0.264,425
"1421",138,63,"TimePressureTest2","easy",1,0,0,0.367,426
"1422",138,46,"TimePressureTest2","difficult",1,1,1,0.235,427
"1423",138,32,"TimePressureTest2","difficult",1,0,0,0.255,428
"1424",138,23,"TimePressureTest2","easy",1,1,0,0.223,429
"1425",138,50,"TimePressureTest2","easy",1,0,0,0.404,430
"1426",138,9,"TimePressureTest2","difficult",1,0,1,0.323,431
"1427",138,7,"TimePressureTest2","difficult",1,1,1,0.292,433
"1428",138,19,"TimePressureTest2","difficult",1,1,0,0.33,436
"1429",138,12,"TimePressureTest2","difficult",1,0,0,0.28,437
"1430",138,4,"TimePressureTest2","difficult",1,1,0,0.359,438
"1431",138,29,"TimePressureTest2","difficult",1,0,0,0.351,441
"1432",138,14,"TimePressureTest2","easy",1,0,1,0.222,442
"1433",138,3,"TimePressureTest2","easy",1,NA,1,NA,443
"1434",138,27,"TimePressureTest2","easy",1,0,0,0.138,444
"1435",138,37,"TimePressureTest2","difficult",1,1,1,0.224,446
"1436",138,54,"TimePressureTest2","easy",1,1,1,0.335,447
"1437",138,21,"TimePressureTest2","easy",1,1,1,0.27,448
"1438",138,31,"TimePressureTest2","easy",1,1,1,0.393,449
"1439",138,45,"TimePressureTest2","easy",1,0,1,0.307,450
"1440",138,33,"TimePressureTest2","difficult",1,1,1,0.307,452
"1441",14,34,"NoPressureTest1","difficult",1,1,1,0.765,389
"1442",14,19,"NoPressureTest1","difficult",1,1,0,2.109,390
"1443",14,69,"NoPressureTest1","easy",1,1,1,0.494,392
"1444",14,58,"NoPressureTest1","difficult",1,0,1,1.813,393
"1445",14,8,"NoPressureTest1","easy",1,0,0,0.731,394
"1446",14,54,"NoPressureTest1","easy",1,1,1,0.558,395
"1447",14,3,"NoPressureTest1","easy",1,1,1,0.375,397
"1448",14,59,"NoPressureTest1","difficult",1,0,1,1.948,398
"1449",14,62,"NoPressureTest1","difficult",1,1,0,0.859,399
"1450",14,31,"NoPressureTest1","easy",1,1,1,3.535,400
"1451",14,26,"NoPressureTest1","easy",1,1,0,0.548,401
"1452",14,4,"NoPressureTest1","difficult",1,0,0,0.937,402
"1453",14,36,"NoPressureTest1","difficult",1,1,0,0.313,404
"1454",14,32,"NoPressureTest1","difficult",1,0,0,5.659,406
"1455",14,65,"NoPressureTest1","difficult",1,1,1,2.227,407
"1456",14,35,"NoPressureTest1","easy",1,0,0,2.818,408
"1457",14,63,"NoPressureTest1","easy",1,1,0,1.079,409
"1458",14,15,"NoPressureTest1","easy",1,0,0,6.34,410
"1459",14,52,"NoPressureTest1","easy",1,1,1,1.75,411
"1460",14,30,"NoPressureTest1","difficult",1,0,1,3.504,413
"1461",14,40,"NoPressureTest1","easy",1,1,1,0.367,414
"1462",14,22,"NoPressureTest1","difficult",1,1,0,0.809,415
"1463",14,50,"NoPressureTest1","easy",1,1,0,1.236,419
"1464",14,47,"NoPressureTest1","difficult",1,1,1,0.406,420
"1465",14,27,"NoPressureTest2","easy",1,0,0,1.861,421
"1466",14,21,"NoPressureTest2","easy",1,0,1,2.173,422
"1467",14,71,"NoPressureTest2","difficult",1,0,1,5.222,423
"1468",14,61,"NoPressureTest2","difficult",1,1,0,1.243,424
"1469",14,25,"NoPressureTest2","easy",1,1,1,2.688,425
"1470",14,67,"NoPressureTest2","easy",1,1,1,0.323,426
"1471",14,41,"NoPressureTest2","difficult",1,1,0,0.667,427
"1472",14,42,"NoPressureTest2","easy",1,0,0,1.421,431
"1473",14,43,"NoPressureTest2","easy",1,1,0,1.599,432
"1474",14,23,"NoPressureTest2","easy",1,0,0,3.026,433
"1475",14,45,"NoPressureTest2","easy",1,0,1,5.16,434
"1476",14,28,"NoPressureTest2","easy",1,1,1,0.335,435
"1477",14,68,"NoPressureTest2","difficult",1,1,0,1.093,437
"1478",14,39,"NoPressureTest2","difficult",1,1,0,1.424,438
"1479",14,18,"NoPressureTest2","difficult",1,1,1,1.374,439
"1480",14,49,"NoPressureTest2","easy",1,1,0,1.817,440
"1481",14,12,"NoPressureTest2","difficult",1,0,0,2.321,441
"1482",14,55,"NoPressureTest2","difficult",1,1,1,0.451,443
"1483",14,44,"NoPressureTest2","easy",1,0,1,3.886,446
"1484",14,6,"NoPressureTest2","easy",1,1,0,1.637,447
"1485",14,72,"NoPressureTest2","difficult",1,1,0,3.01,448
"1486",14,24,"NoPressureTest2","difficult",1,0,1,0.443,449
"1487",14,33,"NoPressureTest2","difficult",1,1,1,1.384,450
"1488",14,9,"NoPressureTest2","difficult",1,0,1,1.773,451
"1489",140,58,"NoPressureTest1","difficult",1,0,1,0.468,390
"1490",140,54,"NoPressureTest1","easy",1,0,1,0.727,391
"1491",140,47,"NoPressureTest1","difficult",1,1,1,1.5,392
"1492",140,45,"NoPressureTest1","easy",1,0,1,0.479,393
"1493",140,16,"NoPressureTest1","easy",1,1,1,0.973,395
"1494",140,66,"NoPressureTest1","easy",1,0,0,1.845,397
"1495",140,31,"NoPressureTest1","easy",1,0,1,2.317,399
"1496",140,37,"NoPressureTest1","difficult",1,0,1,6.706,400
"1497",140,7,"NoPressureTest1","difficult",1,1,1,6.518,401
"1498",140,64,"NoPressureTest1","easy",1,1,0,2.58,402
"1499",140,70,"NoPressureTest1","easy",1,1,1,0.769,403
"1500",140,39,"NoPressureTest1","difficult",1,1,0,2.874,404
"1501",140,27,"NoPressureTest1","easy",1,0,0,2.826,405
"1502",140,51,"NoPressureTest1","easy",1,0,0,1.525,406
"1503",140,34,"NoPressureTest1","difficult",1,0,1,1.559,408
"1504",140,53,"NoPressureTest1","difficult",1,1,0,2.248,409
"1505",140,11,"NoPressureTest1","easy",1,1,0,2.175,410
"1506",140,52,"NoPressureTest1","easy",1,0,1,5.27,411
"1507",140,62,"NoPressureTest1","difficult",1,0,0,2.079,412
"1508",140,71,"NoPressureTest1","difficult",1,1,1,2.389,413
"1509",140,50,"NoPressureTest1","easy",1,1,0,3.083,415
"1510",140,32,"NoPressureTest1","difficult",1,0,0,2.945,416
"1511",140,12,"NoPressureTest1","difficult",1,1,0,3.342,417
"1512",140,72,"NoPressureTest1","difficult",1,1,0,4.24,419
"1513",140,33,"NoPressureTest2","difficult",1,0,1,8.942,421
"1514",140,25,"NoPressureTest2","easy",1,1,1,2.253,422
"1515",140,15,"NoPressureTest2","easy",1,1,0,1.059,424
"1516",140,57,"NoPressureTest2","difficult",1,1,0,1.559,425
"1517",140,9,"NoPressureTest2","difficult",1,1,1,1.465,428
"1518",140,42,"NoPressureTest2","easy",1,0,0,1.569,429
"1519",140,4,"NoPressureTest2","difficult",1,0,0,1.051,430
"1520",140,29,"NoPressureTest2","difficult",1,0,0,1.177,431
"1521",140,36,"NoPressureTest2","difficult",1,1,0,0.66,432
"1522",140,8,"NoPressureTest2","easy",1,0,0,3.922,433
"1523",140,67,"NoPressureTest2","easy",1,0,1,0.714,434
"1524",140,44,"NoPressureTest2","easy",1,1,1,0.272,435
"1525",140,49,"NoPressureTest2","easy",1,1,0,1.122,436
"1526",140,30,"NoPressureTest2","difficult",1,0,1,6.072,437
"1527",140,1,"NoPressureTest2","easy",1,0,1,3.493,438
"1528",140,40,"NoPressureTest2","easy",1,1,1,3.639,439
"1529",140,59,"NoPressureTest2","difficult",1,1,1,1.605,440
"1530",140,41,"NoPressureTest2","difficult",1,0,0,0.938,441
"1531",140,24,"NoPressureTest2","difficult",1,1,1,9.322,443
"1532",140,22,"NoPressureTest2","difficult",1,0,0,3.01,445
"1533",140,43,"NoPressureTest2","easy",1,1,0,1.93,448
"1534",140,26,"NoPressureTest2","easy",1,1,0,3.57,449
"1535",140,60,"NoPressureTest2","easy",1,0,1,0.542,450
"1536",140,20,"NoPressureTest2","difficult",1,1,1,7.219,452
"1537",141,30,"NoPressureTest1","difficult",1,0,0,2.906,389
"1538",141,68,"NoPressureTest1","difficult",1,1,1,0.789,392
"1539",141,39,"NoPressureTest1","difficult",1,1,1,0.395,393
"1540",141,59,"NoPressureTest1","difficult",1,1,0,1.629,397
"1541",141,36,"NoPressureTest1","difficult",1,1,1,0.832,399
"1542",141,62,"NoPressureTest1","difficult",1,1,1,7.016,400
"1543",141,61,"NoPressureTest1","difficult",1,1,1,0.366,401
"1544",141,42,"NoPressureTest1","easy",1,0,1,0.917,402
"1545",141,72,"NoPressureTest1","difficult",1,1,1,0.379,403
"1546",141,54,"NoPressureTest1","easy",1,1,0,0.622,404
"1547",141,33,"NoPressureTest1","difficult",1,1,0,0.559,406
"1548",141,28,"NoPressureTest1","easy",1,1,0,0.483,407
"1549",141,69,"NoPressureTest1","easy",1,0,0,0.502,408
"1550",141,1,"NoPressureTest1","easy",1,0,0,1.269,409
"1551",141,8,"NoPressureTest1","easy",1,0,1,0.483,410
"1552",141,9,"NoPressureTest1","difficult",1,1,0,2.03,411
"1553",141,65,"NoPressureTest1","difficult",1,1,0,1.27,412
"1554",141,7,"NoPressureTest1","difficult",1,0,0,0.552,413
"1555",141,70,"NoPressureTest1","easy",1,1,0,0.344,414
"1556",141,52,"NoPressureTest1","easy",1,1,0,0.667,415
"1557",141,11,"NoPressureTest1","easy",1,1,1,0.908,417
"1558",141,64,"NoPressureTest1","easy",1,1,1,0.353,418
"1559",141,38,"NoPressureTest1","easy",1,1,1,0.314,419
"1560",141,26,"NoPressureTest1","easy",1,1,1,0.622,420
"1561",141,47,"NoPressureTest2","difficult",1,1,0,2.452,421
"1562",141,67,"NoPressureTest2","easy",1,1,0,1.643,422
"1563",141,58,"NoPressureTest2","difficult",1,1,0,0.421,423
"1564",141,57,"NoPressureTest2","difficult",1,1,1,1.147,425
"1565",141,32,"NoPressureTest2","difficult",1,1,1,0.513,426
"1566",141,14,"NoPressureTest2","easy",1,0,0,0.385,427
"1567",141,49,"NoPressureTest2","easy",1,1,1,0.287,428
"1568",141,4,"NoPressureTest2","difficult",1,1,1,0.382,430
"1569",141,35,"NoPressureTest2","easy",1,0,1,1.03,431
"1570",141,16,"NoPressureTest2","easy",1,0,0,4.605,432
"1571",141,12,"NoPressureTest2","difficult",1,0,1,1.069,433
"1572",141,20,"NoPressureTest2","difficult",1,0,0,4.749,435
"1573",141,34,"NoPressureTest2","difficult",1,0,0,1.171,436
"1574",141,43,"NoPressureTest2","easy",1,1,1,1.696,437
"1575",141,3,"NoPressureTest2","easy",1,1,0,0.583,438
"1576",141,31,"NoPressureTest2","easy",1,1,0,1.176,439
"1577",141,48,"NoPressureTest2","difficult",1,1,1,0.32,440
"1578",141,60,"NoPressureTest2","easy",1,1,0,3.681,441
"1579",141,56,"NoPressureTest2","difficult",1,1,0,0.718,444
"1580",141,10,"NoPressureTest2","difficult",1,1,1,0.371,445
"1581",141,6,"NoPressureTest2","easy",1,0,1,2.305,448
"1582",141,51,"NoPressureTest2","easy",1,1,1,0.566,450
"1583",141,46,"NoPressureTest2","difficult",1,0,0,0.555,451
"1584",141,66,"NoPressureTest2","easy",1,1,1,0.56,452
"1585",143,5,"TimePressureTest1","difficult",1,0,0,0.282,390
"1586",143,34,"TimePressureTest1","difficult",1,1,0,0.245,391
"1587",143,71,"TimePressureTest1","difficult",1,0,0,0.237,392
"1588",143,70,"TimePressureTest1","easy",1,1,0,0.233,393
"1589",143,43,"TimePressureTest1","easy",1,1,1,0.275,394
"1590",143,68,"TimePressureTest1","difficult",1,0,1,0.342,395
"1591",143,40,"TimePressureTest1","easy",1,0,0,0.275,398
"1592",143,44,"TimePressureTest1","easy",1,0,0,0.192,400
"1593",143,47,"TimePressureTest1","difficult",1,0,0,0.301,401
"1594",143,59,"TimePressureTest1","difficult",1,0,0,0.498,402
"1595",143,36,"TimePressureTest1","difficult",1,1,1,0.307,403
"1596",143,27,"TimePressureTest1","easy",1,1,1,0.488,404
"1597",143,50,"TimePressureTest1","easy",1,1,1,0.225,405
"1598",143,72,"TimePressureTest1","difficult",1,1,1,0.579,407
"1599",143,66,"TimePressureTest1","easy",1,1,1,0.247,408
"1600",143,61,"TimePressureTest1","difficult",1,0,1,0.322,409
"1601",143,4,"TimePressureTest1","difficult",1,1,1,0.257,410
"1602",143,18,"TimePressureTest1","difficult",1,0,0,0.237,411
"1603",143,35,"TimePressureTest1","easy",1,0,1,0.285,412
"1604",143,67,"TimePressureTest1","easy",1,1,0,0.267,415
"1605",143,3,"TimePressureTest1","easy",1,1,0,0.229,416
"1606",143,14,"TimePressureTest1","easy",1,0,0,0.514,417
"1607",143,42,"TimePressureTest1","easy",1,0,1,0.272,419
"1608",143,48,"TimePressureTest1","difficult",1,0,1,0.617,420
"1609",143,37,"TimePressureTest2","difficult",1,1,0,0.298,421
"1610",143,17,"TimePressureTest2","difficult",1,0,1,0.375,424
"1611",143,64,"TimePressureTest2","easy",1,NA,1,NA,425
"1612",143,19,"TimePressureTest2","difficult",1,1,1,0.267,427
"1613",143,10,"TimePressureTest2","difficult",1,1,1,0.311,428
"1614",143,22,"TimePressureTest2","difficult",1,0,1,0.307,429
"1615",143,58,"TimePressureTest2","difficult",1,0,0,0.229,430
"1616",143,12,"TimePressureTest2","difficult",1,1,1,0.276,431
"1617",143,52,"TimePressureTest2","easy",1,0,0,0.162,432
"1618",143,11,"TimePressureTest2","easy",1,NA,1,NA,435
"1619",143,28,"TimePressureTest2","easy",1,1,0,0.326,436
"1620",143,13,"TimePressureTest2","easy",1,0,1,0.244,437
"1621",143,29,"TimePressureTest2","difficult",1,0,1,0.404,438
"1622",143,20,"TimePressureTest2","difficult",1,1,0,0.31,439
"1623",143,23,"TimePressureTest2","easy",1,1,1,0.239,440
"1624",143,2,"TimePressureTest2","easy",1,0,0,0.663,441
"1625",143,49,"TimePressureTest2","easy",1,0,1,0.201,442
"1626",143,26,"TimePressureTest2","easy",1,1,1,0.28,444
"1627",143,24,"TimePressureTest2","difficult",1,1,0,0.263,446
"1628",143,33,"TimePressureTest2","difficult",1,0,0,0.277,448
"1629",143,65,"TimePressureTest2","difficult",1,NA,0,NA,449
"1630",143,25,"TimePressureTest2","easy",1,0,0,0.258,450
"1631",143,54,"TimePressureTest2","easy",1,0,0,0.442,451
"1632",143,31,"TimePressureTest2","easy",1,1,0,0.281,452
"1633",144,50,"NoPressureTest1","easy",1,1,0,4.034,390
"1634",144,18,"NoPressureTest1","difficult",1,1,1,0.334,391
"1635",144,37,"NoPressureTest1","difficult",1,1,1,4.06,392
"1636",144,48,"NoPressureTest1","difficult",1,0,0,4.834,394
"1637",144,33,"NoPressureTest1","difficult",1,1,1,1.704,395
"1638",144,53,"NoPressureTest1","difficult",1,0,0,3.808,397
"1639",144,63,"NoPressureTest1","easy",1,0,0,0.688,399
"1640",144,24,"NoPressureTest1","difficult",1,1,1,0.287,400
"1641",144,67,"NoPressureTest1","easy",1,0,1,1.188,401
"1642",144,1,"NoPressureTest1","easy",1,0,1,1.445,402
"1643",144,10,"NoPressureTest1","difficult",1,0,0,8.546,403
"1644",144,9,"NoPressureTest1","difficult",1,1,1,2.301,404
"1645",144,25,"NoPressureTest1","easy",1,1,1,0.837,405
"1646",144,43,"NoPressureTest1","easy",1,1,0,3.188,406
"1647",144,39,"NoPressureTest1","difficult",1,1,0,1.996,407
"1648",144,21,"NoPressureTest1","easy",1,1,1,0.309,408
"1649",144,35,"NoPressureTest1","easy",1,1,0,4.211,409
"1650",144,52,"NoPressureTest1","easy",1,0,1,0.516,410
"1651",144,49,"NoPressureTest1","easy",1,0,0,0.495,412
"1652",144,55,"NoPressureTest1","difficult",1,0,1,2.72,414
"1653",144,72,"NoPressureTest1","difficult",1,0,0,0.668,416
"1654",144,62,"NoPressureTest1","difficult",1,1,0,1.672,418
"1655",144,64,"NoPressureTest1","easy",1,0,0,13.037,419
"1656",144,70,"NoPressureTest1","easy",1,1,1,0.287,420
"1657",144,6,"NoPressureTest2","easy",1,0,0,0.66,422
"1658",144,27,"NoPressureTest2","easy",1,0,0,1.654,423
"1659",144,4,"NoPressureTest2","difficult",1,0,0,1.18,424
"1660",144,11,"NoPressureTest2","easy",1,1,0,2.366,425
"1661",144,66,"NoPressureTest2","easy",1,1,0,2.989,426
"1662",144,22,"NoPressureTest2","difficult",1,0,0,0.546,427
"1663",144,56,"NoPressureTest2","difficult",1,1,1,0.626,428
"1664",144,2,"NoPressureTest2","easy",1,0,1,5.64,429
"1665",144,5,"NoPressureTest2","difficult",1,1,1,1.421,430
"1666",144,58,"NoPressureTest2","difficult",1,0,1,0.222,431
"1667",144,68,"NoPressureTest2","difficult",1,0,0,1.888,432
"1668",144,31,"NoPressureTest2","easy",1,0,1,6.921,434
"1669",144,65,"NoPressureTest2","difficult",1,0,1,0.357,436
"1670",144,60,"NoPressureTest2","easy",1,1,1,4.967,437
"1671",144,71,"NoPressureTest2","difficult",1,0,1,3.74,438
"1672",144,46,"NoPressureTest2","difficult",1,1,1,1.335,439
"1673",144,16,"NoPressureTest2","easy",1,0,1,1.174,440
"1674",144,57,"NoPressureTest2","difficult",1,1,0,1.127,442
"1675",144,41,"NoPressureTest2","difficult",1,1,0,6.252,443
"1676",144,3,"NoPressureTest2","easy",1,0,1,1.148,444
"1677",144,26,"NoPressureTest2","easy",1,1,0,3.773,445
"1678",144,42,"NoPressureTest2","easy",1,0,0,0.766,446
"1679",144,17,"NoPressureTest2","difficult",1,0,0,1.975,448
"1680",144,45,"NoPressureTest2","easy",1,0,1,0.674,449
"1681",145,30,"NoPressureTest1","difficult",1,1,0,3.654,389
"1682",145,7,"NoPressureTest1","difficult",1,0,0,3.473,390
"1683",145,36,"NoPressureTest1","difficult",1,0,1,2.048,392
"1684",145,65,"NoPressureTest1","difficult",1,1,0,3.873,393
"1685",145,38,"NoPressureTest1","easy",1,1,1,5.647,394
"1686",145,9,"NoPressureTest1","difficult",1,0,0,2.801,395
"1687",145,11,"NoPressureTest1","easy",1,0,1,4.488,398
"1688",145,1,"NoPressureTest1","easy",1,0,0,3.111,399
"1689",145,21,"NoPressureTest1","easy",1,1,0,4.334,400
"1690",145,19,"NoPressureTest1","difficult",1,1,1,3.986,401
"1691",145,15,"NoPressureTest1","easy",1,0,1,4.222,402
"1692",145,49,"NoPressureTest1","easy",1,1,1,0.664,403
"1693",145,10,"NoPressureTest1","difficult",1,1,1,3.616,405
"1694",145,13,"NoPressureTest1","easy",1,1,1,0.609,406
"1695",145,28,"NoPressureTest1","easy",1,1,0,2.176,407
"1696",145,31,"NoPressureTest1","easy",1,0,0,3.203,410
"1697",145,41,"NoPressureTest1","difficult",1,1,1,12.056,412
"1698",145,46,"NoPressureTest1","difficult",1,0,0,2.15,414
"1699",145,26,"NoPressureTest1","easy",1,0,1,6.069,415
"1700",145,61,"NoPressureTest1","difficult",1,1,1,3.757,416
"1701",145,44,"NoPressureTest1","easy",1,1,0,3.389,417
"1702",145,16,"NoPressureTest1","easy",1,0,0,8.606,418
"1703",145,22,"NoPressureTest1","difficult",1,1,1,4.589,419
"1704",145,55,"NoPressureTest1","difficult",1,1,0,6.131,420
"1705",145,14,"NoPressureTest2","easy",1,0,0,3.717,421
"1706",145,3,"NoPressureTest2","easy",1,1,0,3.653,422
"1707",145,12,"NoPressureTest2","difficult",1,0,1,2.048,423
"1708",145,47,"NoPressureTest2","difficult",1,0,0,1.177,424
"1709",145,23,"NoPressureTest2","easy",1,1,1,1.279,425
"1710",145,51,"NoPressureTest2","easy",1,1,1,1.988,426
"1711",145,43,"NoPressureTest2","easy",1,1,1,4.475,427
"1712",145,29,"NoPressureTest2","difficult",1,1,1,2.539,428
"1713",145,53,"NoPressureTest2","difficult",1,0,1,6.01,429
"1714",145,71,"NoPressureTest2","difficult",1,0,0,5.881,431
"1715",145,62,"NoPressureTest2","difficult",1,0,1,5.422,434
"1716",145,40,"NoPressureTest2","easy",1,0,0,2.273,436
"1717",145,48,"NoPressureTest2","difficult",1,1,1,0.826,437
"1718",145,42,"NoPressureTest2","easy",1,1,1,1.484,438
"1719",145,35,"NoPressureTest2","easy",1,0,1,8.729,440
"1720",145,45,"NoPressureTest2","easy",1,1,0,1.205,441
"1721",145,70,"NoPressureTest2","easy",1,1,0,1.997,443
"1722",145,52,"NoPressureTest2","easy",1,0,0,9.865,445
"1723",145,34,"NoPressureTest2","difficult",1,1,0,2.216,446
"1724",145,20,"NoPressureTest2","difficult",1,0,0,4.237,447
"1725",145,64,"NoPressureTest2","easy",1,1,1,0.892,448
"1726",145,24,"NoPressureTest2","difficult",1,0,0,3.958,449
"1727",145,32,"NoPressureTest2","difficult",1,0,1,1.497,451
"1728",145,58,"NoPressureTest2","difficult",1,0,0,3.143,452
"1729",146,68,"NoPressureTest1","difficult",1,1,0,1.725,389
"1730",146,19,"NoPressureTest1","difficult",1,0,0,6.294,390
"1731",146,3,"NoPressureTest1","easy",1,1,1,0.516,391
"1732",146,7,"NoPressureTest1","difficult",1,1,1,1.184,392
"1733",146,55,"NoPressureTest1","difficult",1,1,1,0.504,395
"1734",146,56,"NoPressureTest1","difficult",1,0,1,1.411,396
"1735",146,8,"NoPressureTest1","easy",1,0,0,3.233,397
"1736",146,29,"NoPressureTest1","difficult",1,1,0,1.933,398
"1737",146,71,"NoPressureTest1","difficult",1,1,1,1.193,402
"1738",146,31,"NoPressureTest1","easy",1,1,1,7.048,403
"1739",146,53,"NoPressureTest1","difficult",1,0,0,7.905,404
"1740",146,25,"NoPressureTest1","easy",1,1,1,2.605,405
"1741",146,52,"NoPressureTest1","easy",1,0,1,0.953,406
"1742",146,66,"NoPressureTest1","easy",1,1,0,0.596,407
"1743",146,30,"NoPressureTest1","difficult",1,0,1,0.907,408
"1744",146,38,"NoPressureTest1","easy",1,1,0,0.612,409
"1745",146,49,"NoPressureTest1","easy",1,0,0,4.231,410
