"","subject","statement_identifier","presentation_identifier","within_identifier","between_identifier","response","repeated","rt","trial"
"1",1,1,"TimePressureExposure",1,1,NA,0,NA,11
"2",1,2,"TimePressureExposure",1,1,NA,0,NA,12
"3",1,3,"TimePressureExposure",1,1,NA,0,NA,13
"4",1,4,"TimePressureExposure",1,1,NA,0,NA,14
"5",1,5,"TimePressureExposure",1,1,NA,0,NA,15
"6",1,6,"TimePressureExposure",1,1,NA,0,NA,16
"7",1,7,"TimePressureExposure",1,1,NA,0,NA,17
"8",1,8,"TimePressureExposure",1,1,NA,0,NA,18
"9",1,9,"TimePressureExposure",1,1,NA,0,NA,19
"10",1,10,"TimePressureExposure",1,1,NA,0,NA,20
"11",1,11,"TimePressureExposure",1,1,NA,0,NA,21
"12",1,12,"TimePressureExposure",1,1,NA,0,NA,22
"13",1,13,"TimePressureExposure",1,1,NA,0,NA,23
"14",1,14,"TimePressureExposure",1,1,NA,0,NA,24
"15",1,15,"TimePressureExposure",1,1,NA,0,NA,25
"16",1,16,"TimePressureExposure",1,1,NA,0,NA,26
"17",1,17,"TimePressureExposure",1,1,NA,0,NA,27
"18",1,18,"TimePressureExposure",1,1,NA,0,NA,28
"19",1,19,"TimePressureExposure",1,1,NA,0,NA,29
"20",1,20,"TimePressureExposure",1,1,NA,0,NA,30
"21",1,21,"TimePressureExposure",1,1,NA,0,NA,31
"22",1,22,"TimePressureExposure",1,1,NA,0,NA,32
"23",1,23,"TimePressureExposure",1,1,NA,0,NA,33
"24",1,24,"TimePressureExposure",1,1,NA,0,NA,34
"25",1,25,"TimePressureExposure",1,1,NA,0,NA,35
"26",1,26,"TimePressureExposure",1,1,NA,0,NA,36
"27",1,27,"TimePressureExposure",1,1,NA,0,NA,37
"28",1,28,"TimePressureExposure",1,1,NA,0,NA,38
"29",1,29,"TimePressureExposure",1,1,NA,0,NA,39
"30",1,30,"TimePressureExposure",1,1,NA,0,NA,40
"31",1,31,"TimePressureExposure",1,1,NA,0,NA,41
"32",1,32,"TimePressureExposure",1,1,NA,0,NA,42
"33",1,33,"TimePressureExposure",1,1,NA,0,NA,43
"34",1,34,"TimePressureExposure",1,1,NA,0,NA,44
"35",1,35,"TimePressureExposure",1,1,NA,0,NA,45
"36",1,36,"TimePressureExposure",1,1,NA,0,NA,46
"37",1,37,"TimePressureExposure",1,1,NA,0,NA,47
"38",1,38,"TimePressureExposure",1,1,NA,0,NA,48
"39",1,39,"TimePressureExposure",1,1,NA,0,NA,49
"40",1,40,"TimePressureExposure",1,1,NA,0,NA,50
"41",1,41,"TimePressureExposure",1,1,NA,0,NA,51
"42",1,42,"TimePressureExposure",1,1,NA,0,NA,52
"43",1,43,"TimePressureExposure",1,1,NA,0,NA,53
"44",1,44,"TimePressureExposure",1,1,NA,0,NA,54
"45",1,45,"TimePressureExposure",1,1,NA,0,NA,55
"46",1,46,"TimePressureExposure",1,1,NA,0,NA,56
"47",1,47,"TimePressureExposure",1,1,NA,0,NA,57
"48",1,48,"TimePressureExposure",1,1,NA,0,NA,58
"49",1,49,"TimePressureExposure",1,1,NA,0,NA,59
"50",1,50,"TimePressureExposure",1,1,NA,0,NA,60
"51",1,51,"TimePressureExposure",1,1,NA,0,NA,61
"52",1,52,"TimePressureExposure",1,1,NA,0,NA,62
"53",1,53,"TimePressureExposure",1,1,NA,0,NA,63
"54",1,54,"TimePressureExposure",1,1,NA,0,NA,64
"55",1,55,"TimePressureExposure",1,1,NA,0,NA,65
"56",1,56,"TimePressureExposure",1,1,NA,0,NA,66
"57",1,57,"TimePressureExposure",1,1,NA,0,NA,67
"58",1,58,"TimePressureExposure",1,1,NA,0,NA,68
"59",1,59,"TimePressureExposure",1,1,NA,0,NA,69
"60",1,60,"TimePressureExposure",1,1,NA,0,NA,70
"61",1,61,"TimePressureExposure",1,1,NA,0,NA,71
"62",1,62,"TimePressureExposure",1,1,NA,0,NA,72
"63",1,63,"TimePressureExposure",1,1,NA,0,NA,73
"64",1,64,"TimePressureExposure",1,1,NA,0,NA,74
"65",1,65,"TimePressureExposure",1,1,NA,0,NA,75
"66",1,66,"TimePressureExposure",1,1,NA,0,NA,76
"67",1,67,"TimePressureExposure",1,1,NA,0,NA,77
"68",1,68,"TimePressureExposure",1,1,NA,0,NA,78
"69",1,69,"TimePressureExposure",1,1,NA,0,NA,79
"70",1,70,"TimePressureExposure",1,1,NA,0,NA,80
"71",1,71,"TimePressureExposure",1,1,NA,0,NA,81
"72",1,72,"TimePressureExposure",1,1,NA,0,NA,82
"73",1,73,"TimePressureExposure",1,1,NA,0,NA,83
"74",1,74,"TimePressureExposure",1,1,NA,0,NA,84
"75",1,75,"TimePressureExposure",1,1,NA,0,NA,85
"76",1,76,"TimePressureExposure",1,1,NA,0,NA,86
"77",1,77,"TimePressureExposure",1,1,NA,0,NA,87
"78",1,78,"TimePressureExposure",1,1,NA,0,NA,88
"79",1,79,"TimePressureExposure",1,1,NA,0,NA,89
"80",1,80,"TimePressureExposure",1,1,NA,0,NA,90
"81",1,63,"TimePressureTest",1,1,1,0,0.424,404
"82",1,78,"TimePressureTest",1,1,NA,0,NA,405
"83",1,81,"TimePressureTest",1,1,0,0,0.333,406
"84",1,82,"TimePressureTest",1,1,1,0,0.572,407
"85",1,16,"TimePressureTest",1,1,0,0,0.554,408
"86",1,77,"TimePressureTest",1,1,NA,0,NA,409
"87",1,38,"TimePressureTest",1,1,0,0,0.233,410
"88",1,83,"TimePressureTest",1,1,1,0,0.5,411
"89",1,61,"TimePressureTest",1,1,1,0,0.261,412
"90",1,80,"TimePressureTest",1,1,NA,0,NA,413
"91",1,22,"TimePressureTest",1,1,1,0,0.203,414
"92",1,2,"TimePressureTest",1,1,0,0,0.257,415
"93",1,84,"TimePressureTest",1,1,0,0,0.337,416
"94",1,85,"TimePressureTest",1,1,1,0,0.226,417
"95",1,41,"TimePressureTest",1,1,1,0,0.251,418
"96",1,86,"TimePressureTest",1,1,NA,0,NA,419
"97",1,87,"TimePressureTest",1,1,1,0,0.238,420
"98",1,88,"TimePressureTest",1,1,1,0,0.265,421
"99",1,89,"TimePressureTest",1,1,NA,0,NA,422
"100",1,75,"TimePressureTest",1,1,1,0,0.335,423
"101",1,72,"TimePressureTest",1,1,1,0,0.509,424
"102",1,31,"TimePressureTest",1,1,1,0,0.192,425
"103",1,48,"TimePressureTest",1,1,0,0,0.387,426
"104",1,90,"TimePressureTest",1,1,1,0,0.62,427
"105",1,91,"TimePressureTest",1,1,1,0,0.26,428
"106",1,92,"TimePressureTest",1,1,0,0,0.293,429
"107",1,93,"TimePressureTest",1,1,0,0,0.555,430
"108",1,29,"TimePressureTest",1,1,1,0,0.342,431
"109",1,51,"TimePressureTest",1,1,0,0,0.279,432
"110",1,94,"TimePressureTest",1,1,1,0,0.282,433
"111",1,95,"TimePressureTest",1,1,1,0,0.24,434
"112",1,96,"TimePressureTest",1,1,NA,0,NA,435
"113",1,97,"TimePressureTest",1,1,1,0,0.433,436
"114",1,20,"TimePressureTest",1,1,1,0,0.227,437
"115",1,69,"TimePressureTest",1,1,1,0,0.236,438
"116",1,33,"TimePressureTest",1,1,1,0,0.52,439
"117",1,23,"TimePressureTest",1,1,1,0,0.347,440
"118",1,98,"TimePressureTest",1,1,0,0,0.523,441
"119",1,99,"TimePressureTest",1,1,NA,0,NA,442
"120",1,100,"TimePressureTest",1,1,0,0,0.598,443
"121",1,46,"TimePressureTest",1,1,1,0,0.393,444
"122",1,30,"TimePressureTest",1,1,0,0,0.405,445
"123",1,101,"TimePressureTest",1,1,0,0,0.547,446
"124",1,102,"TimePressureTest",1,1,1,0,0.619,447
"125",1,103,"TimePressureTest",1,1,NA,0,NA,448
"126",1,62,"TimePressureTest",1,1,1,0,0.168,449
"127",1,73,"TimePressureTest",1,1,0,0,0.295,450
"128",1,104,"TimePressureTest",1,1,NA,0,NA,451
"129",1,105,"TimePressureTest",1,1,1,0,0.258,452
"130",1,106,"TimePressureTest",1,1,1,0,0.61,453
"131",1,107,"TimePressureTest",1,1,NA,0,NA,454
"132",1,108,"TimePressureTest",1,1,1,0,0.077,455
"133",1,57,"TimePressureTest",1,1,1,0,0.568,456
"134",1,58,"TimePressureTest",1,1,1,0,0.326,457
"135",1,79,"TimePressureTest",1,1,NA,0,NA,458
"136",1,109,"TimePressureTest",1,1,NA,0,NA,459
"137",1,26,"TimePressureTest",1,1,0,0,0.19,460
"138",1,110,"TimePressureTest",1,1,NA,0,NA,461
"139",1,76,"TimePressureTest",1,1,1,0,0.246,462
"140",1,111,"TimePressureTest",1,1,0,0,0.58,463
"141",1,112,"TimePressureTest",1,1,0,0,0.325,464
"142",1,35,"TimePressureTest",1,1,1,0,0.275,465
"143",1,113,"TimePressureTest",1,1,0,0,0.358,466
"144",1,114,"TimePressureTest",1,1,NA,0,NA,467
"145",1,115,"TimePressureTest",1,1,1,0,0.238,468
"146",1,14,"TimePressureTest",1,1,0,0,0.34,469
"147",1,52,"TimePressureTest",1,1,1,0,0.379,470
"148",1,21,"TimePressureTest",1,1,1,0,0.322,471
"149",1,28,"TimePressureTest",1,1,1,0,0.273,472
"150",1,47,"TimePressureTest",1,1,1,0,0.292,473
"151",1,40,"TimePressureTest",1,1,1,0,0.25,474
"152",1,66,"TimePressureTest",1,1,0,0,0.281,475
"153",1,116,"TimePressureTest",1,1,1,0,0.571,476
"154",1,117,"TimePressureTest",1,1,1,0,0.265,477
"155",1,118,"TimePressureTest",1,1,NA,0,NA,478
"156",1,10,"TimePressureTest",1,1,1,0,0.047,479
"157",1,119,"TimePressureTest",1,1,0,0,0.582,480
"158",1,120,"TimePressureTest",1,1,1,0,0.597,481
"159",1,15,"TimePressureTest",1,1,1,0,0.313,482
"160",1,27,"TimePressureTest",1,1,1,0,0.564,483
"161",13,103,"TimePressureExposure",1,1,NA,0,NA,11
"162",13,113,"TimePressureExposure",1,1,NA,0,NA,12
"163",13,50,"TimePressureExposure",1,1,NA,0,NA,13
"164",13,74,"TimePressureExposure",1,1,NA,0,NA,14
"165",13,11,"TimePressureExposure",1,1,NA,0,NA,15
"166",13,87,"TimePressureExposure",1,1,NA,0,NA,16
"167",13,18,"TimePressureExposure",1,1,NA,0,NA,17
"168",13,115,"TimePressureExposure",1,1,NA,0,NA,18
"169",13,89,"TimePressureExposure",1,1,NA,0,NA,19
"170",13,43,"TimePressureExposure",1,1,NA,0,NA,20
"171",13,83,"TimePressureExposure",1,1,NA,0,NA,21
"172",13,67,"TimePressureExposure",1,1,NA,0,NA,22
"173",13,17,"TimePressureExposure",1,1,NA,0,NA,23
"174",13,60,"TimePressureExposure",1,1,NA,0,NA,24
"175",13,24,"TimePressureExposure",1,1,NA,0,NA,25
"176",13,100,"TimePressureExposure",1,1,NA,0,NA,26
"177",13,56,"TimePressureExposure",1,1,NA,0,NA,27
"178",13,107,"TimePressureExposure",1,1,NA,0,NA,28
"179",13,82,"TimePressureExposure",1,1,NA,0,NA,29
"180",13,94,"TimePressureExposure",1,1,NA,0,NA,30
"181",13,12,"TimePressureExposure",1,1,NA,0,NA,31
"182",13,111,"TimePressureExposure",1,1,NA,0,NA,32
"183",13,84,"TimePressureExposure",1,1,NA,0,NA,33
"184",13,119,"TimePressureExposure",1,1,NA,0,NA,34
"185",13,65,"TimePressureExposure",1,1,NA,0,NA,35
"186",13,102,"TimePressureExposure",1,1,NA,0,NA,36
"187",13,13,"TimePressureExposure",1,1,NA,0,NA,37
"188",13,5,"TimePressureExposure",1,1,NA,0,NA,38
"189",13,36,"TimePressureExposure",1,1,NA,0,NA,39
"190",13,42,"TimePressureExposure",1,1,NA,0,NA,40
"191",13,90,"TimePressureExposure",1,1,NA,0,NA,41
"192",13,88,"TimePressureExposure",1,1,NA,0,NA,42
"193",13,68,"TimePressureExposure",1,1,NA,0,NA,43
"194",13,97,"TimePressureExposure",1,1,NA,0,NA,44
"195",13,101,"TimePressureExposure",1,1,NA,0,NA,45
"196",13,1,"TimePressureExposure",1,1,NA,0,NA,46
"197",13,98,"TimePressureExposure",1,1,NA,0,NA,47
"198",13,108,"TimePressureExposure",1,1,NA,0,NA,48
"199",13,53,"TimePressureExposure",1,1,NA,0,NA,49
"200",13,49,"TimePressureExposure",1,1,NA,0,NA,50
"201",13,25,"TimePressureExposure",1,1,NA,0,NA,51
"202",13,109,"TimePressureExposure",1,1,NA,0,NA,52
"203",13,7,"TimePressureExposure",1,1,NA,0,NA,53
"204",13,91,"TimePressureExposure",1,1,NA,0,NA,54
"205",13,114,"TimePressureExposure",1,1,NA,0,NA,55
"206",13,93,"TimePressureExposure",1,1,NA,0,NA,56
"207",13,64,"TimePressureExposure",1,1,NA,0,NA,57
"208",13,95,"TimePressureExposure",1,1,NA,0,NA,58
"209",13,71,"TimePressureExposure",1,1,NA,0,NA,59
"210",13,112,"TimePressureExposure",1,1,NA,0,NA,60
"211",13,106,"TimePressureExposure",1,1,NA,0,NA,61
"212",13,39,"TimePressureExposure",1,1,NA,0,NA,62
"213",13,9,"TimePressureExposure",1,1,NA,0,NA,63
"214",13,44,"TimePressureExposure",1,1,NA,0,NA,64
"215",13,118,"TimePressureExposure",1,1,NA,0,NA,65
"216",13,104,"TimePressureExposure",1,1,NA,0,NA,66
"217",13,81,"TimePressureExposure",1,1,NA,0,NA,67
"218",13,4,"TimePressureExposure",1,1,NA,0,NA,68
"219",13,19,"TimePressureExposure",1,1,NA,0,NA,69
"220",13,117,"TimePressureExposure",1,1,NA,0,NA,70
"221",13,55,"TimePressureExposure",1,1,NA,0,NA,71
"222",13,6,"TimePressureExposure",1,1,NA,0,NA,72
"223",13,86,"TimePressureExposure",1,1,NA,0,NA,73
"224",13,59,"TimePressureExposure",1,1,NA,0,NA,74
"225",13,92,"TimePressureExposure",1,1,NA,0,NA,75
"226",13,37,"TimePressureExposure",1,1,NA,0,NA,76
"227",13,8,"TimePressureExposure",1,1,NA,0,NA,77
"228",13,116,"TimePressureExposure",1,1,NA,0,NA,78
"229",13,110,"TimePressureExposure",1,1,NA,0,NA,79
"230",13,54,"TimePressureExposure",1,1,NA,0,NA,80
"231",13,32,"TimePressureExposure",1,1,NA,0,NA,81
"232",13,120,"TimePressureExposure",1,1,NA,0,NA,82
"233",13,96,"TimePressureExposure",1,1,NA,0,NA,83
"234",13,34,"TimePressureExposure",1,1,NA,0,NA,84
"235",13,105,"TimePressureExposure",1,1,NA,0,NA,85
"236",13,3,"TimePressureExposure",1,1,NA,0,NA,86
"237",13,70,"TimePressureExposure",1,1,NA,0,NA,87
"238",13,85,"TimePressureExposure",1,1,NA,0,NA,88
"239",13,45,"TimePressureExposure",1,1,NA,0,NA,89
"240",13,99,"TimePressureExposure",1,1,NA,0,NA,90
"241",13,35,"TimePressureTest",1,1,NA,0,NA,404
"242",13,66,"TimePressureTest",1,1,0,0,0.317,405
"243",13,51,"TimePressureTest",1,1,1,0,0.472,406
"244",13,10,"TimePressureTest",1,1,0,0,0.564,407
"245",13,60,"TimePressureTest",1,1,1,0,0.258,408
"246",13,14,"TimePressureTest",1,1,0,0,0.306,409
"247",13,78,"TimePressureTest",1,1,1,0,0.587,410
"248",13,5,"TimePressureTest",1,1,0,0,0.299,411
"249",13,31,"TimePressureTest",1,1,NA,0,NA,412
"250",13,45,"TimePressureTest",1,1,1,0,0.489,413
"251",13,3,"TimePressureTest",1,1,1,0,0.39,414
"252",13,23,"TimePressureTest",1,1,0,0,0.353,415
"253",13,20,"TimePressureTest",1,1,1,0,0.437,416
"254",13,54,"TimePressureTest",1,1,1,0,0.504,417
"255",13,26,"TimePressureTest",1,1,1,0,0.489,418
"256",13,22,"TimePressureTest",1,1,NA,0,NA,419
"257",13,47,"TimePressureTest",1,1,1,0,0.587,420
"258",13,63,"TimePressureTest",1,1,NA,0,NA,421
"259",13,17,"TimePressureTest",1,1,NA,0,NA,422
"260",13,44,"TimePressureTest",1,1,0,0,0.39,423
"261",13,6,"TimePressureTest",1,1,0,0,0.273,424
"262",13,33,"TimePressureTest",1,1,1,0,0.437,425
"263",13,29,"TimePressureTest",1,1,1,0,0.359,426
"264",13,71,"TimePressureTest",1,1,1,0,0.283,427
"265",13,52,"TimePressureTest",1,1,1,0,0.433,428
"266",13,37,"TimePressureTest",1,1,NA,0,NA,429
"267",13,36,"TimePressureTest",1,1,NA,0,NA,430
"268",13,34,"TimePressureTest",1,1,0,0,0.286,431
"269",13,59,"TimePressureTest",1,1,1,0,0.259,432
"270",13,24,"TimePressureTest",1,1,NA,0,NA,433
"271",13,50,"TimePressureTest",1,1,0,0,0.249,434
"272",13,43,"TimePressureTest",1,1,1,0,0.2,435
"273",13,73,"TimePressureTest",1,1,1,0,0.427,436
"274",13,1,"TimePressureTest",1,1,1,0,0.38,437
"275",13,18,"TimePressureTest",1,1,1,0,0.292,438
"276",13,9,"TimePressureTest",1,1,1,0,0.298,439
"277",13,70,"TimePressureTest",1,1,NA,0,NA,440
"278",13,65,"TimePressureTest",1,1,0,0,0.392,441
"279",13,49,"TimePressureTest",1,1,1,0,0.483,442
"280",13,57,"TimePressureTest",1,1,0,0,0.512,443
"281",13,68,"TimePressureTest",1,1,NA,0,NA,444
"282",13,8,"TimePressureTest",1,1,0,0,0.425,445
"283",13,72,"TimePressureTest",1,1,0,0,0.505,446
"284",13,40,"TimePressureTest",1,1,1,0,0.57,447
"285",13,11,"TimePressureTest",1,1,NA,0,NA,448
"286",13,19,"TimePressureTest",1,1,0,0,0.365,449
"287",13,42,"TimePressureTest",1,1,0,0,0.466,450
"288",13,58,"TimePressureTest",1,1,0,0,0.491,451
"289",13,74,"TimePressureTest",1,1,NA,0,NA,452
"290",13,77,"TimePressureTest",1,1,1,0,0.494,453
"291",13,12,"TimePressureTest",1,1,NA,0,NA,454
"292",13,15,"TimePressureTest",1,1,1,0,0.257,455
"293",13,38,"TimePressureTest",1,1,1,0,0.546,456
"294",13,30,"TimePressureTest",1,1,NA,0,NA,457
"295",13,64,"TimePressureTest",1,1,1,0,0.319,458
"296",13,25,"TimePressureTest",1,1,1,0,0.394,459
"297",13,76,"TimePressureTest",1,1,0,0,0.598,460
"298",13,56,"TimePressureTest",1,1,1,0,0.329,461
"299",13,53,"TimePressureTest",1,1,1,0,0.406,462
"300",13,28,"TimePressureTest",1,1,0,0,0.244,463
"301",13,27,"TimePressureTest",1,1,0,0,0.466,464
"302",13,7,"TimePressureTest",1,1,0,0,0.587,465
"303",13,21,"TimePressureTest",1,1,NA,0,NA,466
"304",13,16,"TimePressureTest",1,1,NA,0,NA,467
"305",13,80,"TimePressureTest",1,1,0,0,0.63,468
"306",13,69,"TimePressureTest",1,1,NA,0,NA,469
"307",13,62,"TimePressureTest",1,1,NA,0,NA,470
"308",13,46,"TimePressureTest",1,1,NA,0,NA,471
"309",13,48,"TimePressureTest",1,1,1,0,0.543,472
"310",13,39,"TimePressureTest",1,1,NA,0,NA,473
"311",13,4,"TimePressureTest",1,1,1,0,0.636,474
"312",13,55,"TimePressureTest",1,1,NA,0,NA,475
"313",13,32,"TimePressureTest",1,1,1,0,0.573,476
"314",13,61,"TimePressureTest",1,1,1,0,0.459,477
"315",13,79,"TimePressureTest",1,1,NA,0,NA,478
"316",13,13,"TimePressureTest",1,1,1,0,0.421,479
"317",13,41,"TimePressureTest",1,1,0,0,0.392,480
"318",13,75,"TimePressureTest",1,1,1,0,0.404,481
"319",13,2,"TimePressureTest",1,1,NA,0,NA,482
"320",13,67,"TimePressureTest",1,1,0,0,0.327,483
"321",15,6,"TimePressureExposure",1,1,NA,0,NA,11
"322",15,34,"TimePressureExposure",1,1,NA,0,NA,12
"323",15,80,"TimePressureExposure",1,1,NA,0,NA,13
"324",15,31,"TimePressureExposure",1,1,NA,0,NA,14
"325",15,56,"TimePressureExposure",1,1,NA,0,NA,15
"326",15,45,"TimePressureExposure",1,1,NA,0,NA,16
"327",15,5,"TimePressureExposure",1,1,NA,0,NA,17
"328",15,25,"TimePressureExposure",1,1,NA,0,NA,18
"329",15,18,"TimePressureExposure",1,1,NA,0,NA,19
"330",15,37,"TimePressureExposure",1,1,NA,0,NA,20
"331",15,54,"TimePressureExposure",1,1,NA,0,NA,21
"332",15,16,"TimePressureExposure",1,1,NA,0,NA,22
"333",15,35,"TimePressureExposure",1,1,NA,0,NA,23
"334",15,30,"TimePressureExposure",1,1,NA,0,NA,24
"335",15,79,"TimePressureExposure",1,1,NA,0,NA,25
"336",15,32,"TimePressureExposure",1,1,NA,0,NA,26
"337",15,9,"TimePressureExposure",1,1,NA,0,NA,27
"338",15,69,"TimePressureExposure",1,1,NA,0,NA,28
"339",15,8,"TimePressureExposure",1,1,NA,0,NA,29
"340",15,74,"TimePressureExposure",1,1,NA,0,NA,30
"341",15,13,"TimePressureExposure",1,1,NA,0,NA,31
"342",15,47,"TimePressureExposure",1,1,NA,0,NA,32
"343",15,33,"TimePressureExposure",1,1,NA,0,NA,33
"344",15,78,"TimePressureExposure",1,1,NA,0,NA,34
"345",15,36,"TimePressureExposure",1,1,NA,0,NA,35
"346",15,12,"TimePressureExposure",1,1,NA,0,NA,36
"347",15,73,"TimePressureExposure",1,1,NA,0,NA,37
"348",15,59,"TimePressureExposure",1,1,NA,0,NA,38
"349",15,15,"TimePressureExposure",1,1,NA,0,NA,39
"350",15,42,"TimePressureExposure",1,1,NA,0,NA,40
"351",15,77,"TimePressureExposure",1,1,NA,0,NA,41
"352",15,26,"TimePressureExposure",1,1,NA,0,NA,42
"353",15,48,"TimePressureExposure",1,1,NA,0,NA,43
"354",15,23,"TimePressureExposure",1,1,NA,0,NA,44
"355",15,28,"TimePressureExposure",1,1,NA,0,NA,45
"356",15,2,"TimePressureExposure",1,1,NA,0,NA,46
"357",15,50,"TimePressureExposure",1,1,NA,0,NA,47
"358",15,17,"TimePressureExposure",1,1,NA,0,NA,48
"359",15,38,"TimePressureExposure",1,1,NA,0,NA,49
"360",15,61,"TimePressureExposure",1,1,NA,0,NA,50
"361",15,58,"TimePressureExposure",1,1,NA,0,NA,51
"362",15,64,"TimePressureExposure",1,1,NA,0,NA,52
"363",15,53,"TimePressureExposure",1,1,NA,0,NA,53
"364",15,51,"TimePressureExposure",1,1,NA,0,NA,54
"365",15,29,"TimePressureExposure",1,1,NA,0,NA,55
"366",15,4,"TimePressureExposure",1,1,NA,0,NA,56
"367",15,7,"TimePressureExposure",1,1,NA,0,NA,57
"368",15,21,"TimePressureExposure",1,1,NA,0,NA,58
"369",15,72,"TimePressureExposure",1,1,NA,0,NA,59
"370",15,24,"TimePressureExposure",1,1,NA,0,NA,60
"371",15,41,"TimePressureExposure",1,1,NA,0,NA,61
"372",15,60,"TimePressureExposure",1,1,NA,0,NA,62
"373",15,11,"TimePressureExposure",1,1,NA,0,NA,63
"374",15,20,"TimePressureExposure",1,1,NA,0,NA,64
"375",15,67,"TimePressureExposure",1,1,NA,0,NA,65
"376",15,55,"TimePressureExposure",1,1,NA,0,NA,66
"377",15,22,"TimePressureExposure",1,1,NA,0,NA,67
"378",15,49,"TimePressureExposure",1,1,NA,0,NA,68
"379",15,70,"TimePressureExposure",1,1,NA,0,NA,69
"380",15,66,"TimePressureExposure",1,1,NA,0,NA,70
"381",15,10,"TimePressureExposure",1,1,NA,0,NA,71
"382",15,19,"TimePressureExposure",1,1,NA,0,NA,72
"383",15,40,"TimePressureExposure",1,1,NA,0,NA,73
"384",15,57,"TimePressureExposure",1,1,NA,0,NA,74
"385",15,65,"TimePressureExposure",1,1,NA,0,NA,75
"386",15,1,"TimePressureExposure",1,1,NA,0,NA,76
"387",15,62,"TimePressureExposure",1,1,NA,0,NA,77
"388",15,63,"TimePressureExposure",1,1,NA,0,NA,78
"389",15,68,"TimePressureExposure",1,1,NA,0,NA,79
"390",15,52,"TimePressureExposure",1,1,NA,0,NA,80
"391",15,39,"TimePressureExposure",1,1,NA,0,NA,81
"392",15,43,"TimePressureExposure",1,1,NA,0,NA,82
"393",15,75,"TimePressureExposure",1,1,NA,0,NA,83
"394",15,3,"TimePressureExposure",1,1,NA,0,NA,84
"395",15,71,"TimePressureExposure",1,1,NA,0,NA,85
"396",15,14,"TimePressureExposure",1,1,NA,0,NA,86
"397",15,44,"TimePressureExposure",1,1,NA,0,NA,87
"398",15,46,"TimePressureExposure",1,1,NA,0,NA,88
"399",15,27,"TimePressureExposure",1,1,NA,0,NA,89
"400",15,76,"TimePressureExposure",1,1,NA,0,NA,90
"401",15,31,"TimePressureTest",1,1,1,0,0.337,404
"402",15,106,"TimePressureTest",1,1,NA,0,NA,405
"403",15,95,"TimePressureTest",1,1,1,0,0.208,406
"404",15,63,"TimePressureTest",1,1,0,0,0.246,407
"405",15,91,"TimePressureTest",1,1,1,0,0.363,408
"406",15,15,"TimePressureTest",1,1,1,0,0.571,409
"407",15,101,"TimePressureTest",1,1,1,0,0.131,410
"408",15,2,"TimePressureTest",1,1,1,0,0.363,411
"409",15,85,"TimePressureTest",1,1,1,0,0.219,412
"410",15,78,"TimePressureTest",1,1,0,0,0.624,413
"411",15,23,"TimePressureTest",1,1,1,0,0.455,414
"412",15,99,"TimePressureTest",1,1,0,0,0.338,415
"413",15,115,"TimePressureTest",1,1,1,0,0.627,416
"414",15,75,"TimePressureTest",1,1,0,0,0.089,417
"415",15,47,"TimePressureTest",1,1,0,0,0.083,418
"416",15,84,"TimePressureTest",1,1,0,0,0.078,419
"417",15,38,"TimePressureTest",1,1,NA,0,NA,420
"418",15,79,"TimePressureTest",1,1,0,0,0.247,421
"419",15,110,"TimePressureTest",1,1,1,0,0.06,422
"420",15,22,"TimePressureTest",1,1,1,0,0.551,423
"421",15,100,"TimePressureTest",1,1,0,0,0.144,424
"422",15,113,"TimePressureTest",1,1,1,0,0.439,425
"423",15,21,"TimePressureTest",1,1,NA,0,NA,426
"424",15,52,"TimePressureTest",1,1,0,0,0.243,427
"425",15,33,"TimePressureTest",1,1,1,0,0.552,428
"426",15,92,"TimePressureTest",1,1,0,0,0.273,429
"427",15,40,"TimePressureTest",1,1,0,0,0.228,430
"428",15,48,"TimePressureTest",1,1,0,0,0.088,431
"429",15,20,"TimePressureTest",1,1,1,0,0.435,432
"430",15,96,"TimePressureTest",1,1,1,0,0.576,433
"431",15,118,"TimePressureTest",1,1,0,0,0.28,434
"432",15,120,"TimePressureTest",1,1,0,0,0.315,435
"433",15,86,"TimePressureTest",1,1,0,0,0.381,436
"434",15,30,"TimePressureTest",1,1,1,0,0.476,437
"435",15,109,"TimePressureTest",1,1,NA,0,NA,438
"436",15,62,"TimePressureTest",1,1,0,0,0.487,439
"437",15,112,"TimePressureTest",1,1,0,0,0.242,440
"438",15,89,"TimePressureTest",1,1,1,0,0.422,441
"439",15,29,"TimePressureTest",1,1,0,0,0.291,442
"440",15,102,"TimePressureTest",1,1,0,0,0.294,443
"441",15,108,"TimePressureTest",1,1,1,0,0.617,444
"442",15,58,"TimePressureTest",1,1,1,0,0.384,445
"443",15,104,"TimePressureTest",1,1,0,0,0.142,446
"444",15,105,"TimePressureTest",1,1,0,0,0.295,447
"445",15,94,"TimePressureTest",1,1,NA,0,NA,448
"446",15,117,"TimePressureTest",1,1,1,0,0.248,449
"447",15,88,"TimePressureTest",1,1,1,0,0.237,450
"448",15,10,"TimePressureTest",1,1,1,0,0.177,451
"449",15,83,"TimePressureTest",1,1,0,0,0.36,452
"450",15,66,"TimePressureTest",1,1,0,0,0.312,453
"451",15,90,"TimePressureTest",1,1,1,0,0.218,454
"452",15,57,"TimePressureTest",1,1,0,0,0.479,455
"453",15,98,"TimePressureTest",1,1,1,0,0.459,456
"454",15,76,"TimePressureTest",1,1,1,0,0.119,457
"455",15,111,"TimePressureTest",1,1,0,0,0.4,458
"456",15,35,"TimePressureTest",1,1,1,0,0.271,459
"457",15,73,"TimePressureTest",1,1,1,0,0.003,460
"458",15,87,"TimePressureTest",1,1,1,0,0.351,461
"459",15,93,"TimePressureTest",1,1,0,0,0.272,462
"460",15,107,"TimePressureTest",1,1,NA,0,NA,463
"461",15,51,"TimePressureTest",1,1,0,0,0.114,464
"462",15,103,"TimePressureTest",1,1,0,0,0.331,465
"463",15,46,"TimePressureTest",1,1,0,0,0.204,466
"464",15,80,"TimePressureTest",1,1,1,0,0.29,467
"465",15,41,"TimePressureTest",1,1,0,0,0.469,468
"466",15,27,"TimePressureTest",1,1,NA,0,NA,469
"467",15,69,"TimePressureTest",1,1,1,0,0.127,470
"468",15,119,"TimePressureTest",1,1,0,0,0.408,471
"469",15,72,"TimePressureTest",1,1,0,0,0.358,472
"470",15,16,"TimePressureTest",1,1,1,0,0.614,473
"471",15,14,"TimePressureTest",1,1,0,0,0.381,474
"472",15,97,"TimePressureTest",1,1,1,0,0.172,475
"473",15,81,"TimePressureTest",1,1,1,0,0.083,476
"474",15,61,"TimePressureTest",1,1,1,0,0.35,477
"475",15,116,"TimePressureTest",1,1,0,0,0.319,478
"476",15,77,"TimePressureTest",1,1,0,0,0.384,479
"477",15,114,"TimePressureTest",1,1,1,0,0.303,480
"478",15,26,"TimePressureTest",1,1,1,0,0.273,481
"479",15,82,"TimePressureTest",1,1,1,0,0.42,482
"480",15,28,"TimePressureTest",1,1,1,0,0.162,483
"481",16,59,"NoPressureExposure",1,1,NA,0,NA,11
"482",16,19,"NoPressureExposure",1,1,NA,0,NA,12
"483",16,75,"NoPressureExposure",1,1,NA,0,NA,13
"484",16,65,"NoPressureExposure",1,1,NA,0,NA,14
"485",16,13,"NoPressureExposure",1,1,NA,0,NA,15
"486",16,68,"NoPressureExposure",1,1,NA,0,NA,16
"487",16,44,"NoPressureExposure",1,1,NA,0,NA,17
"488",16,20,"NoPressureExposure",1,1,NA,0,NA,18
"489",16,69,"NoPressureExposure",1,1,NA,0,NA,19
"490",16,34,"NoPressureExposure",1,1,NA,0,NA,20
"491",16,1,"NoPressureExposure",1,1,NA,0,NA,21
"492",16,57,"NoPressureExposure",1,1,NA,0,NA,22
"493",16,11,"NoPressureExposure",1,1,NA,0,NA,23
"494",16,6,"NoPressureExposure",1,1,NA,0,NA,24
"495",16,7,"NoPressureExposure",1,1,NA,0,NA,25
"496",16,52,"NoPressureExposure",1,1,NA,0,NA,26
"497",16,38,"NoPressureExposure",1,1,NA,0,NA,27
"498",16,16,"NoPressureExposure",1,1,NA,0,NA,28
"499",16,49,"NoPressureExposure",1,1,NA,0,NA,29
"500",16,27,"NoPressureExposure",1,1,NA,0,NA,30
"501",16,29,"NoPressureExposure",1,1,NA,0,NA,31
"502",16,61,"NoPressureExposure",1,1,NA,0,NA,32
"503",16,23,"NoPressureExposure",1,1,NA,0,NA,33
"504",16,14,"NoPressureExposure",1,1,NA,0,NA,34
"505",16,17,"NoPressureExposure",1,1,NA,0,NA,35
"506",16,30,"NoPressureExposure",1,1,NA,0,NA,36
"507",16,26,"NoPressureExposure",1,1,NA,0,NA,37
"508",16,66,"NoPressureExposure",1,1,NA,0,NA,38
"509",16,9,"NoPressureExposure",1,1,NA,0,NA,39
"510",16,4,"NoPressureExposure",1,1,NA,0,NA,40
"511",16,42,"NoPressureExposure",1,1,NA,0,NA,41
"512",16,15,"NoPressureExposure",1,1,NA,0,NA,42
"513",16,2,"NoPressureExposure",1,1,NA,0,NA,43
"514",16,18,"NoPressureExposure",1,1,NA,0,NA,44
"515",16,12,"NoPressureExposure",1,1,NA,0,NA,45
"516",16,8,"NoPressureExposure",1,1,NA,0,NA,46
"517",16,53,"NoPressureExposure",1,1,NA,0,NA,47
"518",16,79,"NoPressureExposure",1,1,NA,0,NA,48
"519",16,48,"NoPressureExposure",1,1,NA,0,NA,49
"520",16,28,"NoPressureExposure",1,1,NA,0,NA,50
"521",16,41,"NoPressureExposure",1,1,NA,0,NA,51
"522",16,64,"NoPressureExposure",1,1,NA,0,NA,52
"523",16,37,"NoPressureExposure",1,1,NA,0,NA,53
"524",16,25,"NoPressureExposure",1,1,NA,0,NA,54
"525",16,43,"NoPressureExposure",1,1,NA,0,NA,55
"526",16,40,"NoPressureExposure",1,1,NA,0,NA,56
"527",16,50,"NoPressureExposure",1,1,NA,0,NA,57
"528",16,58,"NoPressureExposure",1,1,NA,0,NA,58
"529",16,35,"NoPressureExposure",1,1,NA,0,NA,59
"530",16,24,"NoPressureExposure",1,1,NA,0,NA,60
"531",16,71,"NoPressureExposure",1,1,NA,0,NA,61
"532",16,55,"NoPressureExposure",1,1,NA,0,NA,62
"533",16,80,"NoPressureExposure",1,1,NA,0,NA,63
"534",16,5,"NoPressureExposure",1,1,NA,0,NA,64
"535",16,72,"NoPressureExposure",1,1,NA,0,NA,65
"536",16,31,"NoPressureExposure",1,1,NA,0,NA,66
"537",16,63,"NoPressureExposure",1,1,NA,0,NA,67
"538",16,3,"NoPressureExposure",1,1,NA,0,NA,68
"539",16,21,"NoPressureExposure",1,1,NA,0,NA,69
"540",16,67,"NoPressureExposure",1,1,NA,0,NA,70
"541",16,47,"NoPressureExposure",1,1,NA,0,NA,71
"542",16,78,"NoPressureExposure",1,1,NA,0,NA,72
"543",16,33,"NoPressureExposure",1,1,NA,0,NA,73
"544",16,36,"NoPressureExposure",1,1,NA,0,NA,74
"545",16,74,"NoPressureExposure",1,1,NA,0,NA,75
"546",16,45,"NoPressureExposure",1,1,NA,0,NA,76
"547",16,39,"NoPressureExposure",1,1,NA,0,NA,77
"548",16,22,"NoPressureExposure",1,1,NA,0,NA,78
"549",16,62,"NoPressureExposure",1,1,NA,0,NA,79
"550",16,54,"NoPressureExposure",1,1,NA,0,NA,80
"551",16,46,"NoPressureExposure",1,1,NA,0,NA,81
"552",16,56,"NoPressureExposure",1,1,NA,0,NA,82
"553",16,77,"NoPressureExposure",1,1,NA,0,NA,83
"554",16,10,"NoPressureExposure",1,1,NA,0,NA,84
"555",16,76,"NoPressureExposure",1,1,NA,0,NA,85
"556",16,32,"NoPressureExposure",1,1,NA,0,NA,86
"557",16,51,"NoPressureExposure",1,1,NA,0,NA,87
"558",16,70,"NoPressureExposure",1,1,NA,0,NA,88
"559",16,73,"NoPressureExposure",1,1,NA,0,NA,89
"560",16,60,"NoPressureExposure",1,1,NA,0,NA,90
"561",16,15,"NoPressureTest",1,1,0,0,7.784,404
"562",16,93,"NoPressureTest",1,1,1,0,5.485,405
"563",16,119,"NoPressureTest",1,1,1,0,8.121,406
"564",16,98,"NoPressureTest",1,1,1,0,5.553,407
"565",16,10,"NoPressureTest",1,1,0,0,2.954,408
"566",16,33,"NoPressureTest",1,1,1,0,5.655,409
"567",16,100,"NoPressureTest",1,1,1,0,4.717,410
"568",16,77,"NoPressureTest",1,1,1,0,8.55,411
"569",16,106,"NoPressureTest",1,1,1,0,1.742,412
"570",16,113,"NoPressureTest",1,1,1,0,14.52,413
"571",16,58,"NoPressureTest",1,1,1,0,0.813,414
"572",16,111,"NoPressureTest",1,1,1,0,2.731,415
"573",16,83,"NoPressureTest",1,1,1,0,6.991,416
"574",16,21,"NoPressureTest",1,1,1,0,1.138,417
"575",16,96,"NoPressureTest",1,1,0,0,2.131,418
"576",16,46,"NoPressureTest",1,1,0,0,1.519,419
"577",16,57,"NoPressureTest",1,1,0,0,4.066,420
"578",16,120,"NoPressureTest",1,1,0,0,8.436,421
"579",16,105,"NoPressureTest",1,1,1,0,2.959,422
"580",16,2,"NoPressureTest",1,1,1,0,3.516,423
"581",16,79,"NoPressureTest",1,1,0,0,1.667,424
"582",16,95,"NoPressureTest",1,1,1,0,1.856,425
"583",16,75,"NoPressureTest",1,1,1,0,1.35,426
"584",16,20,"NoPressureTest",1,1,1,0,0.335,427
"585",16,62,"NoPressureTest",1,1,0,0,2.111,428
"586",16,30,"NoPressureTest",1,1,0,0,6.252,429
"587",16,115,"NoPressureTest",1,1,0,0,2.763,430
"588",16,47,"NoPressureTest",1,1,0,0,1.984,431
"589",16,92,"NoPressureTest",1,1,1,0,0.944,432
"590",16,102,"NoPressureTest",1,1,1,0,1.401,433
"591",16,27,"NoPressureTest",1,1,1,0,3.569,434
"592",16,52,"NoPressureTest",1,1,1,0,6.47,435
"593",16,116,"NoPressureTest",1,1,1,0,1.34,436
"594",16,118,"NoPressureTest",1,1,0,0,1.766,437
"595",16,81,"NoPressureTest",1,1,1,0,4.816,438
"596",16,35,"NoPressureTest",1,1,1,0,2.581,439
"597",16,88,"NoPressureTest",1,1,1,0,0.464,440
"598",16,51,"NoPressureTest",1,1,1,0,3.051,441
"599",16,40,"NoPressureTest",1,1,1,0,1.588,442
"600",16,101,"NoPressureTest",1,1,1,0,1.14,443
"601",16,78,"NoPressureTest",1,1,1,0,0.806,444
"602",16,110,"NoPressureTest",1,1,0,0,2.26,445
"603",16,86,"NoPressureTest",1,1,1,0,2.651,446
"604",16,73,"NoPressureTest",1,1,0,0,1.891,447
"605",16,61,"NoPressureTest",1,1,0,0,2.823,448
"606",16,41,"NoPressureTest",1,1,1,0,0.681,449
"607",16,87,"NoPressureTest",1,1,1,0,5.084,450
"608",16,90,"NoPressureTest",1,1,1,0,7.16,451
"609",16,22,"NoPressureTest",1,1,1,0,0.324,452
"610",16,26,"NoPressureTest",1,1,1,0,1.156,453
"611",16,72,"NoPressureTest",1,1,1,0,1.317,454
"612",16,14,"NoPressureTest",1,1,1,0,1.392,455
"613",16,107,"NoPressureTest",1,1,1,0,0.728,456
"614",16,82,"NoPressureTest",1,1,1,0,3.273,457
"615",16,31,"NoPressureTest",1,1,1,0,3.417,458
"616",16,103,"NoPressureTest",1,1,0,0,5.78,459
"617",16,117,"NoPressureTest",1,1,1,0,1.285,460
"618",16,85,"NoPressureTest",1,1,1,0,0.289,461
"619",16,89,"NoPressureTest",1,1,1,0,1.186,462
"620",16,80,"NoPressureTest",1,1,1,0,0.786,463
"621",16,84,"NoPressureTest",1,1,1,0,10.113,464
"622",16,114,"NoPressureTest",1,1,1,0,2.877,465
"623",16,99,"NoPressureTest",1,1,1,0,0.716,466
"624",16,38,"NoPressureTest",1,1,1,0,0.558,467
"625",16,23,"NoPressureTest",1,1,1,0,0.662,468
"626",16,108,"NoPressureTest",1,1,1,0,2.282,469
"627",16,109,"NoPressureTest",1,1,1,0,0.608,470
"628",16,104,"NoPressureTest",1,1,0,0,2.581,471
"629",16,94,"NoPressureTest",1,1,1,0,0.304,472
"630",16,28,"NoPressureTest",1,1,0,0,2.849,473
"631",16,63,"NoPressureTest",1,1,1,0,9.329,474
"632",16,76,"NoPressureTest",1,1,0,0,1.691,475
"633",16,91,"NoPressureTest",1,1,1,0,1.432,476
"634",16,97,"NoPressureTest",1,1,1,0,1.022,477
"635",16,48,"NoPressureTest",1,1,1,0,0.772,478
"636",16,69,"NoPressureTest",1,1,1,0,3.731,479
"637",16,29,"NoPressureTest",1,1,1,0,2.37,480
"638",16,66,"NoPressureTest",1,1,1,0,0.437,481
"639",16,112,"NoPressureTest",1,1,0,0,3.873,482
"640",16,16,"NoPressureTest",1,1,0,0,0.586,483
"641",17,103,"TimePressureExposure",1,1,NA,0,NA,11
"642",17,99,"TimePressureExposure",1,1,NA,0,NA,12
"643",17,93,"TimePressureExposure",1,1,NA,0,NA,13
"644",17,115,"TimePressureExposure",1,1,NA,0,NA,14
"645",17,19,"TimePressureExposure",1,1,NA,0,NA,15
"646",17,110,"TimePressureExposure",1,1,NA,0,NA,16
"647",17,117,"TimePressureExposure",1,1,NA,0,NA,17
"648",17,89,"TimePressureExposure",1,1,NA,0,NA,18
"649",17,60,"TimePressureExposure",1,1,NA,0,NA,19
"650",17,111,"TimePressureExposure",1,1,NA,0,NA,20
"651",17,50,"TimePressureExposure",1,1,NA,0,NA,21
"652",17,82,"TimePressureExposure",1,1,NA,0,NA,22
"653",17,81,"TimePressureExposure",1,1,NA,0,NA,23
"654",17,97,"TimePressureExposure",1,1,NA,0,NA,24
"655",17,104,"TimePressureExposure",1,1,NA,0,NA,25
"656",17,86,"TimePressureExposure",1,1,NA,0,NA,26
"657",17,64,"TimePressureExposure",1,1,NA,0,NA,27
"658",17,67,"TimePressureExposure",1,1,NA,0,NA,28
"659",17,55,"TimePressureExposure",1,1,NA,0,NA,29
"660",17,34,"TimePressureExposure",1,1,NA,0,NA,30
"661",17,100,"TimePressureExposure",1,1,NA,0,NA,31
"662",17,54,"TimePressureExposure",1,1,NA,0,NA,32
"663",17,84,"TimePressureExposure",1,1,NA,0,NA,33
"664",17,13,"TimePressureExposure",1,1,NA,0,NA,34
"665",17,53,"TimePressureExposure",1,1,NA,0,NA,35
"666",17,106,"TimePressureExposure",1,1,NA,0,NA,36
"667",17,1,"TimePressureExposure",1,1,NA,0,NA,37
"668",17,70,"TimePressureExposure",1,1,NA,0,NA,38
"669",17,119,"TimePressureExposure",1,1,NA,0,NA,39
"670",17,5,"TimePressureExposure",1,1,NA,0,NA,40
"671",17,109,"TimePressureExposure",1,1,NA,0,NA,41
"672",17,11,"TimePressureExposure",1,1,NA,0,NA,42
"673",17,94,"TimePressureExposure",1,1,NA,0,NA,43
"674",17,8,"TimePressureExposure",1,1,NA,0,NA,44
"675",17,44,"TimePressureExposure",1,1,NA,0,NA,45
"676",17,88,"TimePressureExposure",1,1,NA,0,NA,46
"677",17,24,"TimePressureExposure",1,1,NA,0,NA,47
"678",17,85,"TimePressureExposure",1,1,NA,0,NA,48
"679",17,7,"TimePressureExposure",1,1,NA,0,NA,49
"680",17,95,"TimePressureExposure",1,1,NA,0,NA,50
"681",17,120,"TimePressureExposure",1,1,NA,0,NA,51
"682",17,102,"TimePressureExposure",1,1,NA,0,NA,52
"683",17,96,"TimePressureExposure",1,1,NA,0,NA,53
"684",17,65,"TimePressureExposure",1,1,NA,0,NA,54
"685",17,36,"TimePressureExposure",1,1,NA,0,NA,55
"686",17,83,"TimePressureExposure",1,1,NA,0,NA,56
"687",17,56,"TimePressureExposure",1,1,NA,0,NA,57
"688",17,4,"TimePressureExposure",1,1,NA,0,NA,58
"689",17,98,"TimePressureExposure",1,1,NA,0,NA,59
"690",17,6,"TimePressureExposure",1,1,NA,0,NA,60
"691",17,17,"TimePressureExposure",1,1,NA,0,NA,61
"692",17,68,"TimePressureExposure",1,1,NA,0,NA,62
"693",17,101,"TimePressureExposure",1,1,NA,0,NA,63
"694",17,108,"TimePressureExposure",1,1,NA,0,NA,64
"695",17,39,"TimePressureExposure",1,1,NA,0,NA,65
"696",17,25,"TimePressureExposure",1,1,NA,0,NA,66
"697",17,18,"TimePressureExposure",1,1,NA,0,NA,67
"698",17,49,"TimePressureExposure",1,1,NA,0,NA,68
"699",17,91,"TimePressureExposure",1,1,NA,0,NA,69
"700",17,43,"TimePressureExposure",1,1,NA,0,NA,70
"701",17,107,"TimePressureExposure",1,1,NA,0,NA,71
"702",17,87,"TimePressureExposure",1,1,NA,0,NA,72
"703",17,59,"TimePressureExposure",1,1,NA,0,NA,73
"704",17,12,"TimePressureExposure",1,1,NA,0,NA,74
"705",17,118,"TimePressureExposure",1,1,NA,0,NA,75
"706",17,116,"TimePressureExposure",1,1,NA,0,NA,76
"707",17,3,"TimePressureExposure",1,1,NA,0,NA,77
"708",17,71,"TimePressureExposure",1,1,NA,0,NA,78
"709",17,37,"TimePressureExposure",1,1,NA,0,NA,79
"710",17,9,"TimePressureExposure",1,1,NA,0,NA,80
"711",17,105,"TimePressureExposure",1,1,NA,0,NA,81
"712",17,112,"TimePressureExposure",1,1,NA,0,NA,82
"713",17,74,"TimePressureExposure",1,1,NA,0,NA,83
"714",17,114,"TimePressureExposure",1,1,NA,0,NA,84
"715",17,45,"TimePressureExposure",1,1,NA,0,NA,85
"716",17,113,"TimePressureExposure",1,1,NA,0,NA,86
"717",17,92,"TimePressureExposure",1,1,NA,0,NA,87
"718",17,32,"TimePressureExposure",1,1,NA,0,NA,88
"719",17,90,"TimePressureExposure",1,1,NA,0,NA,89
"720",17,42,"TimePressureExposure",1,1,NA,0,NA,90
"721",17,36,"TimePressureTest",1,1,NA,0,NA,404
"722",17,71,"TimePressureTest",1,1,1,0,0.256,405
"723",17,49,"TimePressureTest",1,1,1,0,0.356,406
"724",17,48,"TimePressureTest",1,1,0,0,0.613,407
"725",17,69,"TimePressureTest",1,1,NA,0,NA,408
"726",17,66,"TimePressureTest",1,1,0,0,0.393,409
"727",17,5,"TimePressureTest",1,1,1,0,0.424,410
"728",17,46,"TimePressureTest",1,1,0,0,0.406,411
"729",17,26,"TimePressureTest",1,1,0,0,0.34,412
"730",17,15,"TimePressureTest",1,1,0,0,0.373,413
"731",17,41,"TimePressureTest",1,1,NA,0,NA,414
"732",17,21,"TimePressureTest",1,1,0,0,0.338,415
"733",17,62,"TimePressureTest",1,1,1,0,0.499,416
"734",17,79,"TimePressureTest",1,1,1,0,0.334,417
"735",17,74,"TimePressureTest",1,1,1,0,0.256,418
"736",17,72,"TimePressureTest",1,1,0,0,0.435,419
"737",17,53,"TimePressureTest",1,1,1,0,0.256,420
"738",17,45,"TimePressureTest",1,1,1,0,0.324,421
"739",17,7,"TimePressureTest",1,1,1,0,0.182,422
"740",17,14,"TimePressureTest",1,1,NA,0,NA,423
"741",17,55,"TimePressureTest",1,1,1,0,0.284,424
"742",17,6,"TimePressureTest",1,1,1,0,0.366,425
"743",17,63,"TimePressureTest",1,1,1,0,0.478,426
"744",17,75,"TimePressureTest",1,1,1,0,0.314,427
"745",17,76,"TimePressureTest",1,1,0,0,0.364,428
"746",17,52,"TimePressureTest",1,1,0,0,0.411,429
"747",17,54,"TimePressureTest",1,1,1,0,0.282,430
"748",17,1,"TimePressureTest",1,1,1,0,0.365,431
"749",17,2,"TimePressureTest",1,1,1,0,0.317,432
"750",17,30,"TimePressureTest",1,1,NA,0,NA,433
"751",17,18,"TimePressureTest",1,1,1,0,0.238,434
"752",17,50,"TimePressureTest",1,1,1,0,0.402,435
"753",17,44,"TimePressureTest",1,1,1,0,0.32,436
"754",17,3,"TimePressureTest",1,1,1,0,0.338,437
"755",17,11,"TimePressureTest",1,1,1,0,0.258,438
"756",17,47,"TimePressureTest",1,1,1,0,0.533,439
"757",17,65,"TimePressureTest",1,1,1,0,0.335,440
"758",17,9,"TimePressureTest",1,1,1,0,0.4,441
"759",17,29,"TimePressureTest",1,1,0,0,0.463,442
"760",17,8,"TimePressureTest",1,1,1,0,0.396,443
"761",17,28,"TimePressureTest",1,1,0,0,0.362,444
"762",17,4,"TimePressureTest",1,1,1,0,0.474,445
"763",17,10,"TimePressureTest",1,1,0,0,0.31,446
"764",17,51,"TimePressureTest",1,1,0,0,0.552,447
"765",17,39,"TimePressureTest",1,1,1,0,0.4,448
"766",17,40,"TimePressureTest",1,1,NA,0,NA,449
"767",17,77,"TimePressureTest",1,1,1,0,0.253,450
"768",17,70,"TimePressureTest",1,1,0,0,0.401,451
"769",17,32,"TimePressureTest",1,1,1,0,0.304,452
"770",17,33,"TimePressureTest",1,1,NA,0,NA,453
"771",17,61,"TimePressureTest",1,1,0,0,0.369,454
"772",17,73,"TimePressureTest",1,1,0,0,0.448,455
"773",17,60,"TimePressureTest",1,1,1,0,0.237,456
"774",17,22,"TimePressureTest",1,1,1,0,0.497,457
"775",17,23,"TimePressureTest",1,1,1,0,0.316,458
"776",17,13,"TimePressureTest",1,1,1,0,0.319,459
"777",17,57,"TimePressureTest",1,1,0,0,0.416,460
"778",17,67,"TimePressureTest",1,1,1,0,0.286,461
"779",17,35,"TimePressureTest",1,1,0,0,0.273,462
"780",17,58,"TimePressureTest",1,1,NA,0,NA,463
"781",17,37,"TimePressureTest",1,1,0,0,0.259,464
"782",17,43,"TimePressureTest",1,1,0,0,0.391,465
"783",17,25,"TimePressureTest",1,1,1,0,0.261,466
"784",17,12,"TimePressureTest",1,1,1,0,0.521,467
"785",17,42,"TimePressureTest",1,1,0,0,0.339,468
"786",17,20,"TimePressureTest",1,1,1,0,0.596,469
"787",17,31,"TimePressureTest",1,1,1,0,0.635,470
"788",17,64,"TimePressureTest",1,1,0,0,0.383,471
"789",17,16,"TimePressureTest",1,1,1,0,0.623,472
"790",17,27,"TimePressureTest",1,1,1,0,0.517,473
"791",17,78,"TimePressureTest",1,1,0,0,0.448,474
"792",17,17,"TimePressureTest",1,1,NA,0,NA,475
"793",17,56,"TimePressureTest",1,1,0,0,0.427,476
"794",17,68,"TimePressureTest",1,1,0,0,0.584,477
"795",17,19,"TimePressureTest",1,1,1,0,0.464,478
"796",17,59,"TimePressureTest",1,1,1,0,0.428,479
"797",17,24,"TimePressureTest",1,1,0,0,0.458,480
"798",17,80,"TimePressureTest",1,1,1,0,0.422,481
"799",17,38,"TimePressureTest",1,1,1,0,0.451,482
"800",17,34,"TimePressureTest",1,1,NA,0,NA,483
"801",18,54,"NoPressureExposure",1,1,NA,0,NA,11
"802",18,49,"NoPressureExposure",1,1,NA,0,NA,12
"803",18,10,"NoPressureExposure",1,1,NA,0,NA,13
"804",18,44,"NoPressureExposure",1,1,NA,0,NA,14
"805",18,61,"NoPressureExposure",1,1,NA,0,NA,15
"806",18,1,"NoPressureExposure",1,1,NA,0,NA,16
"807",18,29,"NoPressureExposure",1,1,NA,0,NA,17
"808",18,40,"NoPressureExposure",1,1,NA,0,NA,18
"809",18,32,"NoPressureExposure",1,1,NA,0,NA,19
"810",18,74,"NoPressureExposure",1,1,NA,0,NA,20
"811",18,77,"NoPressureExposure",1,1,NA,0,NA,21
"812",18,67,"NoPressureExposure",1,1,NA,0,NA,22
"813",18,68,"NoPressureExposure",1,1,NA,0,NA,23
"814",18,26,"NoPressureExposure",1,1,NA,0,NA,24
"815",18,35,"NoPressureExposure",1,1,NA,0,NA,25
"816",18,73,"NoPressureExposure",1,1,NA,0,NA,26
"817",18,57,"NoPressureExposure",1,1,NA,0,NA,27
"818",18,50,"NoPressureExposure",1,1,NA,0,NA,28
"819",18,16,"NoPressureExposure",1,1,NA,0,NA,29
"820",18,34,"NoPressureExposure",1,1,NA,0,NA,30
"821",18,39,"NoPressureExposure",1,1,NA,0,NA,31
"822",18,28,"NoPressureExposure",1,1,NA,0,NA,32
"823",18,31,"NoPressureExposure",1,1,NA,0,NA,33
"824",18,12,"NoPressureExposure",1,1,NA,0,NA,34
"825",18,76,"NoPressureExposure",1,1,NA,0,NA,35
"826",18,2,"NoPressureExposure",1,1,NA,0,NA,36
"827",18,56,"NoPressureExposure",1,1,NA,0,NA,37
"828",18,46,"NoPressureExposure",1,1,NA,0,NA,38
"829",18,27,"NoPressureExposure",1,1,NA,0,NA,39
"830",18,22,"NoPressureExposure",1,1,NA,0,NA,40
"831",18,64,"NoPressureExposure",1,1,NA,0,NA,41
"832",18,70,"NoPressureExposure",1,1,NA,0,NA,42
"833",18,65,"NoPressureExposure",1,1,NA,0,NA,43
"834",18,14,"NoPressureExposure",1,1,NA,0,NA,44
"835",18,9,"NoPressureExposure",1,1,NA,0,NA,45
"836",18,48,"NoPressureExposure",1,1,NA,0,NA,46
"837",18,6,"NoPressureExposure",1,1,NA,0,NA,47
"838",18,30,"NoPressureExposure",1,1,NA,0,NA,48
"839",18,18,"NoPressureExposure",1,1,NA,0,NA,49
"840",18,53,"NoPressureExposure",1,1,NA,0,NA,50
"841",18,62,"NoPressureExposure",1,1,NA,0,NA,51
"842",18,19,"NoPressureExposure",1,1,NA,0,NA,52
"843",18,69,"NoPressureExposure",1,1,NA,0,NA,53
"844",18,25,"NoPressureExposure",1,1,NA,0,NA,54
"845",18,78,"NoPressureExposure",1,1,NA,0,NA,55
"846",18,63,"NoPressureExposure",1,1,NA,0,NA,56
"847",18,5,"NoPressureExposure",1,1,NA,0,NA,57
"848",18,43,"NoPressureExposure",1,1,NA,0,NA,58
"849",18,52,"NoPressureExposure",1,1,NA,0,NA,59
"850",18,58,"NoPressureExposure",1,1,NA,0,NA,60
"851",18,80,"NoPressureExposure",1,1,NA,0,NA,61
"852",18,4,"NoPressureExposure",1,1,NA,0,NA,62
"853",18,11,"NoPressureExposure",1,1,NA,0,NA,63
"854",18,15,"NoPressureExposure",1,1,NA,0,NA,64
"855",18,20,"NoPressureExposure",1,1,NA,0,NA,65
"856",18,24,"NoPressureExposure",1,1,NA,0,NA,66
"857",18,3,"NoPressureExposure",1,1,NA,0,NA,67
"858",18,72,"NoPressureExposure",1,1,NA,0,NA,68
"859",18,75,"NoPressureExposure",1,1,NA,0,NA,69
"860",18,60,"NoPressureExposure",1,1,NA,0,NA,70
"861",18,36,"NoPressureExposure",1,1,NA,0,NA,71
"862",18,17,"NoPressureExposure",1,1,NA,0,NA,72
"863",18,51,"NoPressureExposure",1,1,NA,0,NA,73
"864",18,66,"NoPressureExposure",1,1,NA,0,NA,74
"865",18,42,"NoPressureExposure",1,1,NA,0,NA,75
"866",18,8,"NoPressureExposure",1,1,NA,0,NA,76
"867",18,47,"NoPressureExposure",1,1,NA,0,NA,77
"868",18,33,"NoPressureExposure",1,1,NA,0,NA,78
"869",18,38,"NoPressureExposure",1,1,NA,0,NA,79
"870",18,13,"NoPressureExposure",1,1,NA,0,NA,80
"871",18,21,"NoPressureExposure",1,1,NA,0,NA,81
"872",18,59,"NoPressureExposure",1,1,NA,0,NA,82
"873",18,55,"NoPressureExposure",1,1,NA,0,NA,83
"874",18,7,"NoPressureExposure",1,1,NA,0,NA,84
"875",18,37,"NoPressureExposure",1,1,NA,0,NA,85
"876",18,71,"NoPressureExposure",1,1,NA,0,NA,86
"877",18,45,"NoPressureExposure",1,1,NA,0,NA,87
"878",18,41,"NoPressureExposure",1,1,NA,0,NA,88
"879",18,79,"NoPressureExposure",1,1,NA,0,NA,89
"880",18,23,"NoPressureExposure",1,1,NA,0,NA,90
"881",18,24,"NoPressureTest",1,1,0,0,6.416,404
"882",18,44,"NoPressureTest",1,1,0,0,6.955,405
"883",18,118,"NoPressureTest",1,1,0,0,2.833,406
"884",18,106,"NoPressureTest",1,1,0,0,4.322,407
"885",18,8,"NoPressureTest",1,1,1,0,2.54,408
"886",18,71,"NoPressureTest",1,1,0,0,12.251,409
"887",18,18,"NoPressureTest",1,1,0,0,8.135,410
"888",18,60,"NoPressureTest",1,1,1,0,4.368,411
"889",18,93,"NoPressureTest",1,1,0,0,8.105,412
"890",18,102,"NoPressureTest",1,1,1,0,4.21,413
"891",18,4,"NoPressureTest",1,1,1,0,1.392,414
"892",18,59,"NoPressureTest",1,1,1,0,3.177,415
"893",18,67,"NoPressureTest",1,1,0,0,5.39,416
"894",18,97,"NoPressureTest",1,1,1,0,6.944,417
"895",18,82,"NoPressureTest",1,1,0,0,4.15,418
"896",18,17,"NoPressureTest",1,1,0,0,6.182,419
"897",18,36,"NoPressureTest",1,1,1,0,11.066,420
"898",18,95,"NoPressureTest",1,1,0,0,2.034,421
"899",18,85,"NoPressureTest",1,1,0,0,1.731,422
"900",18,116,"NoPressureTest",1,1,1,0,1.615,423
"901",18,103,"NoPressureTest",1,1,0,0,10.817,424
"902",18,32,"NoPressureTest",1,1,0,0,3.251,425
"903",18,112,"NoPressureTest",1,1,0,0,4.614,426
"904",18,98,"NoPressureTest",1,1,0,0,1.828,427
"905",18,45,"NoPressureTest",1,1,1,0,0.54,428
"906",18,115,"NoPressureTest",1,1,0,0,3.798,429
"907",18,55,"NoPressureTest",1,1,1,0,4.547,430
"908",18,119,"NoPressureTest",1,1,1,0,4.628,431
"909",18,109,"NoPressureTest",1,1,1,0,2.162,432
"910",18,1,"NoPressureTest",1,1,1,0,2.686,433
"911",18,105,"NoPressureTest",1,1,0,0,4.789,434
"912",18,5,"NoPressureTest",1,1,0,0,4.541,435
"913",18,70,"NoPressureTest",1,1,1,0,2.094,436
"914",18,86,"NoPressureTest",1,1,0,0,2.381,437
"915",18,74,"NoPressureTest",1,1,1,0,2.593,438
"916",18,88,"NoPressureTest",1,1,1,0,1.948,439
"917",18,42,"NoPressureTest",1,1,1,0,2.048,440
"918",18,108,"NoPressureTest",1,1,1,0,2.784,441
"919",18,114,"NoPressureTest",1,1,1,0,3.124,442
"920",18,53,"NoPressureTest",1,1,0,0,2.475,443
"921",18,96,"NoPressureTest",1,1,1,0,2.299,444
"922",18,81,"NoPressureTest",1,1,1,0,6.146,445
"923",18,6,"NoPressureTest",1,1,0,0,2.406,446
"924",18,19,"NoPressureTest",1,1,0,0,2.441,447
"925",18,11,"NoPressureTest",1,1,0,0,6.906,448
"926",18,9,"NoPressureTest",1,1,1,0,2.448,449
"927",18,3,"NoPressureTest",1,1,1,0,3.298,450
"928",18,120,"NoPressureTest",1,1,1,0,2.578,451
"929",18,37,"NoPressureTest",1,1,1,0,7.726,452
"930",18,104,"NoPressureTest",1,1,0,0,1.814,453
"931",18,68,"NoPressureTest",1,1,1,0,4.496,454
"932",18,13,"NoPressureTest",1,1,0,0,2.498,455
"933",18,117,"NoPressureTest",1,1,1,0,2.705,456
"934",18,56,"NoPressureTest",1,1,1,0,4.712,457
"935",18,100,"NoPressureTest",1,1,0,0,2.69,458
"936",18,90,"NoPressureTest",1,1,0,0,5.883,459
"937",18,113,"NoPressureTest",1,1,0,0,4.665,460
"938",18,25,"NoPressureTest",1,1,0,0,3.189,461
"939",18,65,"NoPressureTest",1,1,0,0,3.003,462
"940",18,49,"NoPressureTest",1,1,1,0,0.837,463
"941",18,12,"NoPressureTest",1,1,1,0,0.707,464
"942",18,54,"NoPressureTest",1,1,1,0,9.511,465
"943",18,89,"NoPressureTest",1,1,1,0,1.691,466
"944",18,91,"NoPressureTest",1,1,1,0,2.904,467
"945",18,7,"NoPressureTest",1,1,0,0,2.36,468
"946",18,92,"NoPressureTest",1,1,0,0,1.644,469
"947",18,111,"NoPressureTest",1,1,1,0,5.068,470
"948",18,84,"NoPressureTest",1,1,1,0,4.009,471
"949",18,39,"NoPressureTest",1,1,1,0,1.503,472
"950",18,99,"NoPressureTest",1,1,1,0,1.076,473
"951",18,83,"NoPressureTest",1,1,1,0,3.241,474
"952",18,50,"NoPressureTest",1,1,1,0,6.06,475
"953",18,110,"NoPressureTest",1,1,0,0,7.795,476
"954",18,64,"NoPressureTest",1,1,0,0,0.296,477
"955",18,43,"NoPressureTest",1,1,1,0,2.155,478
"956",18,94,"NoPressureTest",1,1,1,0,1.671,479
"957",18,34,"NoPressureTest",1,1,1,0,0.805,480
"958",18,107,"NoPressureTest",1,1,0,0,3.412,481
"959",18,101,"NoPressureTest",1,1,1,0,3.952,482
"960",18,87,"NoPressureTest",1,1,1,0,1.191,483
"961",19,85,"TimePressureExposure",1,1,NA,0,NA,11
"962",19,25,"TimePressureExposure",1,1,NA,0,NA,12
"963",19,49,"TimePressureExposure",1,1,NA,0,NA,13
"964",19,17,"TimePressureExposure",1,1,NA,0,NA,14
"965",19,24,"TimePressureExposure",1,1,NA,0,NA,15
"966",19,87,"TimePressureExposure",1,1,NA,0,NA,16
"967",19,60,"TimePressureExposure",1,1,NA,0,NA,17
"968",19,67,"TimePressureExposure",1,1,NA,0,NA,18
"969",19,93,"TimePressureExposure",1,1,NA,0,NA,19
"970",19,65,"TimePressureExposure",1,1,NA,0,NA,20
"971",19,107,"TimePressureExposure",1,1,NA,0,NA,21
"972",19,91,"TimePressureExposure",1,1,NA,0,NA,22
"973",19,83,"TimePressureExposure",1,1,NA,0,NA,23
"974",19,114,"TimePressureExposure",1,1,NA,0,NA,24
"975",19,43,"TimePressureExposure",1,1,NA,0,NA,25
"976",19,90,"TimePressureExposure",1,1,NA,0,NA,26
"977",19,4,"TimePressureExposure",1,1,NA,0,NA,27
"978",19,53,"TimePressureExposure",1,1,NA,0,NA,28
"979",19,89,"TimePressureExposure",1,1,NA,0,NA,29
"980",19,105,"TimePressureExposure",1,1,NA,0,NA,30
"981",19,96,"TimePressureExposure",1,1,NA,0,NA,31
"982",19,94,"TimePressureExposure",1,1,NA,0,NA,32
"983",19,101,"TimePressureExposure",1,1,NA,0,NA,33
"984",19,11,"TimePressureExposure",1,1,NA,0,NA,34
"985",19,113,"TimePressureExposure",1,1,NA,0,NA,35
"986",19,45,"TimePressureExposure",1,1,NA,0,NA,36
"987",19,50,"TimePressureExposure",1,1,NA,0,NA,37
"988",19,88,"TimePressureExposure",1,1,NA,0,NA,38
"989",19,99,"TimePressureExposure",1,1,NA,0,NA,39
"990",19,56,"TimePressureExposure",1,1,NA,0,NA,40
"991",19,109,"TimePressureExposure",1,1,NA,0,NA,41
"992",19,112,"TimePressureExposure",1,1,NA,0,NA,42
"993",19,103,"TimePressureExposure",1,1,NA,0,NA,43
"994",19,68,"TimePressureExposure",1,1,NA,0,NA,44
"995",19,9,"TimePressureExposure",1,1,NA,0,NA,45
"996",19,19,"TimePressureExposure",1,1,NA,0,NA,46
"997",19,115,"TimePressureExposure",1,1,NA,0,NA,47
"998",19,42,"TimePressureExposure",1,1,NA,0,NA,48
"999",19,70,"TimePressureExposure",1,1,NA,0,NA,49
"1000",19,37,"TimePressureExposure",1,1,NA,0,NA,50
"1001",19,8,"TimePressureExposure",1,1,NA,0,NA,51
"1002",19,64,"TimePressureExposure",1,1,NA,0,NA,52
"1003",19,7,"TimePressureExposure",1,1,NA,0,NA,53
"1004",19,18,"TimePressureExposure",1,1,NA,0,NA,54
"1005",19,100,"TimePressureExposure",1,1,NA,0,NA,55
"1006",19,95,"TimePressureExposure",1,1,NA,0,NA,56
"1007",19,117,"TimePressureExposure",1,1,NA,0,NA,57
"1008",19,92,"TimePressureExposure",1,1,NA,0,NA,58
"1009",19,118,"TimePressureExposure",1,1,NA,0,NA,59
"1010",19,98,"TimePressureExposure",1,1,NA,0,NA,60
"1011",19,12,"TimePressureExposure",1,1,NA,0,NA,61
"1012",19,32,"TimePressureExposure",1,1,NA,0,NA,62
"1013",19,3,"TimePressureExposure",1,1,NA,0,NA,63
"1014",19,34,"TimePressureExposure",1,1,NA,0,NA,64
"1015",19,59,"TimePressureExposure",1,1,NA,0,NA,65
"1016",19,82,"TimePressureExposure",1,1,NA,0,NA,66
"1017",19,5,"TimePressureExposure",1,1,NA,0,NA,67
"1018",19,111,"TimePressureExposure",1,1,NA,0,NA,68
"1019",19,106,"TimePressureExposure",1,1,NA,0,NA,69
"1020",19,81,"TimePressureExposure",1,1,NA,0,NA,70
"1021",19,6,"TimePressureExposure",1,1,NA,0,NA,71
"1022",19,39,"TimePressureExposure",1,1,NA,0,NA,72
"1023",19,116,"TimePressureExposure",1,1,NA,0,NA,73
"1024",19,119,"TimePressureExposure",1,1,NA,0,NA,74
"1025",19,54,"TimePressureExposure",1,1,NA,0,NA,75
"1026",19,44,"TimePressureExposure",1,1,NA,0,NA,76
"1027",19,86,"TimePressureExposure",1,1,NA,0,NA,77
"1028",19,120,"TimePressureExposure",1,1,NA,0,NA,78
"1029",19,71,"TimePressureExposure",1,1,NA,0,NA,79
"1030",19,13,"TimePressureExposure",1,1,NA,0,NA,80
"1031",19,55,"TimePressureExposure",1,1,NA,0,NA,81
"1032",19,110,"TimePressureExposure",1,1,NA,0,NA,82
"1033",19,74,"TimePressureExposure",1,1,NA,0,NA,83
"1034",19,97,"TimePressureExposure",1,1,NA,0,NA,84
"1035",19,104,"TimePressureExposure",1,1,NA,0,NA,85
"1036",19,102,"TimePressureExposure",1,1,NA,0,NA,86
"1037",19,1,"TimePressureExposure",1,1,NA,0,NA,87
"1038",19,108,"TimePressureExposure",1,1,NA,0,NA,88
"1039",19,36,"TimePressureExposure",1,1,NA,0,NA,89
"1040",19,84,"TimePressureExposure",1,1,NA,0,NA,90
"1041",19,66,"TimePressureTest",1,1,1,0,0.579,404
"1042",19,48,"TimePressureTest",1,1,NA,0,NA,405
"1043",19,118,"TimePressureTest",1,1,NA,0,NA,406
"1044",19,15,"TimePressureTest",1,1,1,0,0.182,407
"1045",19,23,"TimePressureTest",1,1,1,0,0.14,408
"1046",19,31,"TimePressureTest",1,1,1,0,0.244,409
"1047",19,58,"TimePressureTest",1,1,1,0,0.295,410
"1048",19,86,"TimePressureTest",1,1,0,0,0.409,411
"1049",19,63,"TimePressureTest",1,1,1,0,0.566,412
"1050",19,2,"TimePressureTest",1,1,1,0,0.334,413
"1051",19,107,"TimePressureTest",1,1,1,0,0.302,414
"1052",19,30,"TimePressureTest",1,1,NA,0,NA,415
"1053",19,14,"TimePressureTest",1,1,1,0,0.525,416
"1054",19,112,"TimePressureTest",1,1,0,0,0.278,417
"1055",19,102,"TimePressureTest",1,1,1,0,0.313,418
"1056",19,80,"TimePressureTest",1,1,0,0,0.426,419
"1057",19,106,"TimePressureTest",1,1,0,0,0.326,420
"1058",19,77,"TimePressureTest",1,1,1,0,0.567,421
"1059",19,69,"TimePressureTest",1,1,1,0,0.43,422
"1060",19,90,"TimePressureTest",1,1,1,0,0.315,423
"1061",19,99,"TimePressureTest",1,1,1,0,0.412,424
"1062",19,95,"TimePressureTest",1,1,0,0,0.282,425
"1063",19,46,"TimePressureTest",1,1,NA,0,NA,426
"1064",19,103,"TimePressureTest",1,1,0,0,0.298,427
"1065",19,84,"TimePressureTest",1,1,1,0,0.444,428
"1066",19,93,"TimePressureTest",1,1,0,0,0.312,429
"1067",19,62,"TimePressureTest",1,1,1,0,0.345,430
"1068",19,78,"TimePressureTest",1,1,NA,0,NA,431
"1069",19,41,"TimePressureTest",1,1,1,0,0.358,432
"1070",19,113,"TimePressureTest",1,1,1,0,0.406,433
"1071",19,22,"TimePressureTest",1,1,0,0,0.403,434
"1072",19,81,"TimePressureTest",1,1,0,0,0.224,435
"1073",19,51,"TimePressureTest",1,1,1,0,0.581,436
"1074",19,61,"TimePressureTest",1,1,NA,0,NA,437
"1075",19,20,"TimePressureTest",1,1,1,0,0.361,438
"1076",19,79,"TimePressureTest",1,1,1,0,0.425,439
"1077",19,76,"TimePressureTest",1,1,1,0,0.485,440
"1078",19,110,"TimePressureTest",1,1,1,0,0.207,441
"1079",19,98,"TimePressureTest",1,1,0,0,0.276,442
"1080",19,35,"TimePressureTest",1,1,0,0,0.567,443
"1081",19,88,"TimePressureTest",1,1,0,0,0.382,444
"1082",19,119,"TimePressureTest",1,1,0,0,0.397,445
"1083",19,27,"TimePressureTest",1,1,0,0,0.219,446
"1084",19,28,"TimePressureTest",1,1,NA,0,NA,447
"1085",19,91,"TimePressureTest",1,1,0,0,0.253,448
"1086",19,96,"TimePressureTest",1,1,1,0,0.272,449
"1087",19,82,"TimePressureTest",1,1,0,0,0.338,450
"1088",19,33,"TimePressureTest",1,1,NA,0,NA,451
"1089",19,57,"TimePressureTest",1,1,1,0,0.368,452
"1090",19,85,"TimePressureTest",1,1,1,0,0.335,453
"1091",19,105,"TimePressureTest",1,1,0,0,0.463,454
"1092",19,94,"TimePressureTest",1,1,1,0,0.347,455
"1093",19,47,"TimePressureTest",1,1,0,0,0.442,456
"1094",19,92,"TimePressureTest",1,1,1,0,0.199,457
"1095",19,101,"TimePressureTest",1,1,1,0,0.252,458
"1096",19,52,"TimePressureTest",1,1,1,0,0.447,459
"1097",19,87,"TimePressureTest",1,1,1,0,0.411,460
"1098",19,120,"TimePressureTest",1,1,0,0,0.408,461
"1099",19,89,"TimePressureTest",1,1,0,0,0.358,462
"1100",19,38,"TimePressureTest",1,1,0,0,0.421,463
"1101",19,29,"TimePressureTest",1,1,1,0,0.61,464
"1102",19,116,"TimePressureTest",1,1,NA,0,NA,465
"1103",19,10,"TimePressureTest",1,1,0,0,0.309,466
"1104",19,75,"TimePressureTest",1,1,1,0,0.31,467
"1105",19,115,"TimePressureTest",1,1,1,0,0.551,468
"1106",19,40,"TimePressureTest",1,1,NA,0,NA,469
"1107",19,100,"TimePressureTest",1,1,1,0,0.541,470
"1108",19,16,"TimePressureTest",1,1,1,0,0.325,471
"1109",19,111,"TimePressureTest",1,1,1,0,0.31,472
"1110",19,21,"TimePressureTest",1,1,NA,0,NA,473
"1111",19,97,"TimePressureTest",1,1,1,0,0.261,474
"1112",19,104,"TimePressureTest",1,1,0,0,0.28,475
"1113",19,114,"TimePressureTest",1,1,0,0,0.362,476
"1114",19,117,"TimePressureTest",1,1,1,0,0.281,477
"1115",19,83,"TimePressureTest",1,1,1,0,0.556,478
"1116",19,108,"TimePressureTest",1,1,1,0,0.291,479
"1117",19,73,"TimePressureTest",1,1,NA,0,NA,480
"1118",19,26,"TimePressureTest",1,1,1,0,0.339,481
"1119",19,109,"TimePressureTest",1,1,1,0,0.211,482
"1120",19,72,"TimePressureTest",1,1,1,0,0.2,483
"1121",2,81,"NoPressureExposure",1,1,NA,0,NA,11
"1122",2,44,"NoPressureExposure",1,1,NA,0,NA,12
"1123",2,59,"NoPressureExposure",1,1,NA,0,NA,13
"1124",2,55,"NoPressureExposure",1,1,NA,0,NA,14
"1125",2,65,"NoPressureExposure",1,1,NA,0,NA,15
"1126",2,92,"NoPressureExposure",1,1,NA,0,NA,16
"1127",2,91,"NoPressureExposure",1,1,NA,0,NA,17
"1128",2,94,"NoPressureExposure",1,1,NA,0,NA,18
"1129",2,89,"NoPressureExposure",1,1,NA,0,NA,19
"1130",2,49,"NoPressureExposure",1,1,NA,0,NA,20
"1131",2,8,"NoPressureExposure",1,1,NA,0,NA,21
"1132",2,113,"NoPressureExposure",1,1,NA,0,NA,22
"1133",2,114,"NoPressureExposure",1,1,NA,0,NA,23
"1134",2,71,"NoPressureExposure",1,1,NA,0,NA,24
"1135",2,13,"NoPressureExposure",1,1,NA,0,NA,25
"1136",2,17,"NoPressureExposure",1,1,NA,0,NA,26
"1137",2,25,"NoPressureExposure",1,1,NA,0,NA,27
"1138",2,119,"NoPressureExposure",1,1,NA,0,NA,28
"1139",2,39,"NoPressureExposure",1,1,NA,0,NA,29
"1140",2,103,"NoPressureExposure",1,1,NA,0,NA,30
"1141",2,108,"NoPressureExposure",1,1,NA,0,NA,31
"1142",2,5,"NoPressureExposure",1,1,NA,0,NA,32
"1143",2,109,"NoPressureExposure",1,1,NA,0,NA,33
"1144",2,118,"NoPressureExposure",1,1,NA,0,NA,34
"1145",2,96,"NoPressureExposure",1,1,NA,0,NA,35
"1146",2,11,"NoPressureExposure",1,1,NA,0,NA,36
"1147",2,87,"NoPressureExposure",1,1,NA,0,NA,37
"1148",2,50,"NoPressureExposure",1,1,NA,0,NA,38
"1149",2,111,"NoPressureExposure",1,1,NA,0,NA,39
"1150",2,42,"NoPressureExposure",1,1,NA,0,NA,40
"1151",2,105,"NoPressureExposure",1,1,NA,0,NA,41
"1152",2,98,"NoPressureExposure",1,1,NA,0,NA,42
"1153",2,9,"NoPressureExposure",1,1,NA,0,NA,43
"1154",2,24,"NoPressureExposure",1,1,NA,0,NA,44
"1155",2,82,"NoPressureExposure",1,1,NA,0,NA,45
"1156",2,86,"NoPressureExposure",1,1,NA,0,NA,46
"1157",2,54,"NoPressureExposure",1,1,NA,0,NA,47
"1158",2,84,"NoPressureExposure",1,1,NA,0,NA,48
"1159",2,43,"NoPressureExposure",1,1,NA,0,NA,49
"1160",2,53,"NoPressureExposure",1,1,NA,0,NA,50
"1161",2,37,"NoPressureExposure",1,1,NA,0,NA,51
"1162",2,120,"NoPressureExposure",1,1,NA,0,NA,52
"1163",2,97,"NoPressureExposure",1,1,NA,0,NA,53
"1164",2,68,"NoPressureExposure",1,1,NA,0,NA,54
"1165",2,64,"NoPressureExposure",1,1,NA,0,NA,55
"1166",2,88,"NoPressureExposure",1,1,NA,0,NA,56
"1167",2,93,"NoPressureExposure",1,1,NA,0,NA,57
"1168",2,56,"NoPressureExposure",1,1,NA,0,NA,58
"1169",2,45,"NoPressureExposure",1,1,NA,0,NA,59
"1170",2,116,"NoPressureExposure",1,1,NA,0,NA,60
"1171",2,19,"NoPressureExposure",1,1,NA,0,NA,61
"1172",2,100,"NoPressureExposure",1,1,NA,0,NA,62
"1173",2,110,"NoPressureExposure",1,1,NA,0,NA,63
"1174",2,60,"NoPressureExposure",1,1,NA,0,NA,64
"1175",2,106,"NoPressureExposure",1,1,NA,0,NA,65
"1176",2,7,"NoPressureExposure",1,1,NA,0,NA,66
"1177",2,115,"NoPressureExposure",1,1,NA,0,NA,67
"1178",2,104,"NoPressureExposure",1,1,NA,0,NA,68
"1179",2,101,"NoPressureExposure",1,1,NA,0,NA,69
"1180",2,12,"NoPressureExposure",1,1,NA,0,NA,70
"1181",2,1,"NoPressureExposure",1,1,NA,0,NA,71
"1182",2,90,"NoPressureExposure",1,1,NA,0,NA,72
"1183",2,83,"NoPressureExposure",1,1,NA,0,NA,73
"1184",2,74,"NoPressureExposure",1,1,NA,0,NA,74
"1185",2,67,"NoPressureExposure",1,1,NA,0,NA,75
"1186",2,117,"NoPressureExposure",1,1,NA,0,NA,76
"1187",2,6,"NoPressureExposure",1,1,NA,0,NA,77
"1188",2,102,"NoPressureExposure",1,1,NA,0,NA,78
"1189",2,34,"NoPressureExposure",1,1,NA,0,NA,79
"1190",2,18,"NoPressureExposure",1,1,NA,0,NA,80
"1191",2,99,"NoPressureExposure",1,1,NA,0,NA,81
"1192",2,4,"NoPressureExposure",1,1,NA,0,NA,82
"1193",2,95,"NoPressureExposure",1,1,NA,0,NA,83
"1194",2,32,"NoPressureExposure",1,1,NA,0,NA,84
"1195",2,70,"NoPressureExposure",1,1,NA,0,NA,85
"1196",2,85,"NoPressureExposure",1,1,NA,0,NA,86
"1197",2,112,"NoPressureExposure",1,1,NA,0,NA,87
"1198",2,107,"NoPressureExposure",1,1,NA,0,NA,88
"1199",2,3,"NoPressureExposure",1,1,NA,0,NA,89
"1200",2,36,"NoPressureExposure",1,1,NA,0,NA,90
"1201",2,26,"NoPressureTest",1,1,0,0,2.127,404
"1202",2,75,"NoPressureTest",1,1,1,0,2.3,405
"1203",2,113,"NoPressureTest",1,1,0,0,1.138,406
"1204",2,101,"NoPressureTest",1,1,0,0,1.524,407
"1205",2,97,"NoPressureTest",1,1,1,0,1.368,408
"1206",2,40,"NoPressureTest",1,1,0,0,2.258,409
"1207",2,115,"NoPressureTest",1,1,1,0,0.25,410
"1208",2,38,"NoPressureTest",1,1,0,0,0.365,411
"1209",2,90,"NoPressureTest",1,1,1,0,0.478,412
"1210",2,41,"NoPressureTest",1,1,0,0,1.145,413
"1211",2,107,"NoPressureTest",1,1,0,0,0.268,414
"1212",2,86,"NoPressureTest",1,1,1,0,2.864,415
"1213",2,89,"NoPressureTest",1,1,0,0,0.241,416
"1214",2,117,"NoPressureTest",1,1,1,0,1.573,417
"1215",2,88,"NoPressureTest",1,1,1,0,0.263,418
"1216",2,83,"NoPressureTest",1,1,1,0,0.991,419
"1217",2,48,"NoPressureTest",1,1,1,0,2.402,420
"1218",2,108,"NoPressureTest",1,1,0,0,0.213,421
"1219",2,104,"NoPressureTest",1,1,1,0,1.227,422
"1220",2,81,"NoPressureTest",1,1,1,0,1.322,423
"1221",2,28,"NoPressureTest",1,1,0,0,4.869,424
"1222",2,109,"NoPressureTest",1,1,1,0,3.131,425
"1223",2,21,"NoPressureTest",1,1,1,0,1.25,426
"1224",2,16,"NoPressureTest",1,1,0,0,5.264,427
"1225",2,94,"NoPressureTest",1,1,0,0,0.534,428
"1226",2,31,"NoPressureTest",1,1,1,0,5.487,429
"1227",2,15,"NoPressureTest",1,1,0,0,2.845,430
"1228",2,87,"NoPressureTest",1,1,1,0,2.271,431
"1229",2,51,"NoPressureTest",1,1,1,0,4.359,432
"1230",2,52,"NoPressureTest",1,1,0,0,4.015,433
"1231",2,102,"NoPressureTest",1,1,1,0,0.26,434
"1232",2,82,"NoPressureTest",1,1,1,0,0.231,435
"1233",2,91,"NoPressureTest",1,1,1,0,0.236,436
"1234",2,46,"NoPressureTest",1,1,0,0,1.537,437
"1235",2,105,"NoPressureTest",1,1,0,0,4.292,438
"1236",2,103,"NoPressureTest",1,1,1,0,2.512,439
"1237",2,22,"NoPressureTest",1,1,1,0,1.342,440
"1238",2,27,"NoPressureTest",1,1,1,0,0.809,441
"1239",2,92,"NoPressureTest",1,1,0,0,0.216,442
"1240",2,61,"NoPressureTest",1,1,1,0,3.678,443
"1241",2,63,"NoPressureTest",1,1,1,0,2.368,444
"1242",2,72,"NoPressureTest",1,1,0,0,1.011,445
"1243",2,119,"NoPressureTest",1,1,1,0,3.5,446
"1244",2,58,"NoPressureTest",1,1,0,0,2.373,447
"1245",2,111,"NoPressureTest",1,1,1,0,3.048,448
"1246",2,100,"NoPressureTest",1,1,1,0,1.298,449
"1247",2,30,"NoPressureTest",1,1,0,0,2.015,450
"1248",2,20,"NoPressureTest",1,1,1,0,1.023,451
"1249",2,93,"NoPressureTest",1,1,1,0,0.294,452
"1250",2,77,"NoPressureTest",1,1,1,0,1.833,453
"1251",2,106,"NoPressureTest",1,1,1,0,0.545,454
"1252",2,29,"NoPressureTest",1,1,1,0,3.434,455
"1253",2,84,"NoPressureTest",1,1,1,0,0.773,456
"1254",2,79,"NoPressureTest",1,1,0,0,8.198,457
"1255",2,99,"NoPressureTest",1,1,1,0,1.26,458
"1256",2,2,"NoPressureTest",1,1,1,0,0.266,459
"1257",2,96,"NoPressureTest",1,1,1,0,1.085,460
"1258",2,98,"NoPressureTest",1,1,1,0,3.987,461
"1259",2,116,"NoPressureTest",1,1,1,0,0.281,462
"1260",2,73,"NoPressureTest",1,1,1,0,3.292,463
"1261",2,35,"NoPressureTest",1,1,1,0,2.493,464
"1262",2,62,"NoPressureTest",1,1,1,0,2.076,465
"1263",2,80,"NoPressureTest",1,1,0,0,0.363,466
"1264",2,114,"NoPressureTest",1,1,1,0,0.298,467
"1265",2,14,"NoPressureTest",1,1,1,0,0.605,468
"1266",2,78,"NoPressureTest",1,1,1,0,1.78,469
"1267",2,85,"NoPressureTest",1,1,1,0,0.238,470
"1268",2,76,"NoPressureTest",1,1,1,0,4.691,471
"1269",2,23,"NoPressureTest",1,1,0,0,2.655,472
"1270",2,110,"NoPressureTest",1,1,1,0,2.615,473
"1271",2,57,"NoPressureTest",1,1,1,0,1.825,474
"1272",2,112,"NoPressureTest",1,1,0,0,0.266,475
"1273",2,10,"NoPressureTest",1,1,0,0,1.726,476
"1274",2,69,"NoPressureTest",1,1,1,0,1.802,477
"1275",2,118,"NoPressureTest",1,1,1,0,3.123,478
"1276",2,120,"NoPressureTest",1,1,1,0,0.395,479
"1277",2,95,"NoPressureTest",1,1,1,0,0.793,480
"1278",2,47,"NoPressureTest",1,1,1,0,0.249,481
"1279",2,33,"NoPressureTest",1,1,1,0,2.206,482
"1280",2,66,"NoPressureTest",1,1,0,0,0.568,483
"1281",21,105,"TimePressureExposure",1,1,NA,0,NA,11
"1282",21,12,"TimePressureExposure",1,1,NA,0,NA,12
"1283",21,83,"TimePressureExposure",1,1,NA,0,NA,13
"1284",21,18,"TimePressureExposure",1,1,NA,0,NA,14
"1285",21,54,"TimePressureExposure",1,1,NA,0,NA,15
"1286",21,119,"TimePressureExposure",1,1,NA,0,NA,16
"1287",21,65,"TimePressureExposure",1,1,NA,0,NA,17
"1288",21,8,"TimePressureExposure",1,1,NA,0,NA,18
"1289",21,45,"TimePressureExposure",1,1,NA,0,NA,19
"1290",21,36,"TimePressureExposure",1,1,NA,0,NA,20
"1291",21,112,"TimePressureExposure",1,1,NA,0,NA,21
"1292",21,89,"TimePressureExposure",1,1,NA,0,NA,22
"1293",21,3,"TimePressureExposure",1,1,NA,0,NA,23
"1294",21,102,"TimePressureExposure",1,1,NA,0,NA,24
"1295",21,81,"TimePressureExposure",1,1,NA,0,NA,25
"1296",21,87,"TimePressureExposure",1,1,NA,0,NA,26
"1297",21,109,"TimePressureExposure",1,1,NA,0,NA,27
"1298",21,114,"TimePressureExposure",1,1,NA,0,NA,28
"1299",21,93,"TimePressureExposure",1,1,NA,0,NA,29
"1300",21,4,"TimePressureExposure",1,1,NA,0,NA,30
"1301",21,34,"TimePressureExposure",1,1,NA,0,NA,31
"1302",21,7,"TimePressureExposure",1,1,NA,0,NA,32
"1303",21,101,"TimePressureExposure",1,1,NA,0,NA,33
"1304",21,97,"TimePressureExposure",1,1,NA,0,NA,34
"1305",21,59,"TimePressureExposure",1,1,NA,0,NA,35
"1306",21,118,"TimePressureExposure",1,1,NA,0,NA,36
"1307",21,44,"TimePressureExposure",1,1,NA,0,NA,37
"1308",21,1,"TimePressureExposure",1,1,NA,0,NA,38
"1309",21,11,"TimePressureExposure",1,1,NA,0,NA,39
"1310",21,110,"TimePressureExposure",1,1,NA,0,NA,40
"1311",21,91,"TimePressureExposure",1,1,NA,0,NA,41
"1312",21,99,"TimePressureExposure",1,1,NA,0,NA,42
"1313",21,88,"TimePressureExposure",1,1,NA,0,NA,43
"1314",21,9,"TimePressureExposure",1,1,NA,0,NA,44
"1315",21,113,"TimePressureExposure",1,1,NA,0,NA,45
"1316",21,115,"TimePressureExposure",1,1,NA,0,NA,46
"1317",21,53,"TimePressureExposure",1,1,NA,0,NA,47
"1318",21,24,"TimePressureExposure",1,1,NA,0,NA,48
"1319",21,106,"TimePressureExposure",1,1,NA,0,NA,49
"1320",21,43,"TimePressureExposure",1,1,NA,0,NA,50
"1321",21,117,"TimePressureExposure",1,1,NA,0,NA,51
"1322",21,111,"TimePressureExposure",1,1,NA,0,NA,52
"1323",21,103,"TimePressureExposure",1,1,NA,0,NA,53
"1324",21,42,"TimePressureExposure",1,1,NA,0,NA,54
"1325",21,120,"TimePressureExposure",1,1,NA,0,NA,55
"1326",21,86,"TimePressureExposure",1,1,NA,0,NA,56
"1327",21,84,"TimePressureExposure",1,1,NA,0,NA,57
"1328",21,17,"TimePressureExposure",1,1,NA,0,NA,58
"1329",21,56,"TimePressureExposure",1,1,NA,0,NA,59
"1330",21,82,"TimePressureExposure",1,1,NA,0,NA,60
"1331",21,74,"TimePressureExposure",1,1,NA,0,NA,61
"1332",21,49,"TimePressureExposure",1,1,NA,0,NA,62
"1333",21,98,"TimePressureExposure",1,1,NA,0,NA,63
"1334",21,50,"TimePressureExposure",1,1,NA,0,NA,64
"1335",21,90,"TimePressureExposure",1,1,NA,0,NA,65
"1336",21,71,"TimePressureExposure",1,1,NA,0,NA,66
"1337",21,5,"TimePressureExposure",1,1,NA,0,NA,67
"1338",21,70,"TimePressureExposure",1,1,NA,0,NA,68
"1339",21,64,"TimePressureExposure",1,1,NA,0,NA,69
"1340",21,116,"TimePressureExposure",1,1,NA,0,NA,70
"1341",21,67,"TimePressureExposure",1,1,NA,0,NA,71
"1342",21,108,"TimePressureExposure",1,1,NA,0,NA,72
"1343",21,60,"TimePressureExposure",1,1,NA,0,NA,73
"1344",21,32,"TimePressureExposure",1,1,NA,0,NA,74
"1345",21,104,"TimePressureExposure",1,1,NA,0,NA,75
"1346",21,85,"TimePressureExposure",1,1,NA,0,NA,76
"1347",21,107,"TimePressureExposure",1,1,NA,0,NA,77
"1348",21,6,"TimePressureExposure",1,1,NA,0,NA,78
"1349",21,68,"TimePressureExposure",1,1,NA,0,NA,79
"1350",21,19,"TimePressureExposure",1,1,NA,0,NA,80
"1351",21,95,"TimePressureExposure",1,1,NA,0,NA,81
"1352",21,13,"TimePressureExposure",1,1,NA,0,NA,82
"1353",21,94,"TimePressureExposure",1,1,NA,0,NA,83
"1354",21,37,"TimePressureExposure",1,1,NA,0,NA,84
"1355",21,39,"TimePressureExposure",1,1,NA,0,NA,85
"1356",21,92,"TimePressureExposure",1,1,NA,0,NA,86
"1357",21,96,"TimePressureExposure",1,1,NA,0,NA,87
"1358",21,55,"TimePressureExposure",1,1,NA,0,NA,88
"1359",21,25,"TimePressureExposure",1,1,NA,0,NA,89
"1360",21,100,"TimePressureExposure",1,1,NA,0,NA,90
"1361",21,15,"TimePressureTest",1,1,0,0,0.51,404
"1362",21,114,"TimePressureTest",1,1,0,0,0.473,405
"1363",21,81,"TimePressureTest",1,1,0,0,0.243,406
"1364",21,107,"TimePressureTest",1,1,1,0,0.248,407
"1365",21,106,"TimePressureTest",1,1,0,0,0.237,408
"1366",21,47,"TimePressureTest",1,1,1,0,0.289,409
"1367",21,96,"TimePressureTest",1,1,0,0,0.26,410
"1368",21,83,"TimePressureTest",1,1,0,0,0.295,411
"1369",21,98,"TimePressureTest",1,1,0,0,0.186,412
"1370",21,2,"TimePressureTest",1,1,1,0,0.416,413
"1371",21,111,"TimePressureTest",1,1,1,0,0.271,414
"1372",21,57,"TimePressureTest",1,1,0,0,0.385,415
"1373",21,110,"TimePressureTest",1,1,1,0,0.24,416
"1374",21,20,"TimePressureTest",1,1,0,0,0.469,417
"1375",21,118,"TimePressureTest",1,1,0,0,0.256,418
"1376",21,85,"TimePressureTest",1,1,1,0,0.516,419
"1377",21,87,"TimePressureTest",1,1,1,0,0.558,420
"1378",21,73,"TimePressureTest",1,1,0,0,0.519,421
"1379",21,108,"TimePressureTest",1,1,1,0,0.256,422
"1380",21,66,"TimePressureTest",1,1,0,0,0.276,423
"1381",21,88,"TimePressureTest",1,1,1,0,0.264,424
"1382",21,101,"TimePressureTest",1,1,1,0,0.235,425
"1383",21,22,"TimePressureTest",1,1,1,0,0.336,426
"1384",21,38,"TimePressureTest",1,1,0,0,0.433,427
"1385",21,97,"TimePressureTest",1,1,1,0,0.335,428
"1386",21,29,"TimePressureTest",1,1,NA,0,NA,429
"1387",21,119,"TimePressureTest",1,1,NA,0,NA,430
"1388",21,104,"TimePressureTest",1,1,0,0,0.237,431
"1389",21,113,"TimePressureTest",1,1,1,0,0.289,432
"1390",21,93,"TimePressureTest",1,1,1,0,0.228,433
"1391",21,89,"TimePressureTest",1,1,1,0,0.282,434
"1392",21,86,"TimePressureTest",1,1,0,0,0.285,435
"1393",21,105,"TimePressureTest",1,1,0,0,0.335,436
"1394",21,26,"TimePressureTest",1,1,1,0,0.384,437
"1395",21,95,"TimePressureTest",1,1,1,0,0.416,438
"1396",21,41,"TimePressureTest",1,1,NA,0,NA,439
"1397",21,91,"TimePressureTest",1,1,1,0,0.237,440
"1398",21,27,"TimePressureTest",1,1,0,0,0.305,441
"1399",21,80,"TimePressureTest",1,1,0,0,0.227,442
"1400",21,102,"TimePressureTest",1,1,1,0,0.296,443
"1401",21,99,"TimePressureTest",1,1,1,0,0.267,444
"1402",21,61,"TimePressureTest",1,1,0,0,0.287,445
"1403",21,79,"TimePressureTest",1,1,1,0,0.416,446
"1404",21,116,"TimePressureTest",1,1,0,0,0.223,447
"1405",21,94,"TimePressureTest",1,1,1,0,0.42,448
"1406",21,115,"TimePressureTest",1,1,0,0,0.466,449
"1407",21,82,"TimePressureTest",1,1,1,0,0.573,450
"1408",21,30,"TimePressureTest",1,1,1,0,0.453,451
"1409",21,10,"TimePressureTest",1,1,0,0,0.242,452
"1410",21,40,"TimePressureTest",1,1,NA,0,NA,453
"1411",21,84,"TimePressureTest",1,1,0,0,0.277,454
"1412",21,72,"TimePressureTest",1,1,0,0,0.28,455
"1413",21,90,"TimePressureTest",1,1,1,0,0.235,456
"1414",21,75,"TimePressureTest",1,1,0,0,0.272,457
"1415",21,62,"TimePressureTest",1,1,0,0,0.372,458
"1416",21,100,"TimePressureTest",1,1,0,0,0.387,459
"1417",21,63,"TimePressureTest",1,1,0,0,0.273,460
"1418",21,35,"TimePressureTest",1,1,0,0,0.276,461
"1419",21,33,"TimePressureTest",1,1,1,0,0.296,462
"1420",21,52,"TimePressureTest",1,1,1,0,0.219,463
"1421",21,103,"TimePressureTest",1,1,1,0,0.225,464
"1422",21,48,"TimePressureTest",1,1,0,0,0.597,465
"1423",21,117,"TimePressureTest",1,1,1,0,0.268,466
"1424",21,21,"TimePressureTest",1,1,0,0,0.48,467
"1425",21,16,"TimePressureTest",1,1,1,0,0.315,468
"1426",21,92,"TimePressureTest",1,1,0,0,0.285,469
"1427",21,112,"TimePressureTest",1,1,0,0,0.24,470
"1428",21,58,"TimePressureTest",1,1,0,0,0.532,471
"1429",21,76,"TimePressureTest",1,1,0,0,0.606,472
"1430",21,78,"TimePressureTest",1,1,0,0,0.261,473
"1431",21,120,"TimePressureTest",1,1,NA,0,NA,474
"1432",21,51,"TimePressureTest",1,1,0,0,0.199,475
"1433",21,23,"TimePressureTest",1,1,NA,0,NA,476
"1434",21,109,"TimePressureTest",1,1,1,0,0.284,477
"1435",21,77,"TimePressureTest",1,1,0,0,0.352,478
"1436",21,14,"TimePressureTest",1,1,1,0,0.4,479
"1437",21,69,"TimePressureTest",1,1,0,0,0.463,480
"1438",21,46,"TimePressureTest",1,1,0,0,0.33,481
"1439",21,31,"TimePressureTest",1,1,1,0,0.588,482
"1440",21,28,"TimePressureTest",1,1,0,0,0.259,483
"1441",22,8,"NoPressureExposure",1,1,NA,0,NA,11
"1442",22,31,"NoPressureExposure",1,1,NA,0,NA,12
"1443",22,56,"NoPressureExposure",1,1,NA,0,NA,13
"1444",22,40,"NoPressureExposure",1,1,NA,0,NA,14
"1445",22,42,"NoPressureExposure",1,1,NA,0,NA,15
"1446",22,35,"NoPressureExposure",1,1,NA,0,NA,16
"1447",22,57,"NoPressureExposure",1,1,NA,0,NA,17
"1448",22,30,"NoPressureExposure",1,1,NA,0,NA,18
"1449",22,60,"NoPressureExposure",1,1,NA,0,NA,19
"1450",22,9,"NoPressureExposure",1,1,NA,0,NA,20
"1451",22,72,"NoPressureExposure",1,1,NA,0,NA,21
"1452",22,14,"NoPressureExposure",1,1,NA,0,NA,22
"1453",22,2,"NoPressureExposure",1,1,NA,0,NA,23
"1454",22,13,"NoPressureExposure",1,1,NA,0,NA,24
"1455",22,32,"NoPressureExposure",1,1,NA,0,NA,25
"1456",22,64,"NoPressureExposure",1,1,NA,0,NA,26
"1457",22,62,"NoPressureExposure",1,1,NA,0,NA,27
"1458",22,44,"NoPressureExposure",1,1,NA,0,NA,28
"1459",22,75,"NoPressureExposure",1,1,NA,0,NA,29
"1460",22,79,"NoPressureExposure",1,1,NA,0,NA,30
"1461",22,6,"NoPressureExposure",1,1,NA,0,NA,31
"1462",22,73,"NoPressureExposure",1,1,NA,0,NA,32
"1463",22,4,"NoPressureExposure",1,1,NA,0,NA,33
"1464",22,77,"NoPressureExposure",1,1,NA,0,NA,34
"1465",22,21,"NoPressureExposure",1,1,NA,0,NA,35
"1466",22,58,"NoPressureExposure",1,1,NA,0,NA,36
"1467",22,10,"NoPressureExposure",1,1,NA,0,NA,37
"1468",22,78,"NoPressureExposure",1,1,NA,0,NA,38
"1469",22,54,"NoPressureExposure",1,1,NA,0,NA,39
"1470",22,16,"NoPressureExposure",1,1,NA,0,NA,40
"1471",22,24,"NoPressureExposure",1,1,NA,0,NA,41
"1472",22,36,"NoPressureExposure",1,1,NA,0,NA,42
"1473",22,59,"NoPressureExposure",1,1,NA,0,NA,43
"1474",22,41,"NoPressureExposure",1,1,NA,0,NA,44
"1475",22,53,"NoPressureExposure",1,1,NA,0,NA,45
"1476",22,38,"NoPressureExposure",1,1,NA,0,NA,46
"1477",22,29,"NoPressureExposure",1,1,NA,0,NA,47
"1478",22,39,"NoPressureExposure",1,1,NA,0,NA,48
"1479",22,46,"NoPressureExposure",1,1,NA,0,NA,49
"1480",22,37,"NoPressureExposure",1,1,NA,0,NA,50
"1481",22,47,"NoPressureExposure",1,1,NA,0,NA,51
"1482",22,45,"NoPressureExposure",1,1,NA,0,NA,52
"1483",22,76,"NoPressureExposure",1,1,NA,0,NA,53
"1484",22,43,"NoPressureExposure",1,1,NA,0,NA,54
"1485",22,15,"NoPressureExposure",1,1,NA,0,NA,55
"1486",22,17,"NoPressureExposure",1,1,NA,0,NA,56
"1487",22,51,"NoPressureExposure",1,1,NA,0,NA,57
"1488",22,65,"NoPressureExposure",1,1,NA,0,NA,58
"1489",22,55,"NoPressureExposure",1,1,NA,0,NA,59
"1490",22,1,"NoPressureExposure",1,1,NA,0,NA,60
"1491",22,11,"NoPressureExposure",1,1,NA,0,NA,61
"1492",22,19,"NoPressureExposure",1,1,NA,0,NA,62
"1493",22,27,"NoPressureExposure",1,1,NA,0,NA,63
"1494",22,28,"NoPressureExposure",1,1,NA,0,NA,64
"1495",22,7,"NoPressureExposure",1,1,NA,0,NA,65
"1496",22,52,"NoPressureExposure",1,1,NA,0,NA,66
"1497",22,3,"NoPressureExposure",1,1,NA,0,NA,67
"1498",22,63,"NoPressureExposure",1,1,NA,0,NA,68
"1499",22,22,"NoPressureExposure",1,1,NA,0,NA,69
"1500",22,71,"NoPressureExposure",1,1,NA,0,NA,70
"1501",22,26,"NoPressureExposure",1,1,NA,0,NA,71
"1502",22,5,"NoPressureExposure",1,1,NA,0,NA,72
"1503",22,61,"NoPressureExposure",1,1,NA,0,NA,73
"1504",22,68,"NoPressureExposure",1,1,NA,0,NA,74
"1505",22,66,"NoPressureExposure",1,1,NA,0,NA,75
"1506",22,67,"NoPressureExposure",1,1,NA,0,NA,76
"1507",22,23,"NoPressureExposure",1,1,NA,0,NA,77
"1508",22,70,"NoPressureExposure",1,1,NA,0,NA,78
"1509",22,80,"NoPressureExposure",1,1,NA,0,NA,79
"1510",22,20,"NoPressureExposure",1,1,NA,0,NA,80
"1511",22,48,"NoPressureExposure",1,1,NA,0,NA,81
"1512",22,50,"NoPressureExposure",1,1,NA,0,NA,82
"1513",22,18,"NoPressureExposure",1,1,NA,0,NA,83
"1514",22,69,"NoPressureExposure",1,1,NA,0,NA,84
"1515",22,25,"NoPressureExposure",1,1,NA,0,NA,85
"1516",22,34,"NoPressureExposure",1,1,NA,0,NA,86
"1517",22,12,"NoPressureExposure",1,1,NA,0,NA,87
"1518",22,33,"NoPressureExposure",1,1,NA,0,NA,88
"1519",22,49,"NoPressureExposure",1,1,NA,0,NA,89
"1520",22,74,"NoPressureExposure",1,1,NA,0,NA,90
"1521",22,81,"NoPressureTest",1,1,1,0,1.588,404
"1522",22,31,"NoPressureTest",1,1,1,0,2.044,405
"1523",22,78,"NoPressureTest",1,1,0,0,0.881,406
"1524",22,91,"NoPressureTest",1,1,0,0,1.9,407
"1525",22,98,"NoPressureTest",1,1,0,0,1.811,408
"1526",22,52,"NoPressureTest",1,1,0,0,0.375,409
"1527",22,116,"NoPressureTest",1,1,1,0,0.557,410
"1528",22,90,"NoPressureTest",1,1,1,0,1.528,411
"1529",22,103,"NoPressureTest",1,1,1,0,0.837,412
"1530",22,61,"NoPressureTest",1,1,1,0,0.6,413
"1531",22,99,"NoPressureTest",1,1,0,0,0.876,414
"1532",22,87,"NoPressureTest",1,1,1,0,1.991,415
"1533",22,108,"NoPressureTest",1,1,1,0,0.321,416
"1534",22,102,"NoPressureTest",1,1,0,0,2.78,417
"1535",22,35,"NoPressureTest",1,1,0,0,4.131,418
"1536",22,26,"NoPressureTest",1,1,0,0,1.109,419
"1537",22,21,"NoPressureTest",1,1,0,0,0.302,420
"1538",22,100,"NoPressureTest",1,1,1,0,1.287,421
"1539",22,107,"NoPressureTest",1,1,1,0,2.788,422
"1540",22,2,"NoPressureTest",1,1,1,0,0.329,423
"1541",22,57,"NoPressureTest",1,1,0,0,0.584,424
"1542",22,10,"NoPressureTest",1,1,1,0,0.616,425
"1543",22,113,"NoPressureTest",1,1,1,0,0.945,426
"1544",22,41,"NoPressureTest",1,1,1,0,0.265,427
"1545",22,88,"NoPressureTest",1,1,0,0,1.162,428
"1546",22,51,"NoPressureTest",1,1,0,0,1.821,429
"1547",22,48,"NoPressureTest",1,1,1,0,0.451,430
"1548",22,73,"NoPressureTest",1,1,0,0,0.345,431
"1549",22,22,"NoPressureTest",1,1,0,0,0.218,432
"1550",22,80,"NoPressureTest",1,1,1,0,0.307,433
"1551",22,118,"NoPressureTest",1,1,0,0,2.076,434
"1552",22,29,"NoPressureTest",1,1,1,0,1.542,435
"1553",22,47,"NoPressureTest",1,1,0,0,0.405,436
"1554",22,23,"NoPressureTest",1,1,1,0,0.355,437
"1555",22,38,"NoPressureTest",1,1,0,0,0.79,438
"1556",22,66,"NoPressureTest",1,1,0,0,0.849,439
"1557",22,15,"NoPressureTest",1,1,1,0,1.847,440
"1558",22,58,"NoPressureTest",1,1,0,0,0.436,441
"1559",22,89,"NoPressureTest",1,1,0,0,3.927,442
"1560",22,112,"NoPressureTest",1,1,0,0,1.922,443
"1561",22,104,"NoPressureTest",1,1,0,0,0.78,444
"1562",22,119,"NoPressureTest",1,1,0,0,0.372,445
"1563",22,82,"NoPressureTest",1,1,1,0,3.451,446
"1564",22,111,"NoPressureTest",1,1,1,0,0.374,447
"1565",22,76,"NoPressureTest",1,1,1,0,6.124,448
"1566",22,97,"NoPressureTest",1,1,1,0,0.442,449
"1567",22,83,"NoPressureTest",1,1,1,0,5.982,450
"1568",22,79,"NoPressureTest",1,1,0,0,0.737,451
"1569",22,16,"NoPressureTest",1,1,0,0,1.01,452
"1570",22,94,"NoPressureTest",1,1,1,0,0.279,453
"1571",22,96,"NoPressureTest",1,1,1,0,0.331,454
"1572",22,115,"NoPressureTest",1,1,1,0,1.817,455
"1573",22,95,"NoPressureTest",1,1,0,0,0.239,456
"1574",22,33,"NoPressureTest",1,1,0,0,0.907,457
"1575",22,27,"NoPressureTest",1,1,0,0,0.507,458
"1576",22,40,"NoPressureTest",1,1,1,0,0.316,459
"1577",22,14,"NoPressureTest",1,1,1,0,1.224,460
"1578",22,72,"NoPressureTest",1,1,1,0,0.712,461
"1579",22,20,"NoPressureTest",1,1,1,0,0.354,462
"1580",22,105,"NoPressureTest",1,1,0,0,2.998,463
"1581",22,106,"NoPressureTest",1,1,1,0,3.159,464
"1582",22,92,"NoPressureTest",1,1,1,0,2.584,465
"1583",22,69,"NoPressureTest",1,1,0,0,0.455,466
"1584",22,109,"NoPressureTest",1,1,1,0,1.517,467
"1585",22,114,"NoPressureTest",1,1,0,0,1.384,468
"1586",22,77,"NoPressureTest",1,1,1,0,0.342,469
"1587",22,85,"NoPressureTest",1,1,1,0,1.207,470
"1588",22,110,"NoPressureTest",1,1,0,0,0.517,471
"1589",22,28,"NoPressureTest",1,1,1,0,0.296,472
"1590",22,93,"NoPressureTest",1,1,0,0,0.753,473
"1591",22,120,"NoPressureTest",1,1,0,0,2.036,474
"1592",22,46,"NoPressureTest",1,1,0,0,0.325,475
"1593",22,30,"NoPressureTest",1,1,0,0,1.555,476
"1594",22,101,"NoPressureTest",1,1,1,0,0.293,477
"1595",22,62,"NoPressureTest",1,1,0,0,0.348,478
"1596",22,86,"NoPressureTest",1,1,0,0,1.917,479
"1597",22,117,"NoPressureTest",1,1,1,0,0.167,480
"1598",22,63,"NoPressureTest",1,1,1,0,2.277,481
"1599",22,75,"NoPressureTest",1,1,1,0,2.375,482
"1600",22,84,"NoPressureTest",1,1,0,0,0.715,483
"1601",24,22,"NoPressureExposure",1,1,NA,0,NA,11
"1602",24,35,"NoPressureExposure",1,1,NA,0,NA,12
"1603",24,113,"NoPressureExposure",1,1,NA,0,NA,13
"1604",24,118,"NoPressureExposure",1,1,NA,0,NA,14
"1605",24,117,"NoPressureExposure",1,1,NA,0,NA,15
"1606",24,102,"NoPressureExposure",1,1,NA,0,NA,16
"1607",24,57,"NoPressureExposure",1,1,NA,0,NA,17
"1608",24,120,"NoPressureExposure",1,1,NA,0,NA,18
"1609",24,77,"NoPressureExposure",1,1,NA,0,NA,19
"1610",24,97,"NoPressureExposure",1,1,NA,0,NA,20
"1611",24,63,"NoPressureExposure",1,1,NA,0,NA,21
"1612",24,52,"NoPressureExposure",1,1,NA,0,NA,22
"1613",24,75,"NoPressureExposure",1,1,NA,0,NA,23
"1614",24,116,"NoPressureExposure",1,1,NA,0,NA,24
"1615",24,94,"NoPressureExposure",1,1,NA,0,NA,25
"1616",24,89,"NoPressureExposure",1,1,NA,0,NA,26
"1617",24,92,"NoPressureExposure",1,1,NA,0,NA,27
"1618",24,26,"NoPressureExposure",1,1,NA,0,NA,28
"1619",24,93,"NoPressureExposure",1,1,NA,0,NA,29
"1620",24,114,"NoPressureExposure",1,1,NA,0,NA,30
"1621",24,41,"NoPressureExposure",1,1,NA,0,NA,31
"1622",24,29,"NoPressureExposure",1,1,NA,0,NA,32
"1623",24,66,"NoPressureExposure",1,1,NA,0,NA,33
"1624",24,30,"NoPressureExposure",1,1,NA,0,NA,34
"1625",24,23,"NoPressureExposure",1,1,NA,0,NA,35
"1626",24,69,"NoPressureExposure",1,1,NA,0,NA,36
"1627",24,28,"NoPressureExposure",1,1,NA,0,NA,37
"1628",24,58,"NoPressureExposure",1,1,NA,0,NA,38
"1629",24,62,"NoPressureExposure",1,1,NA,0,NA,39
"1630",24,14,"NoPressureExposure",1,1,NA,0,NA,40
"1631",24,72,"NoPressureExposure",1,1,NA,0,NA,41
"1632",24,46,"NoPressureExposure",1,1,NA,0,NA,42
"1633",24,84,"NoPressureExposure",1,1,NA,0,NA,43
"1634",24,101,"NoPressureExposure",1,1,NA,0,NA,44
"1635",24,115,"NoPressureExposure",1,1,NA,0,NA,45
"1636",24,48,"NoPressureExposure",1,1,NA,0,NA,46
"1637",24,87,"NoPressureExposure",1,1,NA,0,NA,47
"1638",24,110,"NoPressureExposure",1,1,NA,0,NA,48
"1639",24,85,"NoPressureExposure",1,1,NA,0,NA,49
"1640",24,33,"NoPressureExposure",1,1,NA,0,NA,50
"1641",24,20,"NoPressureExposure",1,1,NA,0,NA,51
"1642",24,76,"NoPressureExposure",1,1,NA,0,NA,52
"1643",24,104,"NoPressureExposure",1,1,NA,0,NA,53
"1644",24,111,"NoPressureExposure",1,1,NA,0,NA,54
"1645",24,73,"NoPressureExposure",1,1,NA,0,NA,55
"1646",24,27,"NoPressureExposure",1,1,NA,0,NA,56
"1647",24,82,"NoPressureExposure",1,1,NA,0,NA,57
"1648",24,119,"NoPressureExposure",1,1,NA,0,NA,58
"1649",24,100,"NoPressureExposure",1,1,NA,0,NA,59
"1650",24,16,"NoPressureExposure",1,1,NA,0,NA,60
"1651",24,40,"NoPressureExposure",1,1,NA,0,NA,61
"1652",24,79,"NoPressureExposure",1,1,NA,0,NA,62
"1653",24,103,"NoPressureExposure",1,1,NA,0,NA,63
"1654",24,31,"NoPressureExposure",1,1,NA,0,NA,64
"1655",24,88,"NoPressureExposure",1,1,NA,0,NA,65
"1656",24,81,"NoPressureExposure",1,1,NA,0,NA,66
"1657",24,90,"NoPressureExposure",1,1,NA,0,NA,67
"1658",24,47,"NoPressureExposure",1,1,NA,0,NA,68
"1659",24,112,"NoPressureExposure",1,1,NA,0,NA,69
"1660",24,86,"NoPressureExposure",1,1,NA,0,NA,70
"1661",24,38,"NoPressureExposure",1,1,NA,0,NA,71
"1662",24,99,"NoPressureExposure",1,1,NA,0,NA,72
"1663",24,107,"NoPressureExposure",1,1,NA,0,NA,73
"1664",24,105,"NoPressureExposure",1,1,NA,0,NA,74
"1665",24,109,"NoPressureExposure",1,1,NA,0,NA,75
"1666",24,78,"NoPressureExposure",1,1,NA,0,NA,76
"1667",24,108,"NoPressureExposure",1,1,NA,0,NA,77
"1668",24,98,"NoPressureExposure",1,1,NA,0,NA,78
"1669",24,10,"NoPressureExposure",1,1,NA,0,NA,79
"1670",24,95,"NoPressureExposure",1,1,NA,0,NA,80
"1671",24,61,"NoPressureExposure",1,1,NA,0,NA,81
"1672",24,2,"NoPressureExposure",1,1,NA,0,NA,82
"1673",24,51,"NoPressureExposure",1,1,NA,0,NA,83
"1674",24,15,"NoPressureExposure",1,1,NA,0,NA,84
"1675",24,106,"NoPressureExposure",1,1,NA,0,NA,85
"1676",24,91,"NoPressureExposure",1,1,NA,0,NA,86
"1677",24,96,"NoPressureExposure",1,1,NA,0,NA,87
"1678",24,80,"NoPressureExposure",1,1,NA,0,NA,88
"1679",24,21,"NoPressureExposure",1,1,NA,0,NA,89
"1680",24,83,"NoPressureExposure",1,1,NA,0,NA,90
"1681",24,59,"NoPressureTest",1,1,1,0,0.954,404
"1682",24,1,"NoPressureTest",1,1,1,0,2.051,405
"1683",24,54,"NoPressureTest",1,1,0,0,0.739,406
"1684",24,12,"NoPressureTest",1,1,1,0,0.612,407
"1685",24,91,"NoPressureTest",1,1,0,0,0.603,408
"1686",24,86,"NoPressureTest",1,1,1,0,1.106,409
"1687",24,65,"NoPressureTest",1,1,1,0,1.51,410
"1688",24,89,"NoPressureTest",1,1,1,0,0.218,411
"1689",24,36,"NoPressureTest",1,1,0,0,2.848,412
"1690",24,108,"NoPressureTest",1,1,0,0,0.224,413
"1691",24,81,"NoPressureTest",1,1,0,0,0.054,414
"1692",24,115,"NoPressureTest",1,1,1,0,0.225,415
"1693",24,106,"NoPressureTest",1,1,1,0,0.134,416
"1694",24,107,"NoPressureTest",1,1,0,0,0.063,417
"1695",24,42,"NoPressureTest",1,1,0,0,1.642,418
"1696",24,114,"NoPressureTest",1,1,1,0,2.058,419
"1697",24,119,"NoPressureTest",1,1,0,0,2.809,420
"1698",24,13,"NoPressureTest",1,1,1,0,2.653,421
"1699",24,84,"NoPressureTest",1,1,1,0,0.981,422
"1700",24,85,"NoPressureTest",1,1,0,0,0.174,423
"1701",24,101,"NoPressureTest",1,1,1,0,2.927,424
"1702",24,116,"NoPressureTest",1,1,1,0,0.34,425
"1703",24,82,"NoPressureTest",1,1,0,0,0.661,426
"1704",24,70,"NoPressureTest",1,1,0,0,0.234,427
"1705",24,56,"NoPressureTest",1,1,0,0,0.479,428
"1706",24,87,"NoPressureTest",1,1,1,0,0.026,429
"1707",24,118,"NoPressureTest",1,1,0,0,0.087,430
"1708",24,111,"NoPressureTest",1,1,0,0,0.193,431
"1709",24,6,"NoPressureTest",1,1,1,0,0.743,432
"1710",24,39,"NoPressureTest",1,1,1,0,0.248,433
"1711",24,68,"NoPressureTest",1,1,0,0,0.237,434
"1712",24,5,"NoPressureTest",1,1,0,0,1.665,435
"1713",24,53,"NoPressureTest",1,1,0,0,0.224,436
"1714",24,99,"NoPressureTest",1,1,0,0,1.701,437
"1715",24,95,"NoPressureTest",1,1,1,0,0.114,438
"1716",24,93,"NoPressureTest",1,1,1,0,0.251,439
"1717",24,110,"NoPressureTest",1,1,1,0,0.111,440
"1718",24,50,"NoPressureTest",1,1,0,0,0.249,441
"1719",24,9,"NoPressureTest",1,1,0,0,2.414,442
"1720",24,64,"NoPressureTest",1,1,0,0,0.896,443
"1721",24,32,"NoPressureTest",1,1,1,0,0.46,444
"1722",24,19,"NoPressureTest",1,1,1,0,3.544,445
"1723",24,96,"NoPressureTest",1,1,1,0,0.24,446
"1724",24,117,"NoPressureTest",1,1,1,0,0.211,447
"1725",24,74,"NoPressureTest",1,1,0,0,0.457,448
"1726",24,71,"NoPressureTest",1,1,0,0,2.838,449
"1727",24,92,"NoPressureTest",1,1,0,0,0.023,450
"1728",24,98,"NoPressureTest",1,1,1,0,3.812,451
"1729",24,112,"NoPressureTest",1,1,0,0,0.225,452
"1730",24,43,"NoPressureTest",1,1,1,0,0.23,453
"1731",24,104,"NoPressureTest",1,1,1,0,0.299,454
"1732",24,17,"NoPressureTest",1,1,1,0,0.461,455
"1733",24,90,"NoPressureTest",1,1,1,0,0.202,456
"1734",24,55,"NoPressureTest",1,1,0,0,0.384,457
"1735",24,8,"NoPressureTest",1,1,0,0,0.96,458
"1736",24,18,"NoPressureTest",1,1,1,0,0.361,459
"1737",24,7,"NoPressureTest",1,1,0,0,0.216,460
"1738",24,25,"NoPressureTest",1,1,1,0,0.654,461
"1739",24,97,"NoPressureTest",1,1,0,0,1.235,462
"1740",24,49,"NoPressureTest",1,1,1,0,0.722,463
"1741",24,109,"NoPressureTest",1,1,1,0,0.548,464
"1742",24,37,"NoPressureTest",1,1,0,0,0.397,465
"1743",24,4,"NoPressureTest",1,1,1,0,0.235,466
"1744",24,45,"NoPressureTest",1,1,0,0,0.16,467
"1745",24,113,"NoPressureTest",1,1,1,0,0.328,468
"1746",24,34,"NoPressureTest",1,1,0,0,0.249,469
"1747",24,105,"NoPressureTest",1,1,0,0,0.237,470
"1748",24,44,"NoPressureTest",1,1,0,0,0.497,471
"1749",24,88,"NoPressureTest",1,1,0,0,0.509,472
"1750",24,100,"NoPressureTest",1,1,1,0,0.055,473
"1751",24,103,"NoPressureTest",1,1,1,0,2.707,474
"1752",24,67,"NoPressureTest",1,1,0,0,0.842,475
"1753",24,3,"NoPressureTest",1,1,1,0,2.264,476
"1754",24,11,"NoPressureTest",1,1,0,0,0.912,477
"1755",24,120,"NoPressureTest",1,1,1,0,1.019,478
"1756",24,94,"NoPressureTest",1,1,1,0,0.129,479
"1757",24,24,"NoPressureTest",1,1,1,0,0.17,480
"1758",24,60,"NoPressureTest",1,1,0,0,0.337,481
"1759",24,102,"NoPressureTest",1,1,1,0,0.066,482
"1760",24,83,"NoPressureTest",1,1,1,0,0.253,483
"1761",25,14,"TimePressureExposure",1,1,NA,0,NA,11
"1762",25,108,"TimePressureExposure",1,1,NA,0,NA,12
"1763",25,102,"TimePressureExposure",1,1,NA,0,NA,13
"1764",25,110,"TimePressureExposure",1,1,NA,0,NA,14
"1765",25,10,"TimePressureExposure",1,1,NA,0,NA,15
"1766",25,76,"TimePressureExposure",1,1,NA,0,NA,16
"1767",25,119,"TimePressureExposure",1,1,NA,0,NA,17
"1768",25,30,"TimePressureExposure",1,1,NA,0,NA,18
"1769",25,89,"TimePressureExposure",1,1,NA,0,NA,19
"1770",25,16,"TimePressureExposure",1,1,NA,0,NA,20
"1771",25,63,"TimePressureExposure",1,1,NA,0,NA,21
"1772",25,15,"TimePressureExposure",1,1,NA,0,NA,22
"1773",25,117,"TimePressureExposure",1,1,NA,0,NA,23
"1774",25,48,"TimePressureExposure",1,1,NA,0,NA,24
"1775",25,113,"TimePressureExposure",1,1,NA,0,NA,25
"1776",25,69,"TimePressureExposure",1,1,NA,0,NA,26
"1777",25,51,"TimePressureExposure",1,1,NA,0,NA,27
"1778",25,82,"TimePressureExposure",1,1,NA,0,NA,28
"1779",25,40,"TimePressureExposure",1,1,NA,0,NA,29
"1780",25,105,"TimePressureExposure",1,1,NA,0,NA,30
"1781",25,86,"TimePressureExposure",1,1,NA,0,NA,31
"1782",25,66,"TimePressureExposure",1,1,NA,0,NA,32
"1783",25,35,"TimePressureExposure",1,1,NA,0,NA,33
"1784",25,20,"TimePressureExposure",1,1,NA,0,NA,34
"1785",25,93,"TimePressureExposure",1,1,NA,0,NA,35
"1786",25,75,"TimePressureExposure",1,1,NA,0,NA,36
"1787",25,120,"TimePressureExposure",1,1,NA,0,NA,37
"1788",25,72,"TimePressureExposure",1,1,NA,0,NA,38
"1789",25,116,"TimePressureExposure",1,1,NA,0,NA,39
"1790",25,46,"TimePressureExposure",1,1,NA,0,NA,40
"1791",25,83,"TimePressureExposure",1,1,NA,0,NA,41
"1792",25,90,"TimePressureExposure",1,1,NA,0,NA,42
"1793",25,85,"TimePressureExposure",1,1,NA,0,NA,43
"1794",25,87,"TimePressureExposure",1,1,NA,0,NA,44
"1795",25,94,"TimePressureExposure",1,1,NA,0,NA,45
"1796",25,112,"TimePressureExposure",1,1,NA,0,NA,46
"1797",25,21,"TimePressureExposure",1,1,NA,0,NA,47
"1798",25,101,"TimePressureExposure",1,1,NA,0,NA,48
"1799",25,99,"TimePressureExposure",1,1,NA,0,NA,49
"1800",25,28,"TimePressureExposure",1,1,NA,0,NA,50
"1801",25,77,"TimePressureExposure",1,1,NA,0,NA,51
"1802",25,118,"TimePressureExposure",1,1,NA,0,NA,52
"1803",25,41,"TimePressureExposure",1,1,NA,0,NA,53
"1804",25,29,"TimePressureExposure",1,1,NA,0,NA,54
"1805",25,84,"TimePressureExposure",1,1,NA,0,NA,55
"1806",25,62,"TimePressureExposure",1,1,NA,0,NA,56
"1807",25,23,"TimePressureExposure",1,1,NA,0,NA,57
"1808",25,115,"TimePressureExposure",1,1,NA,0,NA,58
"1809",25,31,"TimePressureExposure",1,1,NA,0,NA,59
"1810",25,79,"TimePressureExposure",1,1,NA,0,NA,60
"1811",25,73,"TimePressureExposure",1,1,NA,0,NA,61
"1812",25,33,"TimePressureExposure",1,1,NA,0,NA,62
"1813",25,103,"TimePressureExposure",1,1,NA,0,NA,63
"1814",25,2,"TimePressureExposure",1,1,NA,0,NA,64
"1815",25,98,"TimePressureExposure",1,1,NA,0,NA,65
"1816",25,61,"TimePressureExposure",1,1,NA,0,NA,66
"1817",25,47,"TimePressureExposure",1,1,NA,0,NA,67
"1818",25,111,"TimePressureExposure",1,1,NA,0,NA,68
"1819",25,104,"TimePressureExposure",1,1,NA,0,NA,69
"1820",25,78,"TimePressureExposure",1,1,NA,0,NA,70
"1821",25,27,"TimePressureExposure",1,1,NA,0,NA,71
"1822",25,81,"TimePressureExposure",1,1,NA,0,NA,72
"1823",25,109,"TimePressureExposure",1,1,NA,0,NA,73
"1824",25,58,"TimePressureExposure",1,1,NA,0,NA,74
"1825",25,96,"TimePressureExposure",1,1,NA,0,NA,75
"1826",25,114,"TimePressureExposure",1,1,NA,0,NA,76
"1827",25,106,"TimePressureExposure",1,1,NA,0,NA,77
"1828",25,22,"TimePressureExposure",1,1,NA,0,NA,78
"1829",25,100,"TimePressureExposure",1,1,NA,0,NA,79
"1830",25,95,"TimePressureExposure",1,1,NA,0,NA,80
"1831",25,80,"TimePressureExposure",1,1,NA,0,NA,81
"1832",25,38,"TimePressureExposure",1,1,NA,0,NA,82
"1833",25,88,"TimePressureExposure",1,1,NA,0,NA,83
"1834",25,91,"TimePressureExposure",1,1,NA,0,NA,84
"1835",25,26,"TimePressureExposure",1,1,NA,0,NA,85
"1836",25,97,"TimePressureExposure",1,1,NA,0,NA,86
"1837",25,52,"TimePressureExposure",1,1,NA,0,NA,87
"1838",25,92,"TimePressureExposure",1,1,NA,0,NA,88
"1839",25,107,"TimePressureExposure",1,1,NA,0,NA,89
"1840",25,57,"TimePressureExposure",1,1,NA,0,NA,90
"1841",25,120,"TimePressureTest",1,1,1,0,0.572,404
"1842",25,92,"TimePressureTest",1,1,1,0,0.355,405
"1843",25,55,"TimePressureTest",1,1,0,0,0.532,406
"1844",25,111,"TimePressureTest",1,1,1,0,0.174,407
"1845",25,39,"TimePressureTest",1,1,0,0,0.453,408
"1846",25,97,"TimePressureTest",1,1,1,0,0.001,409
"1847",25,103,"TimePressureTest",1,1,1,0,0.446,410
"1848",25,13,"TimePressureTest",1,1,0,0,0.091,411
"1849",25,81,"TimePressureTest",1,1,1,0,0.069,412
"1850",25,18,"TimePressureTest",1,1,1,0,0.543,413
"1851",25,19,"TimePressureTest",1,1,0,0,0.408,414
"1852",25,9,"TimePressureTest",1,1,1,0,0.183,415
"1853",25,70,"TimePressureTest",1,1,1,0,0.398,416
"1854",25,93,"TimePressureTest",1,1,1,0,0.365,417
"1855",25,17,"TimePressureTest",1,1,0,0,0.348,418
"1856",25,67,"TimePressureTest",1,1,0,0,0.381,419
"1857",25,43,"TimePressureTest",1,1,0,0,0.38,420
"1858",25,90,"TimePressureTest",1,1,1,0,0.364,421
"1859",25,91,"TimePressureTest",1,1,1,0,0.124,422
"1860",25,60,"TimePressureTest",1,1,0,0,0.388,423
"1861",25,36,"TimePressureTest",1,1,0,0,0.355,424
"1862",25,106,"TimePressureTest",1,1,1,0,0.388,425
"1863",25,102,"TimePressureTest",1,1,1,0,0.082,426
"1864",25,113,"TimePressureTest",1,1,1,0,0.428,427
"1865",25,8,"TimePressureTest",1,1,0,0,0.426,428
"1866",25,53,"TimePressureTest",1,1,0,0,0.36,429
"1867",25,109,"TimePressureTest",1,1,1,0,0.392,430
"1868",25,49,"TimePressureTest",1,1,0,0,0.375,431
"1869",25,82,"TimePressureTest",1,1,1,0,0.07,432
"1870",25,45,"TimePressureTest",1,1,0,0,0.321,433
"1871",25,11,"TimePressureTest",1,1,0,0,0.114,434
"1872",25,85,"TimePressureTest",1,1,1,0,0.396,435
"1873",25,3,"TimePressureTest",1,1,0,0,0.33,436
"1874",25,116,"TimePressureTest",1,1,1,0,0.427,437
"1875",25,44,"TimePressureTest",1,1,1,0,0.361,438
"1876",25,117,"TimePressureTest",1,1,1,0,0.585,439
"1877",25,86,"TimePressureTest",1,1,1,0,0.4,440
"1878",25,37,"TimePressureTest",1,1,0,0,0.078,441
"1879",25,119,"TimePressureTest",1,1,1,0,0.121,442
"1880",25,32,"TimePressureTest",1,1,0,0,0.531,443
"1881",25,98,"TimePressureTest",1,1,1,0,0.332,444
"1882",25,25,"TimePressureTest",1,1,0,0,0.414,445
"1883",25,24,"TimePressureTest",1,1,0,0,0.171,446
"1884",25,59,"TimePressureTest",1,1,1,0,0.402,447
"1885",25,65,"TimePressureTest",1,1,1,0,0.369,448
"1886",25,83,"TimePressureTest",1,1,1,0,0.4,449
"1887",25,112,"TimePressureTest",1,1,1,0,0.382,450
"1888",25,6,"TimePressureTest",1,1,0,0,0.366,451
"1889",25,100,"TimePressureTest",1,1,1,0,0.398,452
"1890",25,114,"TimePressureTest",1,1,1,0,0.381,453
"1891",25,7,"TimePressureTest",1,1,0,0,0.013,454
"1892",25,71,"TimePressureTest",1,1,0,0,0.297,455
"1893",25,34,"TimePressureTest",1,1,0,0,0.092,456
"1894",25,88,"TimePressureTest",1,1,1,0,0.406,457
"1895",25,74,"TimePressureTest",1,1,1,0,0.485,458
"1896",25,54,"TimePressureTest",1,1,1,0,0.48,459
"1897",25,95,"TimePressureTest",1,1,0,0,0.347,460
"1898",25,104,"TimePressureTest",1,1,1,0,0.172,461
"1899",25,107,"TimePressureTest",1,1,0,0,0.547,462
"1900",25,115,"TimePressureTest",1,1,NA,0,NA,463
"1901",25,4,"TimePressureTest",1,1,0,0,0.331,464
"1902",25,118,"TimePressureTest",1,1,1,0,0.46,465
"1903",25,5,"TimePressureTest",1,1,0,0,0.44,466
"1904",25,105,"TimePressureTest",1,1,1,0,0.389,467
"1905",25,94,"TimePressureTest",1,1,1,0,0.356,468
"1906",25,87,"TimePressureTest",1,1,1,0,0.484,469
"1907",25,50,"TimePressureTest",1,1,0,0,0.031,470
"1908",25,1,"TimePressureTest",1,1,1,0,0.124,471
"1909",25,101,"TimePressureTest",1,1,1,0,0.501,472
"1910",25,89,"TimePressureTest",1,1,1,0,0.368,473
"1911",25,56,"TimePressureTest",1,1,0,0,0.383,474
"1912",25,12,"TimePressureTest",1,1,1,0,0.383,475
"1913",25,108,"TimePressureTest",1,1,1,0,0.367,476
"1914",25,96,"TimePressureTest",1,1,1,0,0.383,477
"1915",25,84,"TimePressureTest",1,1,1,0,0.43,478
"1916",25,68,"TimePressureTest",1,1,1,0,0.347,479
"1917",25,110,"TimePressureTest",1,1,1,0,0.412,480
"1918",25,42,"TimePressureTest",1,1,0,0,0.458,481
"1919",25,99,"TimePressureTest",1,1,1,0,0.583,482
"1920",25,64,"TimePressureTest",1,1,NA,0,NA,483
"1921",26,15,"NoPressureExposure",1,1,NA,0,NA,11
"1922",26,13,"NoPressureExposure",1,1,NA,0,NA,12
"1923",26,19,"NoPressureExposure",1,1,NA,0,NA,13
"1924",26,52,"NoPressureExposure",1,1,NA,0,NA,14
"1925",26,77,"NoPressureExposure",1,1,NA,0,NA,15
"1926",26,18,"NoPressureExposure",1,1,NA,0,NA,16
"1927",26,17,"NoPressureExposure",1,1,NA,0,NA,17
"1928",26,31,"NoPressureExposure",1,1,NA,0,NA,18
"1929",26,69,"NoPressureExposure",1,1,NA,0,NA,19
"1930",26,7,"NoPressureExposure",1,1,NA,0,NA,20
"1931",26,60,"NoPressureExposure",1,1,NA,0,NA,21
"1932",26,61,"NoPressureExposure",1,1,NA,0,NA,22
"1933",26,63,"NoPressureExposure",1,1,NA,0,NA,23
"1934",26,65,"NoPressureExposure",1,1,NA,0,NA,24
"1935",26,76,"NoPressureExposure",1,1,NA,0,NA,25
"1936",26,42,"NoPressureExposure",1,1,NA,0,NA,26
"1937",26,51,"NoPressureExposure",1,1,NA,0,NA,27
"1938",26,55,"NoPressureExposure",1,1,NA,0,NA,28
"1939",26,56,"NoPressureExposure",1,1,NA,0,NA,29
"1940",26,34,"NoPressureExposure",1,1,NA,0,NA,30
"1941",26,38,"NoPressureExposure",1,1,NA,0,NA,31
"1942",26,54,"NoPressureExposure",1,1,NA,0,NA,32
"1943",26,39,"NoPressureExposure",1,1,NA,0,NA,33
"1944",26,20,"NoPressureExposure",1,1,NA,0,NA,34
"1945",26,11,"NoPressureExposure",1,1,NA,0,NA,35
"1946",26,79,"NoPressureExposure",1,1,NA,0,NA,36
"1947",26,14,"NoPressureExposure",1,1,NA,0,NA,37
"1948",26,64,"NoPressureExposure",1,1,NA,0,NA,38
"1949",26,66,"NoPressureExposure",1,1,NA,0,NA,39
"1950",26,57,"NoPressureExposure",1,1,NA,0,NA,40
"1951",26,16,"NoPressureExposure",1,1,NA,0,NA,41
"1952",26,30,"NoPressureExposure",1,1,NA,0,NA,42
"1953",26,71,"NoPressureExposure",1,1,NA,0,NA,43
"1954",26,48,"NoPressureExposure",1,1,NA,0,NA,44
"1955",26,25,"NoPressureExposure",1,1,NA,0,NA,45
"1956",26,70,"NoPressureExposure",1,1,NA,0,NA,46
"1957",26,37,"NoPressureExposure",1,1,NA,0,NA,47
"1958",26,53,"NoPressureExposure",1,1,NA,0,NA,48
"1959",26,74,"NoPressureExposure",1,1,NA,0,NA,49
"1960",26,58,"NoPressureExposure",1,1,NA,0,NA,50
"1961",26,33,"NoPressureExposure",1,1,NA,0,NA,51
"1962",26,5,"NoPressureExposure",1,1,NA,0,NA,52
"1963",26,10,"NoPressureExposure",1,1,NA,0,NA,53
"1964",26,1,"NoPressureExposure",1,1,NA,0,NA,54
"1965",26,46,"NoPressureExposure",1,1,NA,0,NA,55
"1966",26,45,"NoPressureExposure",1,1,NA,0,NA,56
"1967",26,4,"NoPressureExposure",1,1,NA,0,NA,57
"1968",26,40,"NoPressureExposure",1,1,NA,0,NA,58
"1969",26,6,"NoPressureExposure",1,1,NA,0,NA,59
"1970",26,28,"NoPressureExposure",1,1,NA,0,NA,60
"1971",26,59,"NoPressureExposure",1,1,NA,0,NA,61
"1972",26,67,"NoPressureExposure",1,1,NA,0,NA,62
"1973",26,8,"NoPressureExposure",1,1,NA,0,NA,63
"1974",26,35,"NoPressureExposure",1,1,NA,0,NA,64
"1975",26,23,"NoPressureExposure",1,1,NA,0,NA,65
"1976",26,78,"NoPressureExposure",1,1,NA,0,NA,66
"1977",26,3,"NoPressureExposure",1,1,NA,0,NA,67
"1978",26,41,"NoPressureExposure",1,1,NA,0,NA,68
"1979",26,24,"NoPressureExposure",1,1,NA,0,NA,69
"1980",26,73,"NoPressureExposure",1,1,NA,0,NA,70
"1981",26,21,"NoPressureExposure",1,1,NA,0,NA,71
"1982",26,47,"NoPressureExposure",1,1,NA,0,NA,72
"1983",26,22,"NoPressureExposure",1,1,NA,0,NA,73
"1984",26,49,"NoPressureExposure",1,1,NA,0,NA,74
"1985",26,27,"NoPressureExposure",1,1,NA,0,NA,75
"1986",26,26,"NoPressureExposure",1,1,NA,0,NA,76
"1987",26,36,"NoPressureExposure",1,1,NA,0,NA,77
"1988",26,72,"NoPressureExposure",1,1,NA,0,NA,78
"1989",26,9,"NoPressureExposure",1,1,NA,0,NA,79
"1990",26,80,"NoPressureExposure",1,1,NA,0,NA,80
"1991",26,50,"NoPressureExposure",1,1,NA,0,NA,81
"1992",26,68,"NoPressureExposure",1,1,NA,0,NA,82
"1993",26,43,"NoPressureExposure",1,1,NA,0,NA,83
"1994",26,2,"NoPressureExposure",1,1,NA,0,NA,84
"1995",26,62,"NoPressureExposure",1,1,NA,0,NA,85
"1996",26,12,"NoPressureExposure",1,1,NA,0,NA,86
"1997",26,29,"NoPressureExposure",1,1,NA,0,NA,87
"1998",26,44,"NoPressureExposure",1,1,NA,0,NA,88
"1999",26,75,"NoPressureExposure",1,1,NA,0,NA,89
"2000",26,32,"NoPressureExposure",1,1,NA,0,NA,90
"2001",26,99,"NoPressureTest",1,1,0,0,6.79,404
"2002",26,116,"NoPressureTest",1,1,1,0,2.233,405
"2003",26,9,"NoPressureTest",1,1,0,0,3.219,406
"2004",26,115,"NoPressureTest",1,1,0,0,1.361,407
"2005",26,91,"NoPressureTest",1,1,1,0,1.228,408
"2006",26,108,"NoPressureTest",1,1,1,0,1.436,409
"2007",26,88,"NoPressureTest",1,1,1,0,1.734,410
"2008",26,25,"NoPressureTest",1,1,1,0,2.539,411
"2009",26,93,"NoPressureTest",1,1,0,0,2.85,412
"2010",26,71,"NoPressureTest",1,1,0,0,3.814,413
"2011",26,114,"NoPressureTest",1,1,1,0,3.113,414
"2012",26,37,"NoPressureTest",1,1,0,0,1.457,415
"2013",26,24,"NoPressureTest",1,1,1,0,0.961,416
"2014",26,54,"NoPressureTest",1,1,1,0,5.133,417
"2015",26,70,"NoPressureTest",1,1,1,0,3.255,418
"2016",26,107,"NoPressureTest",1,1,0,0,3.114,419
"2017",26,117,"NoPressureTest",1,1,1,0,1.123,420
"2018",26,109,"NoPressureTest",1,1,0,0,1.249,421
"2019",26,12,"NoPressureTest",1,1,1,0,2.39,422
"2020",26,19,"NoPressureTest",1,1,1,0,2.541,423
"2021",26,34,"NoPressureTest",1,1,1,0,7.284,424
"2022",26,102,"NoPressureTest",1,1,0,0,2.666,425
"2023",26,1,"NoPressureTest",1,1,1,0,4.489,426
"2024",26,3,"NoPressureTest",1,1,1,0,1.395,427
"2025",26,74,"NoPressureTest",1,1,1,0,1.205,428
"2026",26,87,"NoPressureTest",1,1,0,0,1.619,429
"2027",26,67,"NoPressureTest",1,1,1,0,1.554,430
"2028",26,5,"NoPressureTest",1,1,1,0,2.757,431
"2029",26,84,"NoPressureTest",1,1,1,0,2.166,432
"2030",26,97,"NoPressureTest",1,1,0,0,1.715,433
"2031",26,55,"NoPressureTest",1,1,1,0,0.645,434
"2032",26,44,"NoPressureTest",1,1,1,0,0.946,435
"2033",26,65,"NoPressureTest",1,1,0,0,1.13,436
"2034",26,110,"NoPressureTest",1,1,1,0,1.735,437
"2035",26,32,"NoPressureTest",1,1,1,0,1.5,438
"2036",26,82,"NoPressureTest",1,1,0,0,0.708,439
"2037",26,106,"NoPressureTest",1,1,1,0,1.313,440
"2038",26,100,"NoPressureTest",1,1,0,0,1.247,441
"2039",26,4,"NoPressureTest",1,1,1,0,3.636,442
"2040",26,6,"NoPressureTest",1,1,0,0,4.55,443
"2041",26,7,"NoPressureTest",1,1,1,0,0.858,444
"2042",26,39,"NoPressureTest",1,1,1,0,0.962,445
