"","subject","statement_identifier","presentation_identifier","within_identifier","between_identifier","response","repeated","rt","trial"
"1",1,1,"NoPressureExposure","easy",1,NA,0,NA,1
"2",1,2,"NoPressureExposure","difficult",1,NA,0,NA,2
"3",1,3,"NoPressureExposure","easy",1,NA,0,NA,3
"4",1,4,"NoPressureExposure","easy",1,NA,0,NA,4
"5",1,5,"NoPressureExposure","difficult",1,NA,0,NA,5
"6",1,6,"NoPressureExposure","easy",1,NA,0,NA,6
"7",1,7,"NoPressureExposure","difficult",1,NA,0,NA,7
"8",1,8,"NoPressureExposure","difficult",1,NA,0,NA,8
"9",1,9,"NoPressureExposure","difficult",1,NA,0,NA,9
"10",1,10,"NoPressureExposure","difficult",1,NA,0,NA,10
"11",1,11,"NoPressureExposure","easy",1,NA,0,NA,11
"12",1,12,"NoPressureExposure","easy",1,NA,0,NA,12
"13",1,13,"NoPressureExposure","easy",1,NA,0,NA,13
"14",1,14,"NoPressureExposure","difficult",1,NA,0,NA,14
"15",1,15,"NoPressureExposure","easy",1,NA,0,NA,15
"16",1,16,"NoPressureExposure","difficult",1,NA,0,NA,16
"17",1,17,"NoPressureExposure","easy",1,NA,0,NA,17
"18",1,18,"NoPressureExposure","difficult",1,NA,0,NA,18
"19",1,19,"NoPressureExposure","easy",1,NA,0,NA,19
"20",1,20,"NoPressureExposure","difficult",1,NA,0,NA,20
"21",1,21,"NoPressureExposure","easy",1,NA,0,NA,21
"22",1,22,"NoPressureExposure","easy",1,NA,0,NA,22
"23",1,23,"NoPressureExposure","easy",1,NA,0,NA,23
"24",1,24,"NoPressureExposure","easy",1,NA,0,NA,24
"25",1,25,"NoPressureExposure","difficult",1,NA,0,NA,25
"26",1,26,"NoPressureExposure","difficult",1,NA,0,NA,26
"27",1,27,"NoPressureExposure","difficult",1,NA,0,NA,27
"28",1,28,"NoPressureExposure","difficult",1,NA,0,NA,28
"29",1,29,"NoPressureExposure","easy",1,NA,0,NA,29
"30",1,30,"NoPressureExposure","easy",1,NA,0,NA,30
"31",1,31,"NoPressureExposure","easy",1,NA,0,NA,31
"32",1,32,"NoPressureExposure","easy",1,NA,0,NA,32
"33",1,33,"NoPressureExposure","difficult",1,NA,0,NA,33
"34",1,34,"NoPressureExposure","difficult",1,NA,0,NA,34
"35",1,35,"NoPressureExposure","difficult",1,NA,0,NA,35
"36",1,36,"NoPressureExposure","difficult",1,NA,0,NA,36
"37",1,37,"NoPressureExposure","difficult",1,NA,0,NA,37
"38",1,38,"NoPressureExposure","difficult",1,NA,0,NA,38
"39",1,39,"NoPressureExposure","easy",1,NA,0,NA,39
"40",1,40,"NoPressureExposure","difficult",1,NA,0,NA,40
"41",1,41,"NoPressureExposure","easy",1,NA,0,NA,41
"42",1,42,"NoPressureExposure","difficult",1,NA,0,NA,42
"43",1,43,"NoPressureExposure","easy",1,NA,0,NA,43
"44",1,44,"NoPressureExposure","easy",1,NA,0,NA,44
"45",1,45,"NoPressureExposure","difficult",1,NA,0,NA,45
"46",1,46,"NoPressureExposure","easy",1,NA,0,NA,46
"47",1,47,"NoPressureExposure","easy",1,NA,0,NA,47
"48",1,48,"NoPressureExposure","easy",1,NA,0,NA,48
"49",1,49,"NoPressureExposure","difficult",1,NA,0,NA,49
"50",1,50,"NoPressureExposure","difficult",1,NA,0,NA,50
"51",1,51,"NoPressureExposure","easy",1,NA,0,NA,51
"52",1,52,"NoPressureExposure","difficult",1,NA,0,NA,52
"53",1,53,"NoPressureExposure","easy",1,NA,0,NA,53
"54",1,54,"NoPressureExposure","difficult",1,NA,0,NA,54
"55",1,55,"NoPressureExposure","easy",1,NA,0,NA,55
"56",1,56,"NoPressureExposure","difficult",1,NA,0,NA,56
"57",1,57,"NoPressureExposure","easy",1,NA,0,NA,57
"58",1,58,"NoPressureExposure","easy",1,NA,0,NA,58
"59",1,59,"NoPressureExposure","difficult",1,NA,0,NA,59
"60",1,60,"NoPressureExposure","difficult",1,NA,0,NA,60
"61",1,61,"NoPressureTest","difficult",1,1,0,3.443,373
"62",1,32,"NoPressureTest","easy",1,0,0,0.36,374
"63",1,26,"NoPressureTest","difficult",1,1,0,0.517,375
"64",1,62,"NoPressureTest","easy",1,1,0,5.801,376
"65",1,3,"NoPressureTest","easy",1,1,0,2.244,377
"66",1,46,"NoPressureTest","easy",1,0,0,0.458,378
"67",1,63,"NoPressureTest","easy",1,1,0,0.853,379
"68",1,64,"NoPressureTest","difficult",1,1,0,1.507,380
"69",1,65,"NoPressureTest","difficult",1,1,0,1.158,381
"70",1,15,"NoPressureTest","easy",1,0,0,3.158,382
"71",1,22,"NoPressureTest","easy",1,0,0,2.392,383
"72",1,16,"NoPressureTest","difficult",1,1,0,0.708,384
"73",1,66,"NoPressureTest","difficult",1,1,0,9.724,385
"74",1,67,"NoPressureTest","easy",1,0,0,0.956,386
"75",1,68,"NoPressureTest","easy",1,0,0,5.935,387
"76",1,33,"NoPressureTest","difficult",1,0,0,2.791,388
"77",1,23,"NoPressureTest","easy",1,0,0,0.472,389
"78",1,69,"NoPressureTest","easy",1,1,0,5.798,390
"79",1,70,"NoPressureTest","easy",1,1,0,1.457,391
"80",1,5,"NoPressureTest","difficult",1,1,0,0.894,392
"81",1,71,"NoPressureTest","easy",1,0,0,1.004,393
"82",1,40,"NoPressureTest","difficult",1,1,0,5.308,394
"83",1,72,"NoPressureTest","difficult",1,1,0,1.154,395
"84",1,73,"NoPressureTest","easy",1,1,0,4.402,396
"85",1,74,"NoPressureTest","easy",1,1,0,0.428,397
"86",1,53,"NoPressureTest","easy",1,1,0,0.448,398
"87",1,24,"NoPressureTest","easy",1,0,0,5.348,399
"88",1,7,"NoPressureTest","difficult",1,0,0,0.46,400
"89",1,2,"NoPressureTest","difficult",1,1,0,3.267,401
"90",1,75,"NoPressureTest","easy",1,0,0,2.095,402
"91",1,76,"NoPressureTest","difficult",1,0,0,1.744,403
"92",1,21,"NoPressureTest","easy",1,0,0,1.967,404
"93",1,35,"NoPressureTest","difficult",1,1,0,1.064,405
"94",1,77,"NoPressureTest","difficult",1,1,0,1.994,406
"95",1,30,"NoPressureTest","easy",1,1,0,0.523,407
"96",1,78,"NoPressureTest","difficult",1,0,0,0.484,408
"97",1,79,"NoPressureTest","difficult",1,0,0,2.422,409
"98",1,50,"NoPressureTest","difficult",1,1,0,1.121,410
"99",1,42,"NoPressureTest","difficult",1,0,0,5.73,411
"100",1,29,"NoPressureTest","easy",1,0,0,2.187,412
"101",1,20,"NoPressureTest","difficult",1,1,0,0.41,413
"102",1,56,"NoPressureTest","difficult",1,1,0,1.519,414
"103",1,17,"NoPressureTest","easy",1,1,0,0.368,415
"104",1,80,"NoPressureTest","difficult",1,1,0,0.511,416
"105",1,13,"NoPressureTest","easy",1,1,0,0.505,417
"106",1,9,"NoPressureTest","difficult",1,0,0,6.764,418
"107",1,14,"NoPressureTest","difficult",1,1,0,1.158,419
"108",1,44,"NoPressureTest","easy",1,0,0,1.35,420
"109",1,18,"NoPressureTest","difficult",1,0,0,9.182,421
"110",1,81,"NoPressureTest","difficult",1,1,0,5.327,422
"111",1,82,"NoPressureTest","difficult",1,1,0,2.074,423
"112",1,28,"NoPressureTest","difficult",1,1,0,4.001,424
"113",1,83,"NoPressureTest","easy",1,0,0,1.062,425
"114",1,51,"NoPressureTest","easy",1,0,0,2.336,426
"115",1,27,"NoPressureTest","difficult",1,0,0,0.935,427
"116",1,8,"NoPressureTest","difficult",1,1,0,1.587,428
"117",1,54,"NoPressureTest","difficult",1,1,0,1.358,429
"118",1,84,"NoPressureTest","difficult",1,1,0,3.072,430
"119",1,49,"NoPressureTest","difficult",1,0,0,4.265,431
"120",1,85,"NoPressureTest","difficult",1,1,0,5.938,432
"121",1,86,"NoPressureTest","easy",1,0,0,0.782,433
"122",1,47,"NoPressureTest","easy",1,1,0,0.667,434
"123",1,34,"NoPressureTest","difficult",1,0,0,0.352,435
"124",1,4,"NoPressureTest","easy",1,0,0,1.696,436
"125",1,41,"NoPressureTest","easy",1,1,0,0.507,437
"126",1,87,"NoPressureTest","difficult",1,1,0,0.73,438
"127",1,88,"NoPressureTest","difficult",1,0,0,1.794,439
"128",1,89,"NoPressureTest","easy",1,1,0,8.969,440
"129",1,90,"NoPressureTest","difficult",1,0,0,0.907,441
"130",1,25,"NoPressureTest","difficult",1,1,0,0.262,442
"131",1,48,"NoPressureTest","easy",1,1,0,0.393,443
"132",1,91,"NoPressureTest","difficult",1,1,0,0.629,444
"133",1,92,"NoPressureTest","difficult",1,0,0,4.426,445
"134",1,93,"NoPressureTest","easy",1,1,0,1.118,446
"135",1,94,"NoPressureTest","easy",1,1,0,1.005,447
"136",1,95,"NoPressureTest","easy",1,0,0,0.771,448
"137",1,55,"NoPressureTest","easy",1,0,0,1.134,449
"138",1,96,"NoPressureTest","difficult",1,1,0,4.483,450
"139",1,97,"NoPressureTest","easy",1,0,0,0.608,451
"140",1,98,"NoPressureTest","easy",1,1,0,0.661,452
"141",1,99,"NoPressureTest","easy",1,1,0,1.097,453
"142",1,100,"NoPressureTest","difficult",1,1,0,2.544,454
"143",1,101,"NoPressureTest","easy",1,0,0,0.773,455
"144",1,59,"NoPressureTest","difficult",1,1,0,2.122,456
"145",1,102,"NoPressureTest","difficult",1,1,0,0.42,457
"146",1,103,"NoPressureTest","difficult",1,1,0,0.495,458
"147",1,37,"NoPressureTest","difficult",1,0,0,1.181,459
"148",1,12,"NoPressureTest","easy",1,0,0,2.426,460
"149",1,31,"NoPressureTest","easy",1,1,0,4.811,461
"150",1,104,"NoPressureTest","easy",1,1,0,1.258,462
"151",1,105,"NoPressureTest","difficult",1,1,0,0.964,463
"152",1,106,"NoPressureTest","easy",1,1,0,2.954,464
"153",1,10,"NoPressureTest","difficult",1,1,0,0.537,465
"154",1,107,"NoPressureTest","easy",1,1,0,3.376,466
"155",1,43,"NoPressureTest","easy",1,1,0,1.799,467
"156",1,108,"NoPressureTest","easy",1,1,0,0.02,468
"157",1,39,"NoPressureTest","easy",1,1,0,2.233,469
"158",1,109,"NoPressureTest","easy",1,0,0,0.67,470
"159",1,1,"NoPressureTest","easy",1,1,0,1.04,471
"160",1,110,"NoPressureTest","easy",1,1,0,1.792,472
"161",1,111,"NoPressureTest","easy",1,1,0,0.388,473
"162",1,112,"NoPressureTest","easy",1,1,0,10.063,474
"163",1,19,"NoPressureTest","easy",1,0,0,7.325,475
"164",1,36,"NoPressureTest","difficult",1,0,0,0.632,476
"165",1,113,"NoPressureTest","difficult",1,0,0,2.518,477
"166",1,57,"NoPressureTest","easy",1,1,0,0.365,478
"167",1,114,"NoPressureTest","difficult",1,0,0,2.35,479
"168",1,115,"NoPressureTest","difficult",1,1,0,1.356,480
"169",1,45,"NoPressureTest","difficult",1,0,0,1.2,481
"170",1,116,"NoPressureTest","difficult",1,1,0,1.946,482
"171",1,117,"NoPressureTest","easy",1,1,0,1.033,483
"172",1,60,"NoPressureTest","difficult",1,0,0,1.37,484
"173",1,58,"NoPressureTest","easy",1,1,0,6.952,485
"174",1,118,"NoPressureTest","difficult",1,0,0,6.009,486
"175",1,38,"NoPressureTest","difficult",1,0,0,6.197,487
"176",1,11,"NoPressureTest","easy",1,0,0,5.717,488
"177",1,6,"NoPressureTest","easy",1,1,0,7.172,489
"178",1,52,"NoPressureTest","difficult",1,0,0,0.592,490
"179",1,119,"NoPressureTest","difficult",1,1,0,15.176,491
"180",1,120,"NoPressureTest","easy",1,1,0,1.278,492
"181",10,110,"TimePressureExposure","easy",1,NA,0,NA,1
"182",10,69,"TimePressureExposure","easy",1,NA,0,NA,2
"183",10,115,"TimePressureExposure","difficult",1,NA,0,NA,3
"184",10,65,"TimePressureExposure","difficult",1,NA,0,NA,4
"185",10,70,"TimePressureExposure","easy",1,NA,0,NA,5
"186",10,112,"TimePressureExposure","easy",1,NA,0,NA,6
"187",10,96,"TimePressureExposure","difficult",1,NA,0,NA,7
"188",10,84,"TimePressureExposure","difficult",1,NA,0,NA,8
"189",10,71,"TimePressureExposure","easy",1,NA,0,NA,9
"190",10,86,"TimePressureExposure","easy",1,NA,0,NA,10
"191",10,100,"TimePressureExposure","difficult",1,NA,0,NA,11
"192",10,85,"TimePressureExposure","difficult",1,NA,0,NA,12
"193",10,93,"TimePressureExposure","easy",1,NA,0,NA,13
"194",10,90,"TimePressureExposure","difficult",1,NA,0,NA,14
"195",10,113,"TimePressureExposure","difficult",1,NA,0,NA,15
"196",10,68,"TimePressureExposure","easy",1,NA,0,NA,16
"197",10,67,"TimePressureExposure","easy",1,NA,0,NA,17
"198",10,92,"TimePressureExposure","difficult",1,NA,0,NA,18
"199",10,89,"TimePressureExposure","easy",1,NA,0,NA,19
"200",10,91,"TimePressureExposure","difficult",1,NA,0,NA,20
"201",10,83,"TimePressureExposure","easy",1,NA,0,NA,21
"202",10,95,"TimePressureExposure","easy",1,NA,0,NA,22
"203",10,78,"TimePressureExposure","difficult",1,NA,0,NA,23
"204",10,75,"TimePressureExposure","easy",1,NA,0,NA,24
"205",10,88,"TimePressureExposure","difficult",1,NA,0,NA,25
"206",10,106,"TimePressureExposure","easy",1,NA,0,NA,26
"207",10,117,"TimePressureExposure","easy",1,NA,0,NA,27
"208",10,66,"TimePressureExposure","difficult",1,NA,0,NA,28
"209",10,99,"TimePressureExposure","easy",1,NA,0,NA,29
"210",10,87,"TimePressureExposure","difficult",1,NA,0,NA,30
"211",10,98,"TimePressureExposure","easy",1,NA,0,NA,31
"212",10,76,"TimePressureExposure","difficult",1,NA,0,NA,32
"213",10,77,"TimePressureExposure","difficult",1,NA,0,NA,33
"214",10,74,"TimePressureExposure","easy",1,NA,0,NA,34
"215",10,104,"TimePressureExposure","easy",1,NA,0,NA,35
"216",10,79,"TimePressureExposure","difficult",1,NA,0,NA,36
"217",10,105,"TimePressureExposure","difficult",1,NA,0,NA,37
"218",10,81,"TimePressureExposure","difficult",1,NA,0,NA,38
"219",10,80,"TimePressureExposure","difficult",1,NA,0,NA,39
"220",10,118,"TimePressureExposure","difficult",1,NA,0,NA,40
"221",10,63,"TimePressureExposure","easy",1,NA,0,NA,41
"222",10,107,"TimePressureExposure","easy",1,NA,0,NA,42
"223",10,101,"TimePressureExposure","easy",1,NA,0,NA,43
"224",10,102,"TimePressureExposure","difficult",1,NA,0,NA,44
"225",10,108,"TimePressureExposure","easy",1,NA,0,NA,45
"226",10,64,"TimePressureExposure","difficult",1,NA,0,NA,46
"227",10,120,"TimePressureExposure","easy",1,NA,0,NA,47
"228",10,109,"TimePressureExposure","easy",1,NA,0,NA,48
"229",10,119,"TimePressureExposure","difficult",1,NA,0,NA,49
"230",10,116,"TimePressureExposure","difficult",1,NA,0,NA,50
"231",10,94,"TimePressureExposure","easy",1,NA,0,NA,51
"232",10,62,"TimePressureExposure","easy",1,NA,0,NA,52
"233",10,72,"TimePressureExposure","difficult",1,NA,0,NA,53
"234",10,111,"TimePressureExposure","easy",1,NA,0,NA,54
"235",10,103,"TimePressureExposure","difficult",1,NA,0,NA,55
"236",10,73,"TimePressureExposure","easy",1,NA,0,NA,56
"237",10,82,"TimePressureExposure","difficult",1,NA,0,NA,57
"238",10,61,"TimePressureExposure","difficult",1,NA,0,NA,58
"239",10,114,"TimePressureExposure","difficult",1,NA,0,NA,59
"240",10,97,"TimePressureExposure","easy",1,NA,0,NA,60
"241",10,69,"TimePressureTest","easy",1,0,0,0.969,373
"242",10,63,"TimePressureTest","easy",1,1,0,0.872,374
"243",10,79,"TimePressureTest","difficult",1,0,0,0.255,375
"244",10,76,"TimePressureTest","difficult",1,1,0,0.966,376
"245",10,37,"TimePressureTest","difficult",1,0,0,0.38,377
"246",10,100,"TimePressureTest","difficult",1,NA,0,NA,378
"247",10,52,"TimePressureTest","difficult",1,1,0,0.296,379
"248",10,20,"TimePressureTest","difficult",1,0,0,0.349,380
"249",10,61,"TimePressureTest","difficult",1,1,0,0.791,381
"250",10,118,"TimePressureTest","difficult",1,NA,0,NA,382
"251",10,42,"TimePressureTest","difficult",1,0,0,0.234,383
"252",10,60,"TimePressureTest","difficult",1,0,0,0.295,384
"253",10,43,"TimePressureTest","easy",1,0,0,0.348,385
"254",10,2,"TimePressureTest","difficult",1,0,0,0.305,386
"255",10,62,"TimePressureTest","easy",1,0,0,0.684,387
"256",10,45,"TimePressureTest","difficult",1,1,0,0.814,388
"257",10,110,"TimePressureTest","easy",1,0,0,0.553,389
"258",10,83,"TimePressureTest","easy",1,0,0,0.268,390
"259",10,90,"TimePressureTest","difficult",1,1,0,0.372,391
"260",10,109,"TimePressureTest","easy",1,0,0,0.286,392
"261",10,55,"TimePressureTest","easy",1,0,0,0.809,393
"262",10,99,"TimePressureTest","easy",1,1,0,0.284,394
"263",10,102,"TimePressureTest","difficult",1,1,0,0.26,395
"264",10,98,"TimePressureTest","easy",1,0,0,0.346,396
"265",10,6,"TimePressureTest","easy",1,0,0,0.375,397
"266",10,7,"TimePressureTest","difficult",1,1,0,0.263,398
"267",10,14,"TimePressureTest","difficult",1,0,0,0.296,399
"268",10,70,"TimePressureTest","easy",1,1,0,0.307,400
"269",10,81,"TimePressureTest","difficult",1,1,0,0.465,401
"270",10,113,"TimePressureTest","difficult",1,1,0,0.522,402
"271",10,51,"TimePressureTest","easy",1,1,0,0.744,403
"272",10,15,"TimePressureTest","easy",1,1,0,0.506,404
"273",10,48,"TimePressureTest","easy",1,0,0,0.316,405
"274",10,78,"TimePressureTest","difficult",1,1,0,0.359,406
"275",10,9,"TimePressureTest","difficult",1,0,0,0.291,407
"276",10,64,"TimePressureTest","difficult",1,1,0,0.536,408
"277",10,73,"TimePressureTest","easy",1,0,0,0.38,409
"278",10,22,"TimePressureTest","easy",1,0,0,0.885,410
"279",10,85,"TimePressureTest","difficult",1,1,0,0.453,411
"280",10,77,"TimePressureTest","difficult",1,0,0,0.36,412
"281",10,68,"TimePressureTest","easy",1,1,0,0.396,413
"282",10,88,"TimePressureTest","difficult",1,1,0,0.258,414
"283",10,92,"TimePressureTest","difficult",1,1,0,0.816,415
"284",10,112,"TimePressureTest","easy",1,1,0,0.321,416
"285",10,4,"TimePressureTest","easy",1,1,0,0.527,417
"286",10,23,"TimePressureTest","easy",1,1,0,0.513,418
"287",10,114,"TimePressureTest","difficult",1,NA,0,NA,419
"288",10,116,"TimePressureTest","difficult",1,1,0,0.282,420
"289",10,16,"TimePressureTest","difficult",1,0,0,0.375,421
"290",10,65,"TimePressureTest","difficult",1,0,0,0.368,422
"291",10,53,"TimePressureTest","easy",1,0,0,0.319,423
"292",10,74,"TimePressureTest","easy",1,1,0,0.308,424
"293",10,39,"TimePressureTest","easy",1,1,0,0.283,425
"294",10,29,"TimePressureTest","easy",1,1,0,0.573,426
"295",10,12,"TimePressureTest","easy",1,0,0,0.531,427
"296",10,38,"TimePressureTest","difficult",1,0,0,0.471,428
"297",10,26,"TimePressureTest","difficult",1,1,0,0.392,429
"298",10,35,"TimePressureTest","difficult",1,0,0,0.793,430
"299",10,36,"TimePressureTest","difficult",1,0,0,0.33,431
"300",10,104,"TimePressureTest","easy",1,1,0,0.255,432
"301",10,86,"TimePressureTest","easy",1,1,0,0.892,433
"302",10,19,"TimePressureTest","easy",1,1,0,0.863,434
"303",10,47,"TimePressureTest","easy",1,1,0,0.3,435
"304",10,71,"TimePressureTest","easy",1,0,0,0.213,436
"305",10,50,"TimePressureTest","difficult",1,1,0,0.402,437
"306",10,1,"TimePressureTest","easy",1,1,0,0.256,438
"307",10,41,"TimePressureTest","easy",1,1,0,0.261,439
"308",10,84,"TimePressureTest","difficult",1,0,0,0.451,440
"309",10,82,"TimePressureTest","difficult",1,1,0,0.311,441
"310",10,95,"TimePressureTest","easy",1,0,0,0.324,442
"311",10,18,"TimePressureTest","difficult",1,1,0,0.425,443
"312",10,5,"TimePressureTest","difficult",1,1,0,0.454,444
"313",10,25,"TimePressureTest","difficult",1,0,0,0.3,445
"314",10,21,"TimePressureTest","easy",1,1,0,0.414,446
"315",10,94,"TimePressureTest","easy",1,1,0,0.266,447
"316",10,24,"TimePressureTest","easy",1,1,0,0.308,448
"317",10,44,"TimePressureTest","easy",1,0,0,0.669,449
"318",10,89,"TimePressureTest","easy",1,0,0,0.356,450
"319",10,80,"TimePressureTest","difficult",1,0,0,0.957,451
"320",10,49,"TimePressureTest","difficult",1,1,0,0.639,452
"321",10,56,"TimePressureTest","difficult",1,0,0,0.313,453
"322",10,17,"TimePressureTest","easy",1,1,0,0.268,454
"323",10,107,"TimePressureTest","easy",1,1,0,0.52,455
"324",10,111,"TimePressureTest","easy",1,0,0,0.369,456
"325",10,11,"TimePressureTest","easy",1,0,0,0.232,457
"326",10,72,"TimePressureTest","difficult",1,1,0,0.329,458
"327",10,59,"TimePressureTest","difficult",1,0,0,0.233,459
"328",10,58,"TimePressureTest","easy",1,1,0,0.317,460
"329",10,32,"TimePressureTest","easy",1,0,0,0.278,461
"330",10,8,"TimePressureTest","difficult",1,0,0,0.289,462
"331",10,31,"TimePressureTest","easy",1,1,0,0.241,463
"332",10,46,"TimePressureTest","easy",1,1,0,0.449,464
"333",10,75,"TimePressureTest","easy",1,1,0,0.39,465
"334",10,33,"TimePressureTest","difficult",1,1,0,0.515,466
"335",10,34,"TimePressureTest","difficult",1,0,0,0.171,467
"336",10,28,"TimePressureTest","difficult",1,1,0,0.139,468
"337",10,115,"TimePressureTest","difficult",1,1,0,0.639,469
"338",10,40,"TimePressureTest","difficult",1,0,0,0.278,470
"339",10,120,"TimePressureTest","easy",1,1,0,0.302,471
"340",10,105,"TimePressureTest","difficult",1,1,0,0.767,472
"341",10,97,"TimePressureTest","easy",1,0,0,0.439,473
"342",10,119,"TimePressureTest","difficult",1,1,0,0.377,474
"343",10,3,"TimePressureTest","easy",1,0,0,0.495,475
"344",10,66,"TimePressureTest","difficult",1,0,0,0.735,476
"345",10,10,"TimePressureTest","difficult",1,0,0,0.514,477
"346",10,54,"TimePressureTest","difficult",1,1,0,0.409,478
"347",10,27,"TimePressureTest","difficult",1,0,0,0.403,479
"348",10,101,"TimePressureTest","easy",1,0,0,0.235,480
"349",10,67,"TimePressureTest","easy",1,0,0,0.494,481
"350",10,30,"TimePressureTest","easy",1,0,0,0.23,482
"351",10,57,"TimePressureTest","easy",1,0,0,0.267,483
"352",10,91,"TimePressureTest","difficult",1,0,0,0.249,484
"353",10,108,"TimePressureTest","easy",1,0,0,0.92,485
"354",10,117,"TimePressureTest","easy",1,1,0,0.306,486
"355",10,106,"TimePressureTest","easy",1,0,0,0.84,487
"356",10,93,"TimePressureTest","easy",1,1,0,0.42,488
"357",10,87,"TimePressureTest","difficult",1,0,0,0.376,489
"358",10,103,"TimePressureTest","difficult",1,1,0,0.231,490
"359",10,13,"TimePressureTest","easy",1,1,0,0.324,491
"360",10,96,"TimePressureTest","difficult",1,0,0,0.277,492
"361",11,84,"TimePressureExposure","difficult",1,NA,0,NA,1
"362",11,67,"TimePressureExposure","easy",1,NA,0,NA,2
"363",11,87,"TimePressureExposure","difficult",1,NA,0,NA,3
"364",11,75,"TimePressureExposure","easy",1,NA,0,NA,4
"365",11,89,"TimePressureExposure","easy",1,NA,0,NA,5
"366",11,115,"TimePressureExposure","difficult",1,NA,0,NA,6
"367",11,111,"TimePressureExposure","easy",1,NA,0,NA,7
"368",11,99,"TimePressureExposure","easy",1,NA,0,NA,8
"369",11,78,"TimePressureExposure","difficult",1,NA,0,NA,9
"370",11,101,"TimePressureExposure","easy",1,NA,0,NA,10
"371",11,116,"TimePressureExposure","difficult",1,NA,0,NA,11
"372",11,113,"TimePressureExposure","difficult",1,NA,0,NA,12
"373",11,69,"TimePressureExposure","easy",1,NA,0,NA,13
"374",11,103,"TimePressureExposure","difficult",1,NA,0,NA,14
"375",11,61,"TimePressureExposure","difficult",1,NA,0,NA,15
"376",11,94,"TimePressureExposure","easy",1,NA,0,NA,16
"377",11,73,"TimePressureExposure","easy",1,NA,0,NA,17
"378",11,91,"TimePressureExposure","difficult",1,NA,0,NA,18
"379",11,109,"TimePressureExposure","easy",1,NA,0,NA,19
"380",11,118,"TimePressureExposure","difficult",1,NA,0,NA,20
"381",11,90,"TimePressureExposure","difficult",1,NA,0,NA,21
"382",11,82,"TimePressureExposure","difficult",1,NA,0,NA,22
"383",11,88,"TimePressureExposure","difficult",1,NA,0,NA,23
"384",11,83,"TimePressureExposure","easy",1,NA,0,NA,24
"385",11,77,"TimePressureExposure","difficult",1,NA,0,NA,25
"386",11,95,"TimePressureExposure","easy",1,NA,0,NA,26
"387",11,76,"TimePressureExposure","difficult",1,NA,0,NA,27
"388",11,106,"TimePressureExposure","easy",1,NA,0,NA,28
"389",11,71,"TimePressureExposure","easy",1,NA,0,NA,29
"390",11,117,"TimePressureExposure","easy",1,NA,0,NA,30
"391",11,81,"TimePressureExposure","difficult",1,NA,0,NA,31
"392",11,120,"TimePressureExposure","easy",1,NA,0,NA,32
"393",11,100,"TimePressureExposure","difficult",1,NA,0,NA,33
"394",11,98,"TimePressureExposure","easy",1,NA,0,NA,34
"395",11,79,"TimePressureExposure","difficult",1,NA,0,NA,35
"396",11,107,"TimePressureExposure","easy",1,NA,0,NA,36
"397",11,63,"TimePressureExposure","easy",1,NA,0,NA,37
"398",11,104,"TimePressureExposure","easy",1,NA,0,NA,38
"399",11,93,"TimePressureExposure","easy",1,NA,0,NA,39
"400",11,108,"TimePressureExposure","easy",1,NA,0,NA,40
"401",11,74,"TimePressureExposure","easy",1,NA,0,NA,41
"402",11,65,"TimePressureExposure","difficult",1,NA,0,NA,42
"403",11,62,"TimePressureExposure","easy",1,NA,0,NA,43
"404",11,92,"TimePressureExposure","difficult",1,NA,0,NA,44
"405",11,68,"TimePressureExposure","easy",1,NA,0,NA,45
"406",11,114,"TimePressureExposure","difficult",1,NA,0,NA,46
"407",11,86,"TimePressureExposure","easy",1,NA,0,NA,47
"408",11,119,"TimePressureExposure","difficult",1,NA,0,NA,48
"409",11,72,"TimePressureExposure","difficult",1,NA,0,NA,49
"410",11,64,"TimePressureExposure","difficult",1,NA,0,NA,50
"411",11,66,"TimePressureExposure","difficult",1,NA,0,NA,51
"412",11,85,"TimePressureExposure","difficult",1,NA,0,NA,52
"413",11,80,"TimePressureExposure","difficult",1,NA,0,NA,53
"414",11,110,"TimePressureExposure","easy",1,NA,0,NA,54
"415",11,112,"TimePressureExposure","easy",1,NA,0,NA,55
"416",11,105,"TimePressureExposure","difficult",1,NA,0,NA,56
"417",11,102,"TimePressureExposure","difficult",1,NA,0,NA,57
"418",11,97,"TimePressureExposure","easy",1,NA,0,NA,58
"419",11,70,"TimePressureExposure","easy",1,NA,0,NA,59
"420",11,96,"TimePressureExposure","difficult",1,NA,0,NA,60
"421",11,94,"TimePressureTest","easy",1,NA,0,NA,373
"422",11,53,"TimePressureTest","easy",1,1,0,0.632,374
"423",11,4,"TimePressureTest","easy",1,0,0,0.958,375
"424",11,109,"TimePressureTest","easy",1,0,0,0.648,376
"425",11,107,"TimePressureTest","easy",1,0,0,0.913,377
"426",11,11,"TimePressureTest","easy",1,NA,0,NA,378
"427",11,100,"TimePressureTest","difficult",1,NA,0,NA,379
"428",11,97,"TimePressureTest","easy",1,0,0,0.804,380
"429",11,52,"TimePressureTest","difficult",1,1,0,0.353,381
"430",11,70,"TimePressureTest","easy",1,NA,0,NA,382
"431",11,23,"TimePressureTest","easy",1,0,0,0.448,383
"432",11,2,"TimePressureTest","difficult",1,NA,0,NA,384
"433",11,34,"TimePressureTest","difficult",1,1,0,0.557,385
"434",11,80,"TimePressureTest","difficult",1,1,0,0.511,386
"435",11,104,"TimePressureTest","easy",1,1,0,0.98,387
"436",11,25,"TimePressureTest","difficult",1,0,0,0.822,388
"437",11,42,"TimePressureTest","difficult",1,1,0,0.701,389
"438",11,3,"TimePressureTest","easy",1,0,0,0.85,390
"439",11,71,"TimePressureTest","easy",1,0,0,0.235,391
"440",11,6,"TimePressureTest","easy",1,1,0,0.408,392
"441",11,89,"TimePressureTest","easy",1,1,0,0.924,393
"442",11,18,"TimePressureTest","difficult",1,NA,0,NA,394
"443",11,9,"TimePressureTest","difficult",1,NA,0,NA,395
"444",11,44,"TimePressureTest","easy",1,1,0,0.844,396
"445",11,41,"TimePressureTest","easy",1,1,0,0.424,397
"446",11,21,"TimePressureTest","easy",1,1,0,0.764,398
"447",11,46,"TimePressureTest","easy",1,1,0,0.935,399
"448",11,72,"TimePressureTest","difficult",1,0,0,0.884,400
"449",11,30,"TimePressureTest","easy",1,NA,0,NA,401
"450",11,108,"TimePressureTest","easy",1,1,0,0.902,402
"451",11,83,"TimePressureTest","easy",1,NA,0,NA,403
"452",11,61,"TimePressureTest","difficult",1,0,0,0.453,404
"453",11,87,"TimePressureTest","difficult",1,0,0,0.376,405
"454",11,62,"TimePressureTest","easy",1,0,0,0.595,406
"455",11,15,"TimePressureTest","easy",1,1,0,0.899,407
"456",11,45,"TimePressureTest","difficult",1,0,0,0.563,408
"457",11,73,"TimePressureTest","easy",1,NA,0,NA,409
"458",11,103,"TimePressureTest","difficult",1,NA,0,NA,410
"459",11,74,"TimePressureTest","easy",1,0,0,0.854,411
"460",11,59,"TimePressureTest","difficult",1,NA,0,NA,412
"461",11,48,"TimePressureTest","easy",1,0,0,0.727,413
"462",11,65,"TimePressureTest","difficult",1,0,0,0.479,414
"463",11,92,"TimePressureTest","difficult",1,NA,0,NA,415
"464",11,35,"TimePressureTest","difficult",1,1,0,0.351,416
"465",11,91,"TimePressureTest","difficult",1,1,0,0.761,417
"466",11,29,"TimePressureTest","easy",1,NA,0,NA,418
"467",11,79,"TimePressureTest","difficult",1,NA,0,NA,419
"468",11,117,"TimePressureTest","easy",1,0,0,0.668,420
"469",11,95,"TimePressureTest","easy",1,0,0,0.406,421
"470",11,32,"TimePressureTest","easy",1,0,0,0.536,422
"471",11,119,"TimePressureTest","difficult",1,1,0,0.326,423
"472",11,77,"TimePressureTest","difficult",1,0,0,0.415,424
"473",11,36,"TimePressureTest","difficult",1,0,0,0.541,425
"474",11,37,"TimePressureTest","difficult",1,NA,0,NA,426
"475",11,57,"TimePressureTest","easy",1,0,0,0.753,427
"476",11,12,"TimePressureTest","easy",1,0,0,0.584,428
"477",11,56,"TimePressureTest","difficult",1,1,0,0.644,429
"478",11,31,"TimePressureTest","easy",1,0,0,0.87,430
"479",11,86,"TimePressureTest","easy",1,0,0,0.441,431
"480",11,81,"TimePressureTest","difficult",1,1,0,0.511,432
"481",11,28,"TimePressureTest","difficult",1,NA,0,NA,433
"482",11,93,"TimePressureTest","easy",1,0,0,0.671,434
"483",11,17,"TimePressureTest","easy",1,NA,0,NA,435
"484",11,63,"TimePressureTest","easy",1,1,0,0.377,436
"485",11,50,"TimePressureTest","difficult",1,0,0,0.715,437
"486",11,24,"TimePressureTest","easy",1,1,0,0.451,438
"487",11,54,"TimePressureTest","difficult",1,1,0,0.559,439
"488",11,26,"TimePressureTest","difficult",1,NA,0,NA,440
"489",11,75,"TimePressureTest","easy",1,NA,0,NA,441
"490",11,39,"TimePressureTest","easy",1,1,0,0.308,442
"491",11,102,"TimePressureTest","difficult",1,0,0,0.986,443
"492",11,85,"TimePressureTest","difficult",1,0,0,0.648,444
"493",11,115,"TimePressureTest","difficult",1,NA,0,NA,445
"494",11,120,"TimePressureTest","easy",1,1,0,0.817,446
"495",11,110,"TimePressureTest","easy",1,NA,0,NA,447
"496",11,10,"TimePressureTest","difficult",1,0,0,0.598,448
"497",11,16,"TimePressureTest","difficult",1,1,0,0.624,449
"498",11,78,"TimePressureTest","difficult",1,NA,0,NA,450
"499",11,14,"TimePressureTest","difficult",1,1,0,0.74,451
"500",11,105,"TimePressureTest","difficult",1,0,0,0.589,452
"501",11,7,"TimePressureTest","difficult",1,NA,0,NA,453
"502",11,90,"TimePressureTest","difficult",1,1,0,0.252,454
"503",11,118,"TimePressureTest","difficult",1,1,0,0.985,455
"504",11,68,"TimePressureTest","easy",1,NA,0,NA,456
"505",11,99,"TimePressureTest","easy",1,NA,0,NA,457
"506",11,101,"TimePressureTest","easy",1,0,0,0.825,458
"507",11,27,"TimePressureTest","difficult",1,NA,0,NA,459
"508",11,106,"TimePressureTest","easy",1,0,0,0.571,460
"509",11,69,"TimePressureTest","easy",1,0,0,0.585,461
"510",11,64,"TimePressureTest","difficult",1,NA,0,NA,462
"511",11,67,"TimePressureTest","easy",1,NA,0,NA,463
"512",11,111,"TimePressureTest","easy",1,0,0,0.53,464
"513",11,84,"TimePressureTest","difficult",1,0,0,0.485,465
"514",11,38,"TimePressureTest","difficult",1,0,0,0.57,466
"515",11,33,"TimePressureTest","difficult",1,1,0,0.672,467
"516",11,96,"TimePressureTest","difficult",1,0,0,0.419,468
"517",11,60,"TimePressureTest","difficult",1,1,0,0.382,469
"518",11,20,"TimePressureTest","difficult",1,0,0,0.862,470
"519",11,88,"TimePressureTest","difficult",1,0,0,0.41,471
"520",11,76,"TimePressureTest","difficult",1,NA,0,NA,472
"521",11,112,"TimePressureTest","easy",1,1,0,0.322,473
"522",11,82,"TimePressureTest","difficult",1,0,0,0.788,474
"523",11,98,"TimePressureTest","easy",1,0,0,0.885,475
"524",11,22,"TimePressureTest","easy",1,NA,0,NA,476
"525",11,8,"TimePressureTest","difficult",1,0,0,0.4,477
"526",11,47,"TimePressureTest","easy",1,1,0,0.374,478
"527",11,58,"TimePressureTest","easy",1,1,0,0.444,479
"528",11,1,"TimePressureTest","easy",1,1,0,0.86,480
"529",11,40,"TimePressureTest","difficult",1,0,0,0.704,481
"530",11,51,"TimePressureTest","easy",1,NA,0,NA,482
"531",11,55,"TimePressureTest","easy",1,NA,0,NA,483
"532",11,114,"TimePressureTest","difficult",1,1,0,0.787,484
"533",11,49,"TimePressureTest","difficult",1,1,0,0.49,485
"534",11,13,"TimePressureTest","easy",1,0,0,0.766,486
"535",11,19,"TimePressureTest","easy",1,1,0,0.408,487
"536",11,66,"TimePressureTest","difficult",1,0,0,0.453,488
"537",11,5,"TimePressureTest","difficult",1,1,0,0.437,489
"538",11,43,"TimePressureTest","easy",1,0,0,0.645,490
"539",11,116,"TimePressureTest","difficult",1,0,0,0.844,491
"540",11,113,"TimePressureTest","difficult",1,0,0,0.464,492
"541",12,120,"NoPressureExposure","easy",1,NA,0,NA,1
"542",12,78,"NoPressureExposure","difficult",1,NA,0,NA,2
"543",12,116,"NoPressureExposure","difficult",1,NA,0,NA,3
"544",12,83,"NoPressureExposure","easy",1,NA,0,NA,4
"545",12,70,"NoPressureExposure","easy",1,NA,0,NA,5
"546",12,114,"NoPressureExposure","difficult",1,NA,0,NA,6
"547",12,118,"NoPressureExposure","difficult",1,NA,0,NA,7
"548",12,77,"NoPressureExposure","difficult",1,NA,0,NA,8
"549",12,64,"NoPressureExposure","difficult",1,NA,0,NA,9
"550",12,68,"NoPressureExposure","easy",1,NA,0,NA,10
"551",12,61,"NoPressureExposure","difficult",1,NA,0,NA,11
"552",12,98,"NoPressureExposure","easy",1,NA,0,NA,12
"553",12,119,"NoPressureExposure","difficult",1,NA,0,NA,13
"554",12,84,"NoPressureExposure","difficult",1,NA,0,NA,14
"555",12,109,"NoPressureExposure","easy",1,NA,0,NA,15
"556",12,102,"NoPressureExposure","difficult",1,NA,0,NA,16
"557",12,111,"NoPressureExposure","easy",1,NA,0,NA,17
"558",12,113,"NoPressureExposure","difficult",1,NA,0,NA,18
"559",12,86,"NoPressureExposure","easy",1,NA,0,NA,19
"560",12,115,"NoPressureExposure","difficult",1,NA,0,NA,20
"561",12,71,"NoPressureExposure","easy",1,NA,0,NA,21
"562",12,79,"NoPressureExposure","difficult",1,NA,0,NA,22
"563",12,89,"NoPressureExposure","easy",1,NA,0,NA,23
"564",12,94,"NoPressureExposure","easy",1,NA,0,NA,24
"565",12,74,"NoPressureExposure","easy",1,NA,0,NA,25
"566",12,92,"NoPressureExposure","difficult",1,NA,0,NA,26
"567",12,105,"NoPressureExposure","difficult",1,NA,0,NA,27
"568",12,96,"NoPressureExposure","difficult",1,NA,0,NA,28
"569",12,95,"NoPressureExposure","easy",1,NA,0,NA,29
"570",12,66,"NoPressureExposure","difficult",1,NA,0,NA,30
"571",12,80,"NoPressureExposure","difficult",1,NA,0,NA,31
"572",12,107,"NoPressureExposure","easy",1,NA,0,NA,32
"573",12,112,"NoPressureExposure","easy",1,NA,0,NA,33
"574",12,97,"NoPressureExposure","easy",1,NA,0,NA,34
"575",12,69,"NoPressureExposure","easy",1,NA,0,NA,35
"576",12,73,"NoPressureExposure","easy",1,NA,0,NA,36
"577",12,99,"NoPressureExposure","easy",1,NA,0,NA,37
"578",12,110,"NoPressureExposure","easy",1,NA,0,NA,38
"579",12,81,"NoPressureExposure","difficult",1,NA,0,NA,39
"580",12,85,"NoPressureExposure","difficult",1,NA,0,NA,40
"581",12,117,"NoPressureExposure","easy",1,NA,0,NA,41
"582",12,93,"NoPressureExposure","easy",1,NA,0,NA,42
"583",12,62,"NoPressureExposure","easy",1,NA,0,NA,43
"584",12,87,"NoPressureExposure","difficult",1,NA,0,NA,44
"585",12,63,"NoPressureExposure","easy",1,NA,0,NA,45
"586",12,108,"NoPressureExposure","easy",1,NA,0,NA,46
"587",12,90,"NoPressureExposure","difficult",1,NA,0,NA,47
"588",12,72,"NoPressureExposure","difficult",1,NA,0,NA,48
"589",12,67,"NoPressureExposure","easy",1,NA,0,NA,49
"590",12,100,"NoPressureExposure","difficult",1,NA,0,NA,50
"591",12,101,"NoPressureExposure","easy",1,NA,0,NA,51
"592",12,104,"NoPressureExposure","easy",1,NA,0,NA,52
"593",12,91,"NoPressureExposure","difficult",1,NA,0,NA,53
"594",12,106,"NoPressureExposure","easy",1,NA,0,NA,54
"595",12,65,"NoPressureExposure","difficult",1,NA,0,NA,55
"596",12,88,"NoPressureExposure","difficult",1,NA,0,NA,56
"597",12,103,"NoPressureExposure","difficult",1,NA,0,NA,57
"598",12,75,"NoPressureExposure","easy",1,NA,0,NA,58
"599",12,76,"NoPressureExposure","difficult",1,NA,0,NA,59
"600",12,82,"NoPressureExposure","difficult",1,NA,0,NA,60
"601",12,86,"NoPressureTest","easy",1,1,0,0.247,373
"602",12,31,"NoPressureTest","easy",1,1,0,1.395,374
"603",12,62,"NoPressureTest","easy",1,0,0,0.375,375
"604",12,63,"NoPressureTest","easy",1,0,0,2.2,376
"605",12,25,"NoPressureTest","difficult",1,0,0,2.675,377
"606",12,45,"NoPressureTest","difficult",1,1,0,0.337,378
"607",12,60,"NoPressureTest","difficult",1,0,0,0.355,379
"608",12,36,"NoPressureTest","difficult",1,1,0,2.64,380
"609",12,110,"NoPressureTest","easy",1,0,0,0.559,381
"610",12,39,"NoPressureTest","easy",1,1,0,1.569,382
"611",12,38,"NoPressureTest","difficult",1,0,0,1.539,383
"612",12,80,"NoPressureTest","difficult",1,1,0,0.527,384
"613",12,21,"NoPressureTest","easy",1,1,0,0.346,385
"614",12,15,"NoPressureTest","easy",1,1,0,1.343,386
"615",12,99,"NoPressureTest","easy",1,1,0,0.576,387
"616",12,101,"NoPressureTest","easy",1,0,0,0.379,388
"617",12,44,"NoPressureTest","easy",1,0,0,0.264,389
"618",12,40,"NoPressureTest","difficult",1,0,0,0.474,390
"619",12,18,"NoPressureTest","difficult",1,1,0,1.108,391
"620",12,26,"NoPressureTest","difficult",1,1,0,4.831,392
"621",12,103,"NoPressureTest","difficult",1,1,0,0.262,393
"622",12,94,"NoPressureTest","easy",1,0,0,0.328,394
"623",12,67,"NoPressureTest","easy",1,0,0,0.122,395
"624",12,92,"NoPressureTest","difficult",1,0,0,0.217,396
"625",12,49,"NoPressureTest","difficult",1,1,0,1.61,397
"626",12,33,"NoPressureTest","difficult",1,0,0,0.107,398
"627",12,16,"NoPressureTest","difficult",1,0,0,2.205,399
"628",12,56,"NoPressureTest","difficult",1,1,0,0.795,400
"629",12,72,"NoPressureTest","difficult",1,1,0,0.574,401
"630",12,52,"NoPressureTest","difficult",1,1,0,0.338,402
"631",12,2,"NoPressureTest","difficult",1,0,0,4.522,403
"632",12,13,"NoPressureTest","easy",1,1,0,0.375,404
"633",12,42,"NoPressureTest","difficult",1,1,0,5.883,405
"634",12,12,"NoPressureTest","easy",1,0,0,4.517,406
"635",12,17,"NoPressureTest","easy",1,1,0,1.106,407
"636",12,90,"NoPressureTest","difficult",1,0,0,1.129,408
"637",12,71,"NoPressureTest","easy",1,0,0,0.426,409
"638",12,34,"NoPressureTest","difficult",1,1,0,0.315,410
"639",12,105,"NoPressureTest","difficult",1,1,0,4.056,411
"640",12,59,"NoPressureTest","difficult",1,1,0,5.239,412
"641",12,53,"NoPressureTest","easy",1,1,0,0.622,413
"642",12,61,"NoPressureTest","difficult",1,0,0,0.371,414
"643",12,7,"NoPressureTest","difficult",1,0,0,2.204,415
"644",12,84,"NoPressureTest","difficult",1,1,0,0.303,416
"645",12,51,"NoPressureTest","easy",1,0,0,3.34,417
"646",12,8,"NoPressureTest","difficult",1,1,0,2.464,418
"647",12,57,"NoPressureTest","easy",1,0,0,1.062,419
"648",12,9,"NoPressureTest","difficult",1,1,0,0.864,420
"649",12,120,"NoPressureTest","easy",1,1,0,3.444,421
"650",12,116,"NoPressureTest","difficult",1,1,0,1.58,422
"651",12,14,"NoPressureTest","difficult",1,1,0,3.332,423
"652",12,64,"NoPressureTest","difficult",1,0,0,0.127,424
"653",12,112,"NoPressureTest","easy",1,1,0,0.549,425
"654",12,111,"NoPressureTest","easy",1,1,0,0.118,426
"655",12,74,"NoPressureTest","easy",1,0,0,0.883,427
"656",12,5,"NoPressureTest","difficult",1,1,0,2.742,428
"657",12,98,"NoPressureTest","easy",1,0,0,1.346,429
"658",12,85,"NoPressureTest","difficult",1,0,0,2.283,430
"659",12,97,"NoPressureTest","easy",1,1,0,0.291,431
"660",12,37,"NoPressureTest","difficult",1,0,0,1.279,432
"661",12,3,"NoPressureTest","easy",1,1,0,2.469,433
"662",12,88,"NoPressureTest","difficult",1,1,0,1.139,434
"663",12,48,"NoPressureTest","easy",1,1,0,0.445,435
"664",12,58,"NoPressureTest","easy",1,0,0,0.547,436
"665",12,79,"NoPressureTest","difficult",1,0,0,0.7,437
"666",12,24,"NoPressureTest","easy",1,0,0,0.298,438
"667",12,77,"NoPressureTest","difficult",1,0,0,2.086,439
"668",12,78,"NoPressureTest","difficult",1,1,0,1.27,440
"669",12,46,"NoPressureTest","easy",1,1,0,2.631,441
"670",12,118,"NoPressureTest","difficult",1,1,0,2.814,442
"671",12,22,"NoPressureTest","easy",1,0,0,2.95,443
"672",12,113,"NoPressureTest","difficult",1,0,0,1.382,444
"673",12,68,"NoPressureTest","easy",1,0,0,0.377,445
"674",12,1,"NoPressureTest","easy",1,1,0,0.396,446
"675",12,27,"NoPressureTest","difficult",1,0,0,0.209,447
"676",12,11,"NoPressureTest","easy",1,0,0,0.382,448
"677",12,69,"NoPressureTest","easy",1,0,0,2.251,449
"678",12,43,"NoPressureTest","easy",1,1,0,0.339,450
"679",12,81,"NoPressureTest","difficult",1,0,0,6.608,451
"680",12,117,"NoPressureTest","easy",1,0,0,1.883,452
"681",12,28,"NoPressureTest","difficult",1,1,0,0.289,453
"682",12,107,"NoPressureTest","easy",1,1,0,0.345,454
"683",12,89,"NoPressureTest","easy",1,1,0,0.433,455
"684",12,115,"NoPressureTest","difficult",1,0,0,0.881,456
"685",12,20,"NoPressureTest","difficult",1,0,0,0.353,457
"686",12,109,"NoPressureTest","easy",1,1,0,1.193,458
"687",12,76,"NoPressureTest","difficult",1,1,0,0.398,459
"688",12,19,"NoPressureTest","easy",1,1,0,0.921,460
"689",12,6,"NoPressureTest","easy",1,1,0,2.358,461
"690",12,75,"NoPressureTest","easy",1,0,0,0.129,462
"691",12,41,"NoPressureTest","easy",1,1,0,0.03,463
"692",12,114,"NoPressureTest","difficult",1,0,0,1.369,464
"693",12,54,"NoPressureTest","difficult",1,0,0,0.375,465
"694",12,108,"NoPressureTest","easy",1,0,0,0.37,466
"695",12,93,"NoPressureTest","easy",1,1,0,0.308,467
"696",12,66,"NoPressureTest","difficult",1,0,0,0.353,468
"697",12,47,"NoPressureTest","easy",1,1,0,0.252,469
"698",12,106,"NoPressureTest","easy",1,1,0,0.47,470
"699",12,4,"NoPressureTest","easy",1,0,0,0.75,471
"700",12,102,"NoPressureTest","difficult",1,0,0,0.252,472
"701",12,10,"NoPressureTest","difficult",1,0,0,0.327,473
"702",12,87,"NoPressureTest","difficult",1,1,0,0.656,474
"703",12,35,"NoPressureTest","difficult",1,1,0,1.692,475
"704",12,30,"NoPressureTest","easy",1,1,0,2.102,476
"705",12,55,"NoPressureTest","easy",1,0,0,0.316,477
"706",12,82,"NoPressureTest","difficult",1,1,0,3.161,478
"707",12,96,"NoPressureTest","difficult",1,0,0,1.484,479
"708",12,119,"NoPressureTest","difficult",1,1,0,0.791,480
"709",12,83,"NoPressureTest","easy",1,0,0,0.275,481
"710",12,32,"NoPressureTest","easy",1,0,0,0.615,482
"711",12,100,"NoPressureTest","difficult",1,0,0,0.755,483
"712",12,91,"NoPressureTest","difficult",1,0,0,0.558,484
"713",12,95,"NoPressureTest","easy",1,0,0,5.724,485
"714",12,104,"NoPressureTest","easy",1,1,0,0.34,486
"715",12,65,"NoPressureTest","difficult",1,1,0,1.661,487
"716",12,50,"NoPressureTest","difficult",1,0,0,1.743,488
"717",12,29,"NoPressureTest","easy",1,0,0,0.673,489
"718",12,73,"NoPressureTest","easy",1,0,0,6.899,490
"719",12,23,"NoPressureTest","easy",1,1,0,0.333,491
"720",12,70,"NoPressureTest","easy",1,1,0,0.567,492
"721",13,43,"NoPressureExposure","easy",1,NA,0,NA,1
"722",13,29,"NoPressureExposure","easy",1,NA,0,NA,2
"723",13,12,"NoPressureExposure","easy",1,NA,0,NA,3
"724",13,15,"NoPressureExposure","easy",1,NA,0,NA,4
"725",13,60,"NoPressureExposure","difficult",1,NA,0,NA,5
"726",13,26,"NoPressureExposure","difficult",1,NA,0,NA,6
"727",13,7,"NoPressureExposure","difficult",1,NA,0,NA,7
"728",13,30,"NoPressureExposure","easy",1,NA,0,NA,8
"729",13,56,"NoPressureExposure","difficult",1,NA,0,NA,9
"730",13,34,"NoPressureExposure","difficult",1,NA,0,NA,10
"731",13,31,"NoPressureExposure","easy",1,NA,0,NA,11
"732",13,6,"NoPressureExposure","easy",1,NA,0,NA,12
"733",13,11,"NoPressureExposure","easy",1,NA,0,NA,13
"734",13,2,"NoPressureExposure","difficult",1,NA,0,NA,14
"735",13,1,"NoPressureExposure","easy",1,NA,0,NA,15
"736",13,9,"NoPressureExposure","difficult",1,NA,0,NA,16
"737",13,47,"NoPressureExposure","easy",1,NA,0,NA,17
"738",13,38,"NoPressureExposure","difficult",1,NA,0,NA,18
"739",13,48,"NoPressureExposure","easy",1,NA,0,NA,19
"740",13,49,"NoPressureExposure","difficult",1,NA,0,NA,20
"741",13,41,"NoPressureExposure","easy",1,NA,0,NA,21
"742",13,36,"NoPressureExposure","difficult",1,NA,0,NA,22
"743",13,52,"NoPressureExposure","difficult",1,NA,0,NA,23
"744",13,46,"NoPressureExposure","easy",1,NA,0,NA,24
"745",13,19,"NoPressureExposure","easy",1,NA,0,NA,25
"746",13,50,"NoPressureExposure","difficult",1,NA,0,NA,26
"747",13,44,"NoPressureExposure","easy",1,NA,0,NA,27
"748",13,8,"NoPressureExposure","difficult",1,NA,0,NA,28
"749",13,28,"NoPressureExposure","difficult",1,NA,0,NA,29
"750",13,4,"NoPressureExposure","easy",1,NA,0,NA,30
"751",13,57,"NoPressureExposure","easy",1,NA,0,NA,31
"752",13,24,"NoPressureExposure","easy",1,NA,0,NA,32
"753",13,27,"NoPressureExposure","difficult",1,NA,0,NA,33
"754",13,32,"NoPressureExposure","easy",1,NA,0,NA,34
"755",13,45,"NoPressureExposure","difficult",1,NA,0,NA,35
"756",13,5,"NoPressureExposure","difficult",1,NA,0,NA,36
"757",13,58,"NoPressureExposure","easy",1,NA,0,NA,37
"758",13,22,"NoPressureExposure","easy",1,NA,0,NA,38
"759",13,13,"NoPressureExposure","easy",1,NA,0,NA,39
"760",13,21,"NoPressureExposure","easy",1,NA,0,NA,40
"761",13,23,"NoPressureExposure","easy",1,NA,0,NA,41
"762",13,54,"NoPressureExposure","difficult",1,NA,0,NA,42
"763",13,18,"NoPressureExposure","difficult",1,NA,0,NA,43
"764",13,55,"NoPressureExposure","easy",1,NA,0,NA,44
"765",13,16,"NoPressureExposure","difficult",1,NA,0,NA,45
"766",13,51,"NoPressureExposure","easy",1,NA,0,NA,46
"767",13,35,"NoPressureExposure","difficult",1,NA,0,NA,47
"768",13,59,"NoPressureExposure","difficult",1,NA,0,NA,48
"769",13,14,"NoPressureExposure","difficult",1,NA,0,NA,49
"770",13,40,"NoPressureExposure","difficult",1,NA,0,NA,50
"771",13,39,"NoPressureExposure","easy",1,NA,0,NA,51
"772",13,17,"NoPressureExposure","easy",1,NA,0,NA,52
"773",13,53,"NoPressureExposure","easy",1,NA,0,NA,53
"774",13,37,"NoPressureExposure","difficult",1,NA,0,NA,54
"775",13,42,"NoPressureExposure","difficult",1,NA,0,NA,55
"776",13,10,"NoPressureExposure","difficult",1,NA,0,NA,56
"777",13,33,"NoPressureExposure","difficult",1,NA,0,NA,57
"778",13,25,"NoPressureExposure","difficult",1,NA,0,NA,58
"779",13,3,"NoPressureExposure","easy",1,NA,0,NA,59
"780",13,20,"NoPressureExposure","difficult",1,NA,0,NA,60
"781",13,98,"NoPressureTest","easy",1,0,0,5.562,373
"782",13,34,"NoPressureTest","difficult",1,1,0,0.918,374
"783",13,93,"NoPressureTest","easy",1,0,0,0.964,375
"784",13,39,"NoPressureTest","easy",1,1,0,1.78,376
"785",13,47,"NoPressureTest","easy",1,1,0,0.644,377
"786",13,51,"NoPressureTest","easy",1,1,0,0.493,378
"787",13,78,"NoPressureTest","difficult",1,0,0,0.894,379
"788",13,69,"NoPressureTest","easy",1,0,0,0.873,380
"789",13,94,"NoPressureTest","easy",1,1,0,0.59,381
"790",13,22,"NoPressureTest","easy",1,1,0,0.755,382
"791",13,18,"NoPressureTest","difficult",1,1,0,0.263,383
"792",13,82,"NoPressureTest","difficult",1,1,0,0.258,384
"793",13,60,"NoPressureTest","difficult",1,1,0,1.288,385
"794",13,68,"NoPressureTest","easy",1,0,0,0.915,386
"795",13,112,"NoPressureTest","easy",1,0,0,2.407,387
"796",13,30,"NoPressureTest","easy",1,0,0,1.455,388
"797",13,114,"NoPressureTest","difficult",1,1,0,3.773,389
"798",13,80,"NoPressureTest","difficult",1,1,0,0.942,390
"799",13,99,"NoPressureTest","easy",1,1,0,2.058,391
"800",13,85,"NoPressureTest","difficult",1,0,0,0.349,392
"801",13,96,"NoPressureTest","difficult",1,0,0,0.635,393
"802",13,100,"NoPressureTest","difficult",1,1,0,3.091,394
"803",13,109,"NoPressureTest","easy",1,0,0,1.059,395
"804",13,74,"NoPressureTest","easy",1,1,0,0.302,396
"805",13,26,"NoPressureTest","difficult",1,1,0,0.913,397
"806",13,8,"NoPressureTest","difficult",1,0,0,3.151,398
"807",13,5,"NoPressureTest","difficult",1,1,0,0.305,399
"808",13,3,"NoPressureTest","easy",1,0,0,0.401,400
"809",13,102,"NoPressureTest","difficult",1,0,0,4.21,401
"810",13,67,"NoPressureTest","easy",1,1,0,0.766,402
"811",13,92,"NoPressureTest","difficult",1,1,0,1.166,403
"812",13,21,"NoPressureTest","easy",1,0,0,0.398,404
"813",13,72,"NoPressureTest","difficult",1,1,0,0.284,405
"814",13,52,"NoPressureTest","difficult",1,1,0,0.846,406
"815",13,41,"NoPressureTest","easy",1,1,0,1.033,407
"816",13,101,"NoPressureTest","easy",1,1,0,0.35,408
"817",13,44,"NoPressureTest","easy",1,0,0,0.766,409
"818",13,20,"NoPressureTest","difficult",1,1,0,0.704,410
"819",13,15,"NoPressureTest","easy",1,1,0,0.295,411
"820",13,35,"NoPressureTest","difficult",1,1,0,0.907,412
"821",13,118,"NoPressureTest","difficult",1,1,0,1.58,413
"822",13,79,"NoPressureTest","difficult",1,1,0,1.63,414
"823",13,110,"NoPressureTest","easy",1,1,0,1.105,415
"824",13,88,"NoPressureTest","difficult",1,1,0,4.248,416
"825",13,83,"NoPressureTest","easy",1,1,0,1.945,417
"826",13,115,"NoPressureTest","difficult",1,0,0,3.119,418
"827",13,19,"NoPressureTest","easy",1,0,0,1.244,419
"828",13,54,"NoPressureTest","difficult",1,1,0,0.292,420
"829",13,104,"NoPressureTest","easy",1,1,0,0.601,421
"830",13,86,"NoPressureTest","easy",1,0,0,2.46,422
"831",13,71,"NoPressureTest","easy",1,0,0,1.017,423
"832",13,87,"NoPressureTest","difficult",1,0,0,1.314,424
"833",13,31,"NoPressureTest","easy",1,1,0,1.01,425
"834",13,66,"NoPressureTest","difficult",1,1,0,1.908,426
"835",13,6,"NoPressureTest","easy",1,1,0,1.167,427
"836",13,12,"NoPressureTest","easy",1,1,0,0.565,428
"837",13,62,"NoPressureTest","easy",1,1,0,1.947,429
"838",13,91,"NoPressureTest","difficult",1,1,0,0.841,430
"839",13,37,"NoPressureTest","difficult",1,0,0,0.347,431
"840",13,2,"NoPressureTest","difficult",1,1,0,0.953,432
"841",13,40,"NoPressureTest","difficult",1,1,0,0.995,433
"842",13,116,"NoPressureTest","difficult",1,1,0,0.84,434
"843",13,43,"NoPressureTest","easy",1,1,0,0.441,435
"844",13,61,"NoPressureTest","difficult",1,0,0,3.306,436
"845",13,113,"NoPressureTest","difficult",1,1,0,0.379,437
"846",13,49,"NoPressureTest","difficult",1,1,0,0.357,438
"847",13,4,"NoPressureTest","easy",1,0,0,0.599,439
"848",13,25,"NoPressureTest","difficult",1,0,0,1.417,440
"849",13,70,"NoPressureTest","easy",1,1,0,0.393,441
"850",13,107,"NoPressureTest","easy",1,1,0,0.672,442
"851",13,77,"NoPressureTest","difficult",1,0,0,1.688,443
"852",13,13,"NoPressureTest","easy",1,0,0,2.864,444
"853",13,55,"NoPressureTest","easy",1,0,0,1.02,445
"854",13,117,"NoPressureTest","easy",1,1,0,3.177,446
"855",13,120,"NoPressureTest","easy",1,1,0,1.231,447
"856",13,111,"NoPressureTest","easy",1,1,0,0.353,448
"857",13,65,"NoPressureTest","difficult",1,1,0,0.258,449
"858",13,36,"NoPressureTest","difficult",1,1,0,0.737,450
"859",13,108,"NoPressureTest","easy",1,1,0,0.257,451
"860",13,56,"NoPressureTest","difficult",1,0,0,2.3,452
"861",13,29,"NoPressureTest","easy",1,1,0,1.428,453
"862",13,119,"NoPressureTest","difficult",1,1,0,0.301,454
"863",13,28,"NoPressureTest","difficult",1,1,0,0.304,455
"864",13,58,"NoPressureTest","easy",1,1,0,0.281,456
"865",13,33,"NoPressureTest","difficult",1,1,0,2.974,457
"866",13,32,"NoPressureTest","easy",1,0,0,3.243,458
"867",13,73,"NoPressureTest","easy",1,1,0,1.861,459
"868",13,1,"NoPressureTest","easy",1,1,0,0.193,460
"869",13,50,"NoPressureTest","difficult",1,1,0,0.433,461
"870",13,24,"NoPressureTest","easy",1,1,0,0.435,462
"871",13,14,"NoPressureTest","difficult",1,1,0,0.454,463
"872",13,11,"NoPressureTest","easy",1,0,0,2.534,464
"873",13,97,"NoPressureTest","easy",1,1,0,0.829,465
"874",13,7,"NoPressureTest","difficult",1,1,0,1.192,466
"875",13,45,"NoPressureTest","difficult",1,0,0,0.339,467
"876",13,106,"NoPressureTest","easy",1,1,0,0.676,468
"877",13,76,"NoPressureTest","difficult",1,1,0,0.791,469
"878",13,95,"NoPressureTest","easy",1,1,0,1.268,470
"879",13,48,"NoPressureTest","easy",1,1,0,0.623,471
"880",13,63,"NoPressureTest","easy",1,0,0,1.209,472
"881",13,57,"NoPressureTest","easy",1,1,0,0.312,473
"882",13,53,"NoPressureTest","easy",1,1,0,0.274,474
"883",13,105,"NoPressureTest","difficult",1,1,0,0.365,475
"884",13,42,"NoPressureTest","difficult",1,1,0,0.454,476
"885",13,23,"NoPressureTest","easy",1,1,0,0.363,477
"886",13,81,"NoPressureTest","difficult",1,0,0,3.033,478
"887",13,38,"NoPressureTest","difficult",1,1,0,0.252,479
"888",13,64,"NoPressureTest","difficult",1,1,0,0.499,480
"889",13,90,"NoPressureTest","difficult",1,1,0,0.279,481
"890",13,46,"NoPressureTest","easy",1,1,0,0.336,482
"891",13,17,"NoPressureTest","easy",1,1,0,0.29,483
"892",13,103,"NoPressureTest","difficult",1,0,0,2.149,484
"893",13,16,"NoPressureTest","difficult",1,1,0,0.597,485
"894",13,27,"NoPressureTest","difficult",1,0,0,0.432,486
"895",13,9,"NoPressureTest","difficult",1,0,0,1.1,487
"896",13,59,"NoPressureTest","difficult",1,1,0,0.27,488
"897",13,75,"NoPressureTest","easy",1,0,0,0.614,489
"898",13,89,"NoPressureTest","easy",1,1,0,0.263,490
"899",13,10,"NoPressureTest","difficult",1,1,0,0.376,491
"900",13,84,"NoPressureTest","difficult",1,1,0,0.851,492
"901",14,96,"NoPressureExposure","difficult",1,NA,0,NA,1
"902",14,76,"NoPressureExposure","difficult",1,NA,0,NA,2
"903",14,82,"NoPressureExposure","difficult",1,NA,0,NA,3
"904",14,77,"NoPressureExposure","difficult",1,NA,0,NA,4
"905",14,101,"NoPressureExposure","easy",1,NA,0,NA,5
"906",14,87,"NoPressureExposure","difficult",1,NA,0,NA,6
"907",14,118,"NoPressureExposure","difficult",1,NA,0,NA,7
"908",14,92,"NoPressureExposure","difficult",1,NA,0,NA,8
"909",14,63,"NoPressureExposure","easy",1,NA,0,NA,9
"910",14,106,"NoPressureExposure","easy",1,NA,0,NA,10
"911",14,103,"NoPressureExposure","difficult",1,NA,0,NA,11
"912",14,70,"NoPressureExposure","easy",1,NA,0,NA,12
"913",14,73,"NoPressureExposure","easy",1,NA,0,NA,13
"914",14,67,"NoPressureExposure","easy",1,NA,0,NA,14
"915",14,78,"NoPressureExposure","difficult",1,NA,0,NA,15
"916",14,62,"NoPressureExposure","easy",1,NA,0,NA,16
"917",14,72,"NoPressureExposure","difficult",1,NA,0,NA,17
"918",14,66,"NoPressureExposure","difficult",1,NA,0,NA,18
"919",14,90,"NoPressureExposure","difficult",1,NA,0,NA,19
"920",14,115,"NoPressureExposure","difficult",1,NA,0,NA,20
"921",14,75,"NoPressureExposure","easy",1,NA,0,NA,21
"922",14,117,"NoPressureExposure","easy",1,NA,0,NA,22
"923",14,97,"NoPressureExposure","easy",1,NA,0,NA,23
"924",14,98,"NoPressureExposure","easy",1,NA,0,NA,24
"925",14,83,"NoPressureExposure","easy",1,NA,0,NA,25
"926",14,109,"NoPressureExposure","easy",1,NA,0,NA,26
"927",14,89,"NoPressureExposure","easy",1,NA,0,NA,27
"928",14,95,"NoPressureExposure","easy",1,NA,0,NA,28
"929",14,74,"NoPressureExposure","easy",1,NA,0,NA,29
"930",14,91,"NoPressureExposure","difficult",1,NA,0,NA,30
"931",14,104,"NoPressureExposure","easy",1,NA,0,NA,31
"932",14,119,"NoPressureExposure","difficult",1,NA,0,NA,32
"933",14,107,"NoPressureExposure","easy",1,NA,0,NA,33
"934",14,111,"NoPressureExposure","easy",1,NA,0,NA,34
"935",14,102,"NoPressureExposure","difficult",1,NA,0,NA,35
"936",14,110,"NoPressureExposure","easy",1,NA,0,NA,36
"937",14,112,"NoPressureExposure","easy",1,NA,0,NA,37
"938",14,79,"NoPressureExposure","difficult",1,NA,0,NA,38
"939",14,100,"NoPressureExposure","difficult",1,NA,0,NA,39
"940",14,93,"NoPressureExposure","easy",1,NA,0,NA,40
"941",14,99,"NoPressureExposure","easy",1,NA,0,NA,41
"942",14,113,"NoPressureExposure","difficult",1,NA,0,NA,42
"943",14,65,"NoPressureExposure","difficult",1,NA,0,NA,43
"944",14,108,"NoPressureExposure","easy",1,NA,0,NA,44
"945",14,88,"NoPressureExposure","difficult",1,NA,0,NA,45
"946",14,94,"NoPressureExposure","easy",1,NA,0,NA,46
"947",14,85,"NoPressureExposure","difficult",1,NA,0,NA,47
"948",14,105,"NoPressureExposure","difficult",1,NA,0,NA,48
"949",14,116,"NoPressureExposure","difficult",1,NA,0,NA,49
"950",14,61,"NoPressureExposure","difficult",1,NA,0,NA,50
"951",14,64,"NoPressureExposure","difficult",1,NA,0,NA,51
"952",14,68,"NoPressureExposure","easy",1,NA,0,NA,52
"953",14,84,"NoPressureExposure","difficult",1,NA,0,NA,53
"954",14,80,"NoPressureExposure","difficult",1,NA,0,NA,54
"955",14,81,"NoPressureExposure","difficult",1,NA,0,NA,55
"956",14,120,"NoPressureExposure","easy",1,NA,0,NA,56
"957",14,86,"NoPressureExposure","easy",1,NA,0,NA,57
"958",14,114,"NoPressureExposure","difficult",1,NA,0,NA,58
"959",14,71,"NoPressureExposure","easy",1,NA,0,NA,59
"960",14,69,"NoPressureExposure","easy",1,NA,0,NA,60
"961",14,17,"NoPressureTest","easy",1,1,0,0.735,373
"962",14,18,"NoPressureTest","difficult",1,1,0,0.811,374
"963",14,74,"NoPressureTest","easy",1,1,0,3.524,375
"964",14,56,"NoPressureTest","difficult",1,0,0,0.262,376
"965",14,13,"NoPressureTest","easy",1,1,0,0.315,377
"966",14,82,"NoPressureTest","difficult",1,0,0,0.589,378
"967",14,3,"NoPressureTest","easy",1,0,0,3.089,379
"968",14,103,"NoPressureTest","difficult",1,1,0,1.061,380
"969",14,113,"NoPressureTest","difficult",1,1,0,4.117,381
"970",14,68,"NoPressureTest","easy",1,0,0,0.871,382
"971",14,45,"NoPressureTest","difficult",1,1,0,2.325,383
"972",14,34,"NoPressureTest","difficult",1,0,0,0.253,384
"973",14,71,"NoPressureTest","easy",1,0,0,0.302,385
"974",14,22,"NoPressureTest","easy",1,0,0,0.286,386
"975",14,48,"NoPressureTest","easy",1,1,0,0.327,387
"976",14,85,"NoPressureTest","difficult",1,0,0,0.245,388
"977",14,52,"NoPressureTest","difficult",1,0,0,0.663,389
"978",14,78,"NoPressureTest","difficult",1,1,0,1.555,390
"979",14,96,"NoPressureTest","difficult",1,0,0,0.303,391
"980",14,62,"NoPressureTest","easy",1,0,0,1.731,392
"981",14,79,"NoPressureTest","difficult",1,1,0,0.656,393
"982",14,7,"NoPressureTest","difficult",1,0,0,5.067,394
"983",14,36,"NoPressureTest","difficult",1,0,0,0.274,395
"984",14,105,"NoPressureTest","difficult",1,0,0,0.524,396
"985",14,83,"NoPressureTest","easy",1,0,0,0.241,397
"986",14,32,"NoPressureTest","easy",1,0,0,0.292,398
"987",14,15,"NoPressureTest","easy",1,1,0,0.295,399
"988",14,64,"NoPressureTest","difficult",1,1,0,2.669,400
"989",14,84,"NoPressureTest","difficult",1,0,0,0.284,401
"990",14,60,"NoPressureTest","difficult",1,1,0,0.308,402
"991",14,54,"NoPressureTest","difficult",1,0,0,0.353,403
"992",14,99,"NoPressureTest","easy",1,0,0,4.531,404
"993",14,50,"NoPressureTest","difficult",1,0,0,1.981,405
"994",14,76,"NoPressureTest","difficult",1,0,0,3.07,406
"995",14,35,"NoPressureTest","difficult",1,0,0,0.313,407
"996",14,117,"NoPressureTest","easy",1,1,0,0.742,408
"997",14,89,"NoPressureTest","easy",1,0,0,0.291,409
"998",14,93,"NoPressureTest","easy",1,0,0,0.412,410
"999",14,65,"NoPressureTest","difficult",1,1,0,1.026,411
"1000",14,110,"NoPressureTest","easy",1,1,0,0.515,412
"1001",14,80,"NoPressureTest","difficult",1,0,0,0.396,413
"1002",14,37,"NoPressureTest","difficult",1,1,0,1.56,414
"1003",14,5,"NoPressureTest","difficult",1,1,0,3.277,415
"1004",14,47,"NoPressureTest","easy",1,1,0,0.278,416
"1005",14,101,"NoPressureTest","easy",1,0,0,0.396,417
"1006",14,53,"NoPressureTest","easy",1,0,0,1.692,418
"1007",14,72,"NoPressureTest","difficult",1,1,0,0.43,419
"1008",14,94,"NoPressureTest","easy",1,0,0,0.5,420
"1009",14,28,"NoPressureTest","difficult",1,0,0,0.351,421
"1010",14,116,"NoPressureTest","difficult",1,1,0,1.023,422
"1011",14,44,"NoPressureTest","easy",1,1,0,1.469,423
"1012",14,29,"NoPressureTest","easy",1,1,0,0.87,424
"1013",14,102,"NoPressureTest","difficult",1,0,0,0.557,425
"1014",14,63,"NoPressureTest","easy",1,1,0,1.296,426
"1015",14,6,"NoPressureTest","easy",1,0,0,0.285,427
"1016",14,75,"NoPressureTest","easy",1,1,0,0.255,428
"1017",14,119,"NoPressureTest","difficult",1,1,0,1.558,429
"1018",14,91,"NoPressureTest","difficult",1,0,0,0.303,430
"1019",14,98,"NoPressureTest","easy",1,0,0,1.82,431
"1020",14,19,"NoPressureTest","easy",1,1,0,5.416,432
"1021",14,111,"NoPressureTest","easy",1,0,0,1.511,433
"1022",14,42,"NoPressureTest","difficult",1,1,0,3.419,434
"1023",14,109,"NoPressureTest","easy",1,0,0,1.415,435
"1024",14,41,"NoPressureTest","easy",1,1,0,4.606,436
"1025",14,55,"NoPressureTest","easy",1,0,0,1.901,437
"1026",14,4,"NoPressureTest","easy",1,0,0,2.463,438
"1027",14,112,"NoPressureTest","easy",1,0,0,3.331,439
"1028",14,46,"NoPressureTest","easy",1,0,0,0.613,440
"1029",14,12,"NoPressureTest","easy",1,1,0,0.407,441
"1030",14,20,"NoPressureTest","difficult",1,1,0,0.289,442
"1031",14,67,"NoPressureTest","easy",1,0,0,0.281,443
"1032",14,95,"NoPressureTest","easy",1,0,0,0.294,444
"1033",14,66,"NoPressureTest","difficult",1,0,0,0.464,445
"1034",14,14,"NoPressureTest","difficult",1,1,0,0.288,446
"1035",14,2,"NoPressureTest","difficult",1,0,0,0.436,447
"1036",14,31,"NoPressureTest","easy",1,1,0,1.638,448
"1037",14,43,"NoPressureTest","easy",1,1,0,1.203,449
"1038",14,21,"NoPressureTest","easy",1,0,0,0.263,450
"1039",14,108,"NoPressureTest","easy",1,0,0,0.347,451
"1040",14,39,"NoPressureTest","easy",1,1,0,0.272,452
"1041",14,70,"NoPressureTest","easy",1,1,0,0.617,453
"1042",14,106,"NoPressureTest","easy",1,0,0,0.401,454
"1043",14,40,"NoPressureTest","difficult",1,0,0,0.665,455
"1044",14,100,"NoPressureTest","difficult",1,0,0,0.353,456
"1045",14,59,"NoPressureTest","difficult",1,1,0,0.329,457
"1046",14,9,"NoPressureTest","difficult",1,1,0,1.819,458
"1047",14,27,"NoPressureTest","difficult",1,0,0,1.641,459
"1048",14,24,"NoPressureTest","easy",1,0,0,0.89,460
"1049",14,58,"NoPressureTest","easy",1,0,0,0.307,461
"1050",14,30,"NoPressureTest","easy",1,1,0,2.337,462
"1051",14,11,"NoPressureTest","easy",1,0,0,1.395,463
"1052",14,25,"NoPressureTest","difficult",1,1,0,0.596,464
"1053",14,1,"NoPressureTest","easy",1,1,0,0.276,465
"1054",14,51,"NoPressureTest","easy",1,1,0,0.705,466
"1055",14,61,"NoPressureTest","difficult",1,1,0,0.293,467
"1056",14,26,"NoPressureTest","difficult",1,0,0,0.23,468
"1057",14,86,"NoPressureTest","easy",1,0,0,1.659,469
"1058",14,90,"NoPressureTest","difficult",1,0,0,0.271,470
"1059",14,8,"NoPressureTest","difficult",1,0,0,0.392,471
"1060",14,10,"NoPressureTest","difficult",1,1,0,0.375,472
"1061",14,38,"NoPressureTest","difficult",1,0,0,0.872,473
"1062",14,114,"NoPressureTest","difficult",1,1,0,1.891,474
"1063",14,118,"NoPressureTest","difficult",1,0,0,1.364,475
"1064",14,49,"NoPressureTest","difficult",1,0,0,0.787,476
"1065",14,88,"NoPressureTest","difficult",1,1,0,0.312,477
"1066",14,115,"NoPressureTest","difficult",1,1,0,0.485,478
"1067",14,73,"NoPressureTest","easy",1,0,0,0.338,479
"1068",14,23,"NoPressureTest","easy",1,0,0,0.266,480
"1069",14,120,"NoPressureTest","easy",1,1,0,0.329,481
"1070",14,77,"NoPressureTest","difficult",1,0,0,0.465,482
"1071",14,107,"NoPressureTest","easy",1,1,0,3.253,483
"1072",14,16,"NoPressureTest","difficult",1,0,0,1.503,484
"1073",14,104,"NoPressureTest","easy",1,1,0,0.258,485
"1074",14,92,"NoPressureTest","difficult",1,1,0,0.297,486
"1075",14,81,"NoPressureTest","difficult",1,0,0,0.5,487
"1076",14,69,"NoPressureTest","easy",1,0,0,0.226,488
"1077",14,97,"NoPressureTest","easy",1,0,0,0.19,489
"1078",14,87,"NoPressureTest","difficult",1,0,0,0.441,490
"1079",14,33,"NoPressureTest","difficult",1,1,0,0.327,491
"1080",14,57,"NoPressureTest","easy",1,0,0,4.006,492
"1081",15,85,"TimePressureExposure","difficult",1,NA,0,NA,1
"1082",15,101,"TimePressureExposure","easy",1,NA,0,NA,2
"1083",15,83,"TimePressureExposure","easy",1,NA,0,NA,3
"1084",15,67,"TimePressureExposure","easy",1,NA,0,NA,4
"1085",15,78,"TimePressureExposure","difficult",1,NA,0,NA,5
"1086",15,89,"TimePressureExposure","easy",1,NA,0,NA,6
"1087",15,96,"TimePressureExposure","difficult",1,NA,0,NA,7
"1088",15,63,"TimePressureExposure","easy",1,NA,0,NA,8
"1089",15,61,"TimePressureExposure","difficult",1,NA,0,NA,9
"1090",15,118,"TimePressureExposure","difficult",1,NA,0,NA,10
"1091",15,105,"TimePressureExposure","difficult",1,NA,0,NA,11
"1092",15,71,"TimePressureExposure","easy",1,NA,0,NA,12
"1093",15,115,"TimePressureExposure","difficult",1,NA,0,NA,13
"1094",15,98,"TimePressureExposure","easy",1,NA,0,NA,14
"1095",15,93,"TimePressureExposure","easy",1,NA,0,NA,15
"1096",15,79,"TimePressureExposure","difficult",1,NA,0,NA,16
"1097",15,114,"TimePressureExposure","difficult",1,NA,0,NA,17
"1098",15,112,"TimePressureExposure","easy",1,NA,0,NA,18
"1099",15,110,"TimePressureExposure","easy",1,NA,0,NA,19
"1100",15,102,"TimePressureExposure","difficult",1,NA,0,NA,20
"1101",15,73,"TimePressureExposure","easy",1,NA,0,NA,21
"1102",15,74,"TimePressureExposure","easy",1,NA,0,NA,22
"1103",15,64,"TimePressureExposure","difficult",1,NA,0,NA,23
"1104",15,113,"TimePressureExposure","difficult",1,NA,0,NA,24
"1105",15,75,"TimePressureExposure","easy",1,NA,0,NA,25
"1106",15,119,"TimePressureExposure","difficult",1,NA,0,NA,26
"1107",15,117,"TimePressureExposure","easy",1,NA,0,NA,27
"1108",15,107,"TimePressureExposure","easy",1,NA,0,NA,28
"1109",15,116,"TimePressureExposure","difficult",1,NA,0,NA,29
"1110",15,95,"TimePressureExposure","easy",1,NA,0,NA,30
"1111",15,120,"TimePressureExposure","easy",1,NA,0,NA,31
"1112",15,65,"TimePressureExposure","difficult",1,NA,0,NA,32
"1113",15,90,"TimePressureExposure","difficult",1,NA,0,NA,33
"1114",15,108,"TimePressureExposure","easy",1,NA,0,NA,34
"1115",15,97,"TimePressureExposure","easy",1,NA,0,NA,35
"1116",15,109,"TimePressureExposure","easy",1,NA,0,NA,36
"1117",15,100,"TimePressureExposure","difficult",1,NA,0,NA,37
"1118",15,70,"TimePressureExposure","easy",1,NA,0,NA,38
"1119",15,84,"TimePressureExposure","difficult",1,NA,0,NA,39
"1120",15,88,"TimePressureExposure","difficult",1,NA,0,NA,40
"1121",15,81,"TimePressureExposure","difficult",1,NA,0,NA,41
"1122",15,69,"TimePressureExposure","easy",1,NA,0,NA,42
"1123",15,99,"TimePressureExposure","easy",1,NA,0,NA,43
"1124",15,82,"TimePressureExposure","difficult",1,NA,0,NA,44
"1125",15,94,"TimePressureExposure","easy",1,NA,0,NA,45
"1126",15,111,"TimePressureExposure","easy",1,NA,0,NA,46
"1127",15,77,"TimePressureExposure","difficult",1,NA,0,NA,47
"1128",15,106,"TimePressureExposure","easy",1,NA,0,NA,48
"1129",15,80,"TimePressureExposure","difficult",1,NA,0,NA,49
"1130",15,86,"TimePressureExposure","easy",1,NA,0,NA,50
"1131",15,72,"TimePressureExposure","difficult",1,NA,0,NA,51
"1132",15,68,"TimePressureExposure","easy",1,NA,0,NA,52
"1133",15,66,"TimePressureExposure","difficult",1,NA,0,NA,53
"1134",15,103,"TimePressureExposure","difficult",1,NA,0,NA,54
"1135",15,62,"TimePressureExposure","easy",1,NA,0,NA,55
"1136",15,87,"TimePressureExposure","difficult",1,NA,0,NA,56
"1137",15,92,"TimePressureExposure","difficult",1,NA,0,NA,57
"1138",15,91,"TimePressureExposure","difficult",1,NA,0,NA,58
"1139",15,76,"TimePressureExposure","difficult",1,NA,0,NA,59
"1140",15,104,"TimePressureExposure","easy",1,NA,0,NA,60
"1141",15,33,"TimePressureTest","difficult",1,1,0,0.205,373
"1142",15,36,"TimePressureTest","difficult",1,0,0,0.026,374
"1143",15,83,"TimePressureTest","easy",1,1,0,0.204,375
"1144",15,53,"TimePressureTest","easy",1,1,0,0.289,376
"1145",15,80,"TimePressureTest","difficult",1,0,0,0.575,377
"1146",15,118,"TimePressureTest","difficult",1,1,0,0.231,378
"1147",15,13,"TimePressureTest","easy",1,0,0,0.724,379
"1148",15,17,"TimePressureTest","easy",1,0,0,0.486,380
"1149",15,91,"TimePressureTest","difficult",1,1,0,0.227,381
"1150",15,23,"TimePressureTest","easy",1,0,0,0.496,382
"1151",15,64,"TimePressureTest","difficult",1,0,0,0.429,383
"1152",15,76,"TimePressureTest","difficult",1,1,0,0.431,384
"1153",15,87,"TimePressureTest","difficult",1,1,0,0.227,385
"1154",15,66,"TimePressureTest","difficult",1,0,0,0.258,386
"1155",15,3,"TimePressureTest","easy",1,1,0,0.222,387
"1156",15,45,"TimePressureTest","difficult",1,0,0,0.133,388
"1157",15,110,"TimePressureTest","easy",1,0,0,0.197,389
"1158",15,30,"TimePressureTest","easy",1,0,0,0.242,390
"1159",15,68,"TimePressureTest","easy",1,0,0,0.396,391
"1160",15,31,"TimePressureTest","easy",1,1,0,0.154,392
"1161",15,18,"TimePressureTest","difficult",1,1,0,0.727,393
"1162",15,9,"TimePressureTest","difficult",1,1,0,0.065,394
"1163",15,96,"TimePressureTest","difficult",1,0,0,0.228,395
"1164",15,97,"TimePressureTest","easy",1,0,0,0.053,396
"1165",15,21,"TimePressureTest","easy",1,1,0,0.338,397
"1166",15,59,"TimePressureTest","difficult",1,0,0,0.299,398
"1167",15,24,"TimePressureTest","easy",1,0,0,0.674,399
"1168",15,79,"TimePressureTest","difficult",1,0,0,0.108,400
"1169",15,49,"TimePressureTest","difficult",1,1,0,0.154,401
"1170",15,92,"TimePressureTest","difficult",1,0,0,0.198,402
"1171",15,22,"TimePressureTest","easy",1,0,0,0.246,403
"1172",15,50,"TimePressureTest","difficult",1,0,0,0.226,404
"1173",15,69,"TimePressureTest","easy",1,0,0,0.343,405
"1174",15,40,"TimePressureTest","difficult",1,0,0,0.06,406
"1175",15,58,"TimePressureTest","easy",1,0,0,0.209,407
"1176",15,34,"TimePressureTest","difficult",1,0,0,0.229,408
"1177",15,99,"TimePressureTest","easy",1,1,0,0.049,409
"1178",15,20,"TimePressureTest","difficult",1,0,0,0.187,410
"1179",15,57,"TimePressureTest","easy",1,1,0,0.156,411
"1180",15,85,"TimePressureTest","difficult",1,0,0,0.123,412
"1181",15,65,"TimePressureTest","difficult",1,0,0,0.118,413
"1182",15,111,"TimePressureTest","easy",1,0,0,0.049,414
"1183",15,2,"TimePressureTest","difficult",1,0,0,0.233,415
"1184",15,61,"TimePressureTest","difficult",1,0,0,0.392,416
"1185",15,4,"TimePressureTest","easy",1,0,0,0.01,417
"1186",15,112,"TimePressureTest","easy",1,1,0,0.181,418
"1187",15,6,"TimePressureTest","easy",1,1,0,0.268,419
"1188",15,43,"TimePressureTest","easy",1,0,0,0.244,420
"1189",15,27,"TimePressureTest","difficult",1,0,0,0.005,421
"1190",15,100,"TimePressureTest","difficult",1,0,0,0.194,422
"1191",15,35,"TimePressureTest","difficult",1,0,0,0.276,423
"1192",15,82,"TimePressureTest","difficult",1,1,0,0.584,424
"1193",15,41,"TimePressureTest","easy",1,1,0,0.007,425
"1194",15,60,"TimePressureTest","difficult",1,0,0,0.414,426
"1195",15,75,"TimePressureTest","easy",1,0,0,0.084,427
"1196",15,19,"TimePressureTest","easy",1,1,0,0.29,428
"1197",15,26,"TimePressureTest","difficult",1,0,0,0.036,429
"1198",15,25,"TimePressureTest","difficult",1,1,0,0.077,430
"1199",15,89,"TimePressureTest","easy",1,0,0,0.11,431
"1200",15,10,"TimePressureTest","difficult",1,0,0,0.27,432
"1201",15,28,"TimePressureTest","difficult",1,0,0,0.379,433
"1202",15,105,"TimePressureTest","difficult",1,1,0,0.163,434
"1203",15,104,"TimePressureTest","easy",1,1,0,0.127,435
"1204",15,56,"TimePressureTest","difficult",1,1,0,0.12,436
"1205",15,88,"TimePressureTest","difficult",1,0,0,0.218,437
"1206",15,47,"TimePressureTest","easy",1,0,0,0.137,438
"1207",15,109,"TimePressureTest","easy",1,0,0,0.19,439
"1208",15,102,"TimePressureTest","difficult",1,0,0,0.027,440
"1209",15,106,"TimePressureTest","easy",1,1,0,0.293,441
"1210",15,113,"TimePressureTest","difficult",1,1,0,0.159,442
"1211",15,29,"TimePressureTest","easy",1,1,0,0.45,443
"1212",15,95,"TimePressureTest","easy",1,0,0,0.161,444
"1213",15,116,"TimePressureTest","difficult",1,1,0,0.26,445
"1214",15,101,"TimePressureTest","easy",1,0,0,0.109,446
"1215",15,108,"TimePressureTest","easy",1,0,0,0.147,447
"1216",15,5,"TimePressureTest","difficult",1,1,0,0.283,448
"1217",15,11,"TimePressureTest","easy",1,0,0,0.158,449
"1218",15,12,"TimePressureTest","easy",1,0,0,0.214,450
"1219",15,51,"TimePressureTest","easy",1,0,0,0.581,451
"1220",15,103,"TimePressureTest","difficult",1,1,0,0.174,452
"1221",15,14,"TimePressureTest","difficult",1,0,0,0.18,453
"1222",15,8,"TimePressureTest","difficult",1,1,0,0.203,454
"1223",15,119,"TimePressureTest","difficult",1,1,0,0.23,455
"1224",15,38,"TimePressureTest","difficult",1,0,0,0.205,456
"1225",15,70,"TimePressureTest","easy",1,1,0,0.146,457
"1226",15,16,"TimePressureTest","difficult",1,0,0,0.144,458
"1227",15,62,"TimePressureTest","easy",1,0,0,0.164,459
"1228",15,78,"TimePressureTest","difficult",1,0,0,0.047,460
"1229",15,63,"TimePressureTest","easy",1,1,0,0.087,461
"1230",15,48,"TimePressureTest","easy",1,1,0,0.13,462
"1231",15,52,"TimePressureTest","difficult",1,1,0,0.138,463
"1232",15,32,"TimePressureTest","easy",1,0,0,0.163,464
"1233",15,114,"TimePressureTest","difficult",1,0,0,0.088,465
"1234",15,67,"TimePressureTest","easy",1,0,0,0.001,466
"1235",15,46,"TimePressureTest","easy",1,0,0,0.1,467
"1236",15,71,"TimePressureTest","easy",1,0,0,0.159,468
"1237",15,73,"TimePressureTest","easy",1,1,0,0.126,469
"1238",15,1,"TimePressureTest","easy",1,1,0,0.139,470
"1239",15,39,"TimePressureTest","easy",1,1,0,0.174,471
"1240",15,55,"TimePressureTest","easy",1,1,0,0.697,472
"1241",15,7,"TimePressureTest","difficult",1,1,0,0.413,473
"1242",15,115,"TimePressureTest","difficult",1,0,0,0.447,474
"1243",15,94,"TimePressureTest","easy",1,0,0,0.124,475
"1244",15,107,"TimePressureTest","easy",1,1,0,0.617,476
"1245",15,81,"TimePressureTest","difficult",1,0,0,0.079,477
"1246",15,98,"TimePressureTest","easy",1,0,0,0.727,478
"1247",15,77,"TimePressureTest","difficult",1,1,0,0.161,479
"1248",15,93,"TimePressureTest","easy",1,0,0,0.201,480
"1249",15,54,"TimePressureTest","difficult",1,0,0,0.19,481
"1250",15,74,"TimePressureTest","easy",1,0,0,0.088,482
"1251",15,84,"TimePressureTest","difficult",1,0,0,0.052,483
"1252",15,86,"TimePressureTest","easy",1,0,0,0.081,484
"1253",15,37,"TimePressureTest","difficult",1,0,0,0.028,485
"1254",15,42,"TimePressureTest","difficult",1,1,0,0.03,486
"1255",15,120,"TimePressureTest","easy",1,1,0,0.146,487
"1256",15,44,"TimePressureTest","easy",1,1,0,0.309,488
"1257",15,72,"TimePressureTest","difficult",1,0,0,0.037,489
"1258",15,15,"TimePressureTest","easy",1,1,0,0.389,490
"1259",15,117,"TimePressureTest","easy",1,1,0,0.462,491
"1260",15,90,"TimePressureTest","difficult",1,1,0,0.206,492
"1261",16,95,"TimePressureExposure","easy",1,NA,0,NA,1
"1262",16,69,"TimePressureExposure","easy",1,NA,0,NA,2
"1263",16,100,"TimePressureExposure","difficult",1,NA,0,NA,3
"1264",16,89,"TimePressureExposure","easy",1,NA,0,NA,4
"1265",16,102,"TimePressureExposure","difficult",1,NA,0,NA,5
"1266",16,70,"TimePressureExposure","easy",1,NA,0,NA,6
"1267",16,110,"TimePressureExposure","easy",1,NA,0,NA,7
"1268",16,91,"TimePressureExposure","difficult",1,NA,0,NA,8
"1269",16,64,"TimePressureExposure","difficult",1,NA,0,NA,9
"1270",16,97,"TimePressureExposure","easy",1,NA,0,NA,10
"1271",16,116,"TimePressureExposure","difficult",1,NA,0,NA,11
"1272",16,80,"TimePressureExposure","difficult",1,NA,0,NA,12
"1273",16,88,"TimePressureExposure","difficult",1,NA,0,NA,13
"1274",16,101,"TimePressureExposure","easy",1,NA,0,NA,14
"1275",16,104,"TimePressureExposure","easy",1,NA,0,NA,15
"1276",16,117,"TimePressureExposure","easy",1,NA,0,NA,16
"1277",16,92,"TimePressureExposure","difficult",1,NA,0,NA,17
"1278",16,84,"TimePressureExposure","difficult",1,NA,0,NA,18
"1279",16,118,"TimePressureExposure","difficult",1,NA,0,NA,19
"1280",16,67,"TimePressureExposure","easy",1,NA,0,NA,20
"1281",16,111,"TimePressureExposure","easy",1,NA,0,NA,21
"1282",16,107,"TimePressureExposure","easy",1,NA,0,NA,22
"1283",16,119,"TimePressureExposure","difficult",1,NA,0,NA,23
"1284",16,71,"TimePressureExposure","easy",1,NA,0,NA,24
"1285",16,98,"TimePressureExposure","easy",1,NA,0,NA,25
"1286",16,78,"TimePressureExposure","difficult",1,NA,0,NA,26
"1287",16,62,"TimePressureExposure","easy",1,NA,0,NA,27
"1288",16,77,"TimePressureExposure","difficult",1,NA,0,NA,28
"1289",16,93,"TimePressureExposure","easy",1,NA,0,NA,29
"1290",16,73,"TimePressureExposure","easy",1,NA,0,NA,30
"1291",16,120,"TimePressureExposure","easy",1,NA,0,NA,31
"1292",16,61,"TimePressureExposure","difficult",1,NA,0,NA,32
"1293",16,76,"TimePressureExposure","difficult",1,NA,0,NA,33
"1294",16,103,"TimePressureExposure","difficult",1,NA,0,NA,34
"1295",16,113,"TimePressureExposure","difficult",1,NA,0,NA,35
"1296",16,106,"TimePressureExposure","easy",1,NA,0,NA,36
"1297",16,63,"TimePressureExposure","easy",1,NA,0,NA,37
"1298",16,85,"TimePressureExposure","difficult",1,NA,0,NA,38
"1299",16,83,"TimePressureExposure","easy",1,NA,0,NA,39
"1300",16,108,"TimePressureExposure","easy",1,NA,0,NA,40
"1301",16,114,"TimePressureExposure","difficult",1,NA,0,NA,41
"1302",16,115,"TimePressureExposure","difficult",1,NA,0,NA,42
"1303",16,94,"TimePressureExposure","easy",1,NA,0,NA,43
"1304",16,79,"TimePressureExposure","difficult",1,NA,0,NA,44
"1305",16,99,"TimePressureExposure","easy",1,NA,0,NA,45
"1306",16,105,"TimePressureExposure","difficult",1,NA,0,NA,46
"1307",16,81,"TimePressureExposure","difficult",1,NA,0,NA,47
"1308",16,87,"TimePressureExposure","difficult",1,NA,0,NA,48
"1309",16,86,"TimePressureExposure","easy",1,NA,0,NA,49
"1310",16,82,"TimePressureExposure","difficult",1,NA,0,NA,50
"1311",16,75,"TimePressureExposure","easy",1,NA,0,NA,51
"1312",16,109,"TimePressureExposure","easy",1,NA,0,NA,52
"1313",16,66,"TimePressureExposure","difficult",1,NA,0,NA,53
"1314",16,96,"TimePressureExposure","difficult",1,NA,0,NA,54
"1315",16,68,"TimePressureExposure","easy",1,NA,0,NA,55
"1316",16,74,"TimePressureExposure","easy",1,NA,0,NA,56
"1317",16,65,"TimePressureExposure","difficult",1,NA,0,NA,57
"1318",16,90,"TimePressureExposure","difficult",1,NA,0,NA,58
"1319",16,72,"TimePressureExposure","difficult",1,NA,0,NA,59
"1320",16,112,"TimePressureExposure","easy",1,NA,0,NA,60
"1321",16,83,"TimePressureTest","easy",1,0,0,0.882,373
"1322",16,28,"TimePressureTest","difficult",1,1,0,0.479,374
"1323",16,37,"TimePressureTest","difficult",1,0,0,0.281,375
"1324",16,13,"TimePressureTest","easy",1,1,0,0.351,376
"1325",16,78,"TimePressureTest","difficult",1,1,0,0.665,377
"1326",16,102,"TimePressureTest","difficult",1,1,0,0.724,378
"1327",16,23,"TimePressureTest","easy",1,0,0,0.231,379
"1328",16,44,"TimePressureTest","easy",1,0,0,0.426,380
"1329",16,93,"TimePressureTest","easy",1,1,0,0.223,381
"1330",16,62,"TimePressureTest","easy",1,0,0,0.438,382
"1331",16,84,"TimePressureTest","difficult",1,0,0,0.508,383
"1332",16,86,"TimePressureTest","easy",1,0,0,0.551,384
"1333",16,111,"TimePressureTest","easy",1,1,0,0.51,385
"1334",16,18,"TimePressureTest","difficult",1,0,0,0.547,386
"1335",16,80,"TimePressureTest","difficult",1,1,0,0.971,387
"1336",16,77,"TimePressureTest","difficult",1,0,0,0.601,388
"1337",16,66,"TimePressureTest","difficult",1,1,0,0.966,389
"1338",16,26,"TimePressureTest","difficult",1,NA,0,NA,390
"1339",16,106,"TimePressureTest","easy",1,1,0,0.558,391
"1340",16,14,"TimePressureTest","difficult",1,0,0,0.437,392
"1341",16,82,"TimePressureTest","difficult",1,0,0,0.706,393
"1342",16,105,"TimePressureTest","difficult",1,1,0,0.26,394
"1343",16,89,"TimePressureTest","easy",1,0,0,0.606,395
"1344",16,50,"TimePressureTest","difficult",1,1,0,0.972,396
"1345",16,16,"TimePressureTest","difficult",1,NA,0,NA,397
"1346",16,58,"TimePressureTest","easy",1,0,0,0.403,398
"1347",16,79,"TimePressureTest","difficult",1,0,0,0.256,399
"1348",16,64,"TimePressureTest","difficult",1,1,0,0.752,400
"1349",16,52,"TimePressureTest","difficult",1,1,0,0.254,401
"1350",16,31,"TimePressureTest","easy",1,0,0,0.402,402
"1351",16,30,"TimePressureTest","easy",1,1,0,0.639,403
"1352",16,47,"TimePressureTest","easy",1,1,0,0.662,404
"1353",16,120,"TimePressureTest","easy",1,1,0,0.807,405
"1354",16,39,"TimePressureTest","easy",1,1,0,0.902,406
"1355",16,115,"TimePressureTest","difficult",1,1,0,0.86,407
"1356",16,3,"TimePressureTest","easy",1,1,0,0.439,408
"1357",16,55,"TimePressureTest","easy",1,NA,0,NA,409
"1358",16,81,"TimePressureTest","difficult",1,0,0,0.485,410
"1359",16,97,"TimePressureTest","easy",1,0,0,0.545,411
"1360",16,43,"TimePressureTest","easy",1,0,0,0.52,412
"1361",16,4,"TimePressureTest","easy",1,1,0,0.878,413
"1362",16,7,"TimePressureTest","difficult",1,1,0,0.617,414
"1363",16,24,"TimePressureTest","easy",1,NA,0,NA,415
"1364",16,73,"TimePressureTest","easy",1,1,0,0.823,416
"1365",16,91,"TimePressureTest","difficult",1,1,0,0.447,417
"1366",16,12,"TimePressureTest","easy",1,0,0,0.492,418
"1367",16,75,"TimePressureTest","easy",1,1,0,0.567,419
"1368",16,35,"TimePressureTest","difficult",1,0,0,0.283,420
"1369",16,49,"TimePressureTest","difficult",1,1,0,0.858,421
"1370",16,76,"TimePressureTest","difficult",1,0,0,0.719,422
"1371",16,68,"TimePressureTest","easy",1,0,0,0.47,423
"1372",16,8,"TimePressureTest","difficult",1,0,0,0.523,424
"1373",16,45,"TimePressureTest","difficult",1,0,0,0.324,425
"1374",16,99,"TimePressureTest","easy",1,1,0,0.796,426
"1375",16,63,"TimePressureTest","easy",1,0,0,0.506,427
"1376",16,94,"TimePressureTest","easy",1,1,0,0.357,428
"1377",16,67,"TimePressureTest","easy",1,0,0,0.802,429
"1378",16,59,"TimePressureTest","difficult",1,0,0,0.442,430
"1379",16,20,"TimePressureTest","difficult",1,0,0,0.565,431
"1380",16,33,"TimePressureTest","difficult",1,0,0,0.637,432
"1381",16,41,"TimePressureTest","easy",1,1,0,0.801,433
"1382",16,56,"TimePressureTest","difficult",1,1,0,0.527,434
"1383",16,110,"TimePressureTest","easy",1,0,0,0.59,435
"1384",16,96,"TimePressureTest","difficult",1,1,0,0.782,436
"1385",16,29,"TimePressureTest","easy",1,0,0,0.605,437
"1386",16,112,"TimePressureTest","easy",1,1,0,0.424,438
"1387",16,69,"TimePressureTest","easy",1,0,0,0.579,439
"1388",16,98,"TimePressureTest","easy",1,0,0,0.677,440
"1389",16,11,"TimePressureTest","easy",1,0,0,0.464,441
"1390",16,38,"TimePressureTest","difficult",1,NA,0,NA,442
"1391",16,87,"TimePressureTest","difficult",1,1,0,0.4,443
"1392",16,85,"TimePressureTest","difficult",1,0,0,0.382,444
"1393",16,61,"TimePressureTest","difficult",1,1,0,0.295,445
"1394",16,92,"TimePressureTest","difficult",1,1,0,0.341,446
"1395",16,74,"TimePressureTest","easy",1,1,0,0.635,447
"1396",16,119,"TimePressureTest","difficult",1,0,0,0.303,448
"1397",16,42,"TimePressureTest","difficult",1,1,0,0.598,449
"1398",16,104,"TimePressureTest","easy",1,1,0,0.27,450
"1399",16,70,"TimePressureTest","easy",1,0,0,0.282,451
"1400",16,19,"TimePressureTest","easy",1,1,0,0.593,452
"1401",16,2,"TimePressureTest","difficult",1,0,0,0.758,453
"1402",16,107,"TimePressureTest","easy",1,1,0,0.48,454
"1403",16,103,"TimePressureTest","difficult",1,0,0,0.532,455
"1404",16,101,"TimePressureTest","easy",1,1,0,0.584,456
"1405",16,27,"TimePressureTest","difficult",1,0,0,0.771,457
"1406",16,54,"TimePressureTest","difficult",1,0,0,0.358,458
"1407",16,57,"TimePressureTest","easy",1,NA,0,NA,459
"1408",16,60,"TimePressureTest","difficult",1,0,0,0.446,460
"1409",16,109,"TimePressureTest","easy",1,0,0,0.35,461
"1410",16,72,"TimePressureTest","difficult",1,1,0,0.387,462
"1411",16,40,"TimePressureTest","difficult",1,0,0,0.543,463
"1412",16,118,"TimePressureTest","difficult",1,1,0,0.567,464
"1413",16,88,"TimePressureTest","difficult",1,0,0,0.397,465
"1414",16,10,"TimePressureTest","difficult",1,0,0,0.971,466
"1415",16,17,"TimePressureTest","easy",1,0,0,0.45,467
"1416",16,108,"TimePressureTest","easy",1,0,0,0.537,468
"1417",16,116,"TimePressureTest","difficult",1,1,0,0.437,469
"1418",16,90,"TimePressureTest","difficult",1,1,0,0.573,470
"1419",16,53,"TimePressureTest","easy",1,1,0,0.583,471
"1420",16,32,"TimePressureTest","easy",1,0,0,0.597,472
"1421",16,51,"TimePressureTest","easy",1,0,0,0.351,473
"1422",16,34,"TimePressureTest","difficult",1,0,0,0.437,474
"1423",16,95,"TimePressureTest","easy",1,0,0,0.531,475
"1424",16,100,"TimePressureTest","difficult",1,1,0,0.747,476
"1425",16,46,"TimePressureTest","easy",1,0,0,0.305,477
"1426",16,25,"TimePressureTest","difficult",1,0,0,0.584,478
"1427",16,36,"TimePressureTest","difficult",1,0,0,0.594,479
"1428",16,65,"TimePressureTest","difficult",1,0,0,0.375,480
"1429",16,113,"TimePressureTest","difficult",1,0,0,0.493,481
"1430",16,6,"TimePressureTest","easy",1,1,0,0.502,482
"1431",16,9,"TimePressureTest","difficult",1,1,0,0.828,483
"1432",16,117,"TimePressureTest","easy",1,1,0,0.396,484
"1433",16,71,"TimePressureTest","easy",1,0,0,0.25,485
"1434",16,48,"TimePressureTest","easy",1,1,0,0.719,486
"1435",16,21,"TimePressureTest","easy",1,1,0,0.482,487
"1436",16,1,"TimePressureTest","easy",1,1,0,0.535,488
"1437",16,114,"TimePressureTest","difficult",1,0,0,0.501,489
"1438",16,5,"TimePressureTest","difficult",1,1,0,0.463,490
"1439",16,15,"TimePressureTest","easy",1,1,0,0.994,491
"1440",16,22,"TimePressureTest","easy",1,0,0,0.434,492
"1441",2,117,"TimePressureExposure","easy",1,NA,0,NA,1
"1442",2,120,"TimePressureExposure","easy",1,NA,0,NA,2
"1443",2,87,"TimePressureExposure","difficult",1,NA,0,NA,3
"1444",2,72,"TimePressureExposure","difficult",1,NA,0,NA,4
"1445",2,90,"TimePressureExposure","difficult",1,NA,0,NA,5
"1446",2,112,"TimePressureExposure","easy",1,NA,0,NA,6
"1447",2,118,"TimePressureExposure","difficult",1,NA,0,NA,7
"1448",2,71,"TimePressureExposure","easy",1,NA,0,NA,8
"1449",2,114,"TimePressureExposure","difficult",1,NA,0,NA,9
"1450",2,95,"TimePressureExposure","easy",1,NA,0,NA,10
"1451",2,67,"TimePressureExposure","easy",1,NA,0,NA,11
"1452",2,100,"TimePressureExposure","difficult",1,NA,0,NA,12
"1453",2,102,"TimePressureExposure","difficult",1,NA,0,NA,13
"1454",2,103,"TimePressureExposure","difficult",1,NA,0,NA,14
"1455",2,83,"TimePressureExposure","easy",1,NA,0,NA,15
"1456",2,78,"TimePressureExposure","difficult",1,NA,0,NA,16
"1457",2,76,"TimePressureExposure","difficult",1,NA,0,NA,17
"1458",2,116,"TimePressureExposure","difficult",1,NA,0,NA,18
"1459",2,98,"TimePressureExposure","easy",1,NA,0,NA,19
"1460",2,65,"TimePressureExposure","difficult",1,NA,0,NA,20
"1461",2,119,"TimePressureExposure","difficult",1,NA,0,NA,21
"1462",2,101,"TimePressureExposure","easy",1,NA,0,NA,22
"1463",2,69,"TimePressureExposure","easy",1,NA,0,NA,23
"1464",2,73,"TimePressureExposure","easy",1,NA,0,NA,24
"1465",2,111,"TimePressureExposure","easy",1,NA,0,NA,25
"1466",2,66,"TimePressureExposure","difficult",1,NA,0,NA,26
"1467",2,77,"TimePressureExposure","difficult",1,NA,0,NA,27
"1468",2,96,"TimePressureExposure","difficult",1,NA,0,NA,28
"1469",2,89,"TimePressureExposure","easy",1,NA,0,NA,29
"1470",2,113,"TimePressureExposure","difficult",1,NA,0,NA,30
"1471",2,64,"TimePressureExposure","difficult",1,NA,0,NA,31
"1472",2,75,"TimePressureExposure","easy",1,NA,0,NA,32
"1473",2,107,"TimePressureExposure","easy",1,NA,0,NA,33
"1474",2,106,"TimePressureExposure","easy",1,NA,0,NA,34
"1475",2,86,"TimePressureExposure","easy",1,NA,0,NA,35
"1476",2,93,"TimePressureExposure","easy",1,NA,0,NA,36
"1477",2,81,"TimePressureExposure","difficult",1,NA,0,NA,37
"1478",2,70,"TimePressureExposure","easy",1,NA,0,NA,38
"1479",2,105,"TimePressureExposure","difficult",1,NA,0,NA,39
"1480",2,82,"TimePressureExposure","difficult",1,NA,0,NA,40
"1481",2,74,"TimePressureExposure","easy",1,NA,0,NA,41
"1482",2,80,"TimePressureExposure","difficult",1,NA,0,NA,42
"1483",2,92,"TimePressureExposure","difficult",1,NA,0,NA,43
"1484",2,84,"TimePressureExposure","difficult",1,NA,0,NA,44
"1485",2,68,"TimePressureExposure","easy",1,NA,0,NA,45
"1486",2,115,"TimePressureExposure","difficult",1,NA,0,NA,46
"1487",2,97,"TimePressureExposure","easy",1,NA,0,NA,47
"1488",2,110,"TimePressureExposure","easy",1,NA,0,NA,48
"1489",2,104,"TimePressureExposure","easy",1,NA,0,NA,49
"1490",2,79,"TimePressureExposure","difficult",1,NA,0,NA,50
"1491",2,108,"TimePressureExposure","easy",1,NA,0,NA,51
"1492",2,99,"TimePressureExposure","easy",1,NA,0,NA,52
"1493",2,62,"TimePressureExposure","easy",1,NA,0,NA,53
"1494",2,94,"TimePressureExposure","easy",1,NA,0,NA,54
"1495",2,61,"TimePressureExposure","difficult",1,NA,0,NA,55
"1496",2,88,"TimePressureExposure","difficult",1,NA,0,NA,56
"1497",2,109,"TimePressureExposure","easy",1,NA,0,NA,57
"1498",2,91,"TimePressureExposure","difficult",1,NA,0,NA,58
"1499",2,85,"TimePressureExposure","difficult",1,NA,0,NA,59
"1500",2,63,"TimePressureExposure","easy",1,NA,0,NA,60
"1501",2,93,"TimePressureTest","easy",1,1,0,0.196,373
"1502",2,39,"TimePressureTest","easy",1,1,0,0.155,374
"1503",2,92,"TimePressureTest","difficult",1,0,0,0.26,375
"1504",2,119,"TimePressureTest","difficult",1,1,0,0.311,376
"1505",2,28,"TimePressureTest","difficult",1,0,0,0.386,377
"1506",2,69,"TimePressureTest","easy",1,0,0,0.221,378
"1507",2,107,"TimePressureTest","easy",1,1,0,0.196,379
"1508",2,88,"TimePressureTest","difficult",1,1,0,0.208,380
"1509",2,102,"TimePressureTest","difficult",1,0,0,0.092,381
"1510",2,96,"TimePressureTest","difficult",1,1,0,0.207,382
"1511",2,56,"TimePressureTest","difficult",1,1,0,0.516,383
"1512",2,85,"TimePressureTest","difficult",1,0,0,0.29,384
"1513",2,36,"TimePressureTest","difficult",1,0,0,0.526,385
"1514",2,42,"TimePressureTest","difficult",1,0,0,0.658,386
"1515",2,110,"TimePressureTest","easy",1,1,0,0.204,387
"1516",2,12,"TimePressureTest","easy",1,1,0,0.538,388
"1517",2,40,"TimePressureTest","difficult",1,1,0,0.694,389
"1518",2,11,"TimePressureTest","easy",1,0,0,0.229,390
"1519",2,59,"TimePressureTest","difficult",1,1,0,0.377,391
"1520",2,112,"TimePressureTest","easy",1,1,0,0.301,392
"1521",2,81,"TimePressureTest","difficult",1,0,0,0.263,393
"1522",2,26,"TimePressureTest","difficult",1,1,0,0.179,394
"1523",2,6,"TimePressureTest","easy",1,1,0,0.513,395
"1524",2,58,"TimePressureTest","easy",1,1,0,0.705,396
"1525",2,31,"TimePressureTest","easy",1,1,0,0.793,397
"1526",2,47,"TimePressureTest","easy",1,1,0,0.272,398
"1527",2,61,"TimePressureTest","difficult",1,1,0,0.254,399
"1528",2,83,"TimePressureTest","easy",1,0,0,0.279,400
"1529",2,27,"TimePressureTest","difficult",1,0,0,0.547,401
"1530",2,105,"TimePressureTest","difficult",1,NA,0,NA,402
"1531",2,67,"TimePressureTest","easy",1,1,0,0.201,403
"1532",2,66,"TimePressureTest","difficult",1,1,0,0.241,404
"1533",2,8,"TimePressureTest","difficult",1,0,0,0.492,405
"1534",2,4,"TimePressureTest","easy",1,1,0,0.283,406
"1535",2,120,"TimePressureTest","easy",1,1,0,0.259,407
"1536",2,82,"TimePressureTest","difficult",1,1,0,0.31,408
"1537",2,78,"TimePressureTest","difficult",1,0,0,0.594,409
"1538",2,95,"TimePressureTest","easy",1,0,0,0.41,410
"1539",2,19,"TimePressureTest","easy",1,1,0,0.97,411
"1540",2,80,"TimePressureTest","difficult",1,0,0,0.298,412
"1541",2,53,"TimePressureTest","easy",1,1,0,0.443,413
"1542",2,17,"TimePressureTest","easy",1,0,0,0.377,414
"1543",2,68,"TimePressureTest","easy",1,0,0,0.325,415
"1544",2,77,"TimePressureTest","difficult",1,0,0,0.408,416
"1545",2,76,"TimePressureTest","difficult",1,1,0,0.593,417
"1546",2,100,"TimePressureTest","difficult",1,0,0,0.5,418
"1547",2,50,"TimePressureTest","difficult",1,1,0,0.328,419
"1548",2,38,"TimePressureTest","difficult",1,NA,0,NA,420
"1549",2,41,"TimePressureTest","easy",1,1,0,0.166,421
"1550",2,90,"TimePressureTest","difficult",1,0,0,0.343,422
"1551",2,22,"TimePressureTest","easy",1,1,0,0.431,423
"1552",2,13,"TimePressureTest","easy",1,1,0,0.309,424
"1553",2,16,"TimePressureTest","difficult",1,0,0,0.249,425
"1554",2,35,"TimePressureTest","difficult",1,0,0,0.443,426
"1555",2,57,"TimePressureTest","easy",1,0,0,0.329,427
"1556",2,117,"TimePressureTest","easy",1,1,0,0.252,428
"1557",2,65,"TimePressureTest","difficult",1,0,0,0.273,429
"1558",2,71,"TimePressureTest","easy",1,0,0,0.211,430
"1559",2,43,"TimePressureTest","easy",1,0,0,0.244,431
"1560",2,25,"TimePressureTest","difficult",1,0,0,0.299,432
"1561",2,75,"TimePressureTest","easy",1,0,0,0.253,433
"1562",2,2,"TimePressureTest","difficult",1,1,0,0.885,434
"1563",2,29,"TimePressureTest","easy",1,1,0,0.511,435
"1564",2,3,"TimePressureTest","easy",1,1,0,0.263,436
"1565",2,91,"TimePressureTest","difficult",1,1,0,0.253,437
"1566",2,115,"TimePressureTest","difficult",1,1,0,0.525,438
"1567",2,21,"TimePressureTest","easy",1,1,0,0.229,439
"1568",2,108,"TimePressureTest","easy",1,1,0,0.379,440
"1569",2,64,"TimePressureTest","difficult",1,1,0,0.397,441
"1570",2,46,"TimePressureTest","easy",1,0,0,0.239,442
"1571",2,73,"TimePressureTest","easy",1,1,0,0.255,443
"1572",2,99,"TimePressureTest","easy",1,1,0,0.257,444
"1573",2,84,"TimePressureTest","difficult",1,0,0,0.229,445
"1574",2,55,"TimePressureTest","easy",1,1,0,0.662,446
"1575",2,48,"TimePressureTest","easy",1,1,0,0.232,447
"1576",2,34,"TimePressureTest","difficult",1,0,0,0.233,448
"1577",2,94,"TimePressureTest","easy",1,1,0,0.335,449
"1578",2,5,"TimePressureTest","difficult",1,1,0,0.268,450
"1579",2,104,"TimePressureTest","easy",1,1,0,0.291,451
"1580",2,114,"TimePressureTest","difficult",1,0,0,0.777,452
"1581",2,109,"TimePressureTest","easy",1,0,0,0.772,453
"1582",2,87,"TimePressureTest","difficult",1,0,0,0.394,454
"1583",2,63,"TimePressureTest","easy",1,0,0,0.442,455
"1584",2,72,"TimePressureTest","difficult",1,1,0,0.225,456
"1585",2,24,"TimePressureTest","easy",1,0,0,0.503,457
"1586",2,70,"TimePressureTest","easy",1,0,0,0.561,458
"1587",2,62,"TimePressureTest","easy",1,1,0,0.233,459
"1588",2,32,"TimePressureTest","easy",1,0,0,0.244,460
"1589",2,54,"TimePressureTest","difficult",1,0,0,0.293,461
"1590",2,49,"TimePressureTest","difficult",1,1,0,0.36,462
"1591",2,1,"TimePressureTest","easy",1,0,0,0.496,463
"1592",2,74,"TimePressureTest","easy",1,0,0,0.23,464
"1593",2,52,"TimePressureTest","difficult",1,0,0,0.242,465
"1594",2,79,"TimePressureTest","difficult",1,1,0,0.533,466
"1595",2,20,"TimePressureTest","difficult",1,0,0,0.439,467
"1596",2,37,"TimePressureTest","difficult",1,1,0,0.233,468
"1597",2,33,"TimePressureTest","difficult",1,0,0,0.421,469
"1598",2,106,"TimePressureTest","easy",1,1,0,0.635,470
"1599",2,15,"TimePressureTest","easy",1,1,0,0.312,471
"1600",2,10,"TimePressureTest","difficult",1,0,0,0.492,472
"1601",2,60,"TimePressureTest","difficult",1,0,0,0.469,473
"1602",2,103,"TimePressureTest","difficult",1,0,0,0.512,474
"1603",2,44,"TimePressureTest","easy",1,1,0,0.259,475
"1604",2,14,"TimePressureTest","difficult",1,1,0,0.678,476
"1605",2,23,"TimePressureTest","easy",1,0,0,0.56,477
"1606",2,30,"TimePressureTest","easy",1,1,0,0.773,478
"1607",2,97,"TimePressureTest","easy",1,1,0,0.517,479
"1608",2,98,"TimePressureTest","easy",1,0,0,0.323,480
"1609",2,86,"TimePressureTest","easy",1,0,0,0.157,481
"1610",2,45,"TimePressureTest","difficult",1,1,0,0.477,482
"1611",2,111,"TimePressureTest","easy",1,1,0,0.33,483
"1612",2,101,"TimePressureTest","easy",1,0,0,0.409,484
"1613",2,9,"TimePressureTest","difficult",1,1,0,0.467,485
"1614",2,118,"TimePressureTest","difficult",1,1,0,0.687,486
"1615",2,113,"TimePressureTest","difficult",1,0,0,0.294,487
"1616",2,7,"TimePressureTest","difficult",1,0,0,0.945,488
"1617",2,89,"TimePressureTest","easy",1,0,0,0.542,489
"1618",2,18,"TimePressureTest","difficult",1,0,0,0.739,490
"1619",2,51,"TimePressureTest","easy",1,1,0,0.491,491
"1620",2,116,"TimePressureTest","difficult",1,0,0,0.349,492
"1621",20,108,"NoPressureExposure","easy",1,NA,0,NA,1
"1622",20,76,"NoPressureExposure","difficult",1,NA,0,NA,2
"1623",20,93,"NoPressureExposure","easy",1,NA,0,NA,3
"1624",20,105,"NoPressureExposure","difficult",1,NA,0,NA,4
"1625",20,92,"NoPressureExposure","difficult",1,NA,0,NA,5
"1626",20,88,"NoPressureExposure","difficult",1,NA,0,NA,6
"1627",20,113,"NoPressureExposure","difficult",1,NA,0,NA,7
"1628",20,68,"NoPressureExposure","easy",1,NA,0,NA,8
"1629",20,78,"NoPressureExposure","difficult",1,NA,0,NA,9
"1630",20,66,"NoPressureExposure","difficult",1,NA,0,NA,10
"1631",20,86,"NoPressureExposure","easy",1,NA,0,NA,11
"1632",20,120,"NoPressureExposure","easy",1,NA,0,NA,12
"1633",20,74,"NoPressureExposure","easy",1,NA,0,NA,13
"1634",20,96,"NoPressureExposure","difficult",1,NA,0,NA,14
"1635",20,101,"NoPressureExposure","easy",1,NA,0,NA,15
"1636",20,80,"NoPressureExposure","difficult",1,NA,0,NA,16
"1637",20,64,"NoPressureExposure","difficult",1,NA,0,NA,17
"1638",20,114,"NoPressureExposure","difficult",1,NA,0,NA,18
"1639",20,107,"NoPressureExposure","easy",1,NA,0,NA,19
"1640",20,89,"NoPressureExposure","easy",1,NA,0,NA,20
"1641",20,97,"NoPressureExposure","easy",1,NA,0,NA,21
"1642",20,117,"NoPressureExposure","easy",1,NA,0,NA,22
"1643",20,81,"NoPressureExposure","difficult",1,NA,0,NA,23
"1644",20,73,"NoPressureExposure","easy",1,NA,0,NA,24
"1645",20,61,"NoPressureExposure","difficult",1,NA,0,NA,25
"1646",20,102,"NoPressureExposure","difficult",1,NA,0,NA,26
"1647",20,65,"NoPressureExposure","difficult",1,NA,0,NA,27
"1648",20,99,"NoPressureExposure","easy",1,NA,0,NA,28
"1649",20,71,"NoPressureExposure","easy",1,NA,0,NA,29
"1650",20,69,"NoPressureExposure","easy",1,NA,0,NA,30
"1651",20,70,"NoPressureExposure","easy",1,NA,0,NA,31
"1652",20,72,"NoPressureExposure","difficult",1,NA,0,NA,32
"1653",20,100,"NoPressureExposure","difficult",1,NA,0,NA,33
"1654",20,79,"NoPressureExposure","difficult",1,NA,0,NA,34
"1655",20,67,"NoPressureExposure","easy",1,NA,0,NA,35
"1656",20,62,"NoPressureExposure","easy",1,NA,0,NA,36
"1657",20,87,"NoPressureExposure","difficult",1,NA,0,NA,37
"1658",20,91,"NoPressureExposure","difficult",1,NA,0,NA,38
"1659",20,83,"NoPressureExposure","easy",1,NA,0,NA,39
"1660",20,106,"NoPressureExposure","easy",1,NA,0,NA,40
"1661",20,104,"NoPressureExposure","easy",1,NA,0,NA,41
"1662",20,85,"NoPressureExposure","difficult",1,NA,0,NA,42
"1663",20,116,"NoPressureExposure","difficult",1,NA,0,NA,43
"1664",20,98,"NoPressureExposure","easy",1,NA,0,NA,44
"1665",20,84,"NoPressureExposure","difficult",1,NA,0,NA,45
"1666",20,109,"NoPressureExposure","easy",1,NA,0,NA,46
"1667",20,90,"NoPressureExposure","difficult",1,NA,0,NA,47
"1668",20,103,"NoPressureExposure","difficult",1,NA,0,NA,48
"1669",20,111,"NoPressureExposure","easy",1,NA,0,NA,49
"1670",20,110,"NoPressureExposure","easy",1,NA,0,NA,50
"1671",20,75,"NoPressureExposure","easy",1,NA,0,NA,51
"1672",20,63,"NoPressureExposure","easy",1,NA,0,NA,52
"1673",20,95,"NoPressureExposure","easy",1,NA,0,NA,53
"1674",20,94,"NoPressureExposure","easy",1,NA,0,NA,54
"1675",20,118,"NoPressureExposure","difficult",1,NA,0,NA,55
"1676",20,115,"NoPressureExposure","difficult",1,NA,0,NA,56
"1677",20,112,"NoPressureExposure","easy",1,NA,0,NA,57
"1678",20,82,"NoPressureExposure","difficult",1,NA,0,NA,58
"1679",20,119,"NoPressureExposure","difficult",1,NA,0,NA,59
"1680",20,77,"NoPressureExposure","difficult",1,NA,0,NA,60
"1681",20,64,"NoPressureTest","difficult",1,1,0,6.327,373
"1682",20,56,"NoPressureTest","difficult",1,0,0,0.578,374
"1683",20,21,"NoPressureTest","easy",1,0,0,0.372,375
"1684",20,41,"NoPressureTest","easy",1,1,0,0.374,376
"1685",20,97,"NoPressureTest","easy",1,0,0,0.266,377
"1686",20,119,"NoPressureTest","difficult",1,0,0,3.28,378
"1687",20,72,"NoPressureTest","difficult",1,1,0,9.279,379
"1688",20,18,"NoPressureTest","difficult",1,1,0,2.082,380
"1689",20,27,"NoPressureTest","difficult",1,0,0,6.569,381
"1690",20,98,"NoPressureTest","easy",1,0,0,0.253,382
"1691",20,102,"NoPressureTest","difficult",1,1,0,0.239,383
"1692",20,32,"NoPressureTest","easy",1,0,0,0.317,384
"1693",20,109,"NoPressureTest","easy",1,0,0,0.362,385
"1694",20,71,"NoPressureTest","easy",1,0,0,0.449,386
"1695",20,104,"NoPressureTest","easy",1,1,0,0.33,387
"1696",20,110,"NoPressureTest","easy",1,0,0,0.389,388
"1697",20,4,"NoPressureTest","easy",1,0,0,0.688,389
"1698",20,116,"NoPressureTest","difficult",1,1,0,0.262,390
"1699",20,95,"NoPressureTest","easy",1,0,0,3.134,391
"1700",20,6,"NoPressureTest","easy",1,1,0,14.171,392
"1701",20,74,"NoPressureTest","easy",1,0,0,0.552,393
"1702",20,34,"NoPressureTest","difficult",1,1,0,0.702,394
"1703",20,69,"NoPressureTest","easy",1,0,0,0.648,395
"1704",20,42,"NoPressureTest","difficult",1,1,0,0.936,396
"1705",20,120,"NoPressureTest","easy",1,1,0,1.393,397
"1706",20,47,"NoPressureTest","easy",1,1,0,5.692,398
"1707",20,105,"NoPressureTest","difficult",1,1,0,4.777,399
"1708",20,37,"NoPressureTest","difficult",1,0,0,0.403,400
"1709",20,10,"NoPressureTest","difficult",1,0,0,0.761,401
"1710",20,88,"NoPressureTest","difficult",1,1,0,2.546,402
"1711",20,40,"NoPressureTest","difficult",1,1,0,2.633,403
"1712",20,8,"NoPressureTest","difficult",1,0,0,3.439,404
"1713",20,24,"NoPressureTest","easy",1,0,0,0.271,405
"1714",20,89,"NoPressureTest","easy",1,1,0,0.523,406
"1715",20,50,"NoPressureTest","difficult",1,0,0,1.289,407
"1716",20,83,"NoPressureTest","easy",1,0,0,0.499,408
"1717",20,52,"NoPressureTest","difficult",1,1,0,2.552,409
"1718",20,82,"NoPressureTest","difficult",1,0,0,2.147,410
"1719",20,108,"NoPressureTest","easy",1,1,0,0.871,411
"1720",20,75,"NoPressureTest","easy",1,0,0,0.436,412
"1721",20,7,"NoPressureTest","difficult",1,0,0,1.778,413
"1722",20,100,"NoPressureTest","difficult",1,0,0,2.745,414
"1723",20,43,"NoPressureTest","easy",1,0,0,0.58,415
"1724",20,23,"NoPressureTest","easy",1,0,0,0.637,416
"1725",20,26,"NoPressureTest","difficult",1,1,0,0.58,417
"1726",20,5,"NoPressureTest","difficult",1,1,0,0.55,418
"1727",20,1,"NoPressureTest","easy",1,1,0,0.803,419
"1728",20,77,"NoPressureTest","difficult",1,0,0,0.874,420
"1729",20,115,"NoPressureTest","difficult",1,1,0,0.551,421
"1730",20,85,"NoPressureTest","difficult",1,0,0,3.44,422
"1731",20,3,"NoPressureTest","easy",1,1,0,0.663,423
"1732",20,78,"NoPressureTest","difficult",1,0,0,4.28,424
"1733",20,55,"NoPressureTest","easy",1,0,0,1.592,425
"1734",20,17,"NoPressureTest","easy",1,0,0,1.578,426
"1735",20,66,"NoPressureTest","difficult",1,1,0,1.252,427
"1736",20,92,"NoPressureTest","difficult",1,0,0,1.645,428
"1737",20,106,"NoPressureTest","easy",1,1,0,0.469,429
"1738",20,60,"NoPressureTest","difficult",1,1,0,6.243,430
"1739",20,101,"NoPressureTest","easy",1,0,0,0.693,431
"1740",20,84,"NoPressureTest","difficult",1,0,0,1.045,432
"1741",20,107,"NoPressureTest","easy",1,1,0,1.91,433
"1742",20,113,"NoPressureTest","difficult",1,0,0,0.745,434
"1743",20,39,"NoPressureTest","easy",1,1,0,0.532,435
"1744",20,46,"NoPressureTest","easy",1,0,0,0.325,436
"1745",20,62,"NoPressureTest","easy",1,0,0,0.29,437
"1746",20,36,"NoPressureTest","difficult",1,0,0,4.131,438
"1747",20,117,"NoPressureTest","easy",1,1,0,1.034,439
"1748",20,79,"NoPressureTest","difficult",1,0,0,0.44,440
"1749",20,28,"NoPressureTest","difficult",1,1,0,0.712,441
"1750",20,87,"NoPressureTest","difficult",1,1,0,2.004,442
"1751",20,12,"NoPressureTest","easy",1,1,0,1.043,443
"1752",20,2,"NoPressureTest","difficult",1,1,0,2.192,444
"1753",20,73,"NoPressureTest","easy",1,1,0,6.245,445
"1754",20,15,"NoPressureTest","easy",1,1,0,0.383,446
"1755",20,111,"NoPressureTest","easy",1,0,0,0.35,447
"1756",20,57,"NoPressureTest","easy",1,0,0,0.677,448
"1757",20,16,"NoPressureTest","difficult",1,0,0,0.287,449
"1758",20,13,"NoPressureTest","easy",1,1,0,1.374,450
"1759",20,86,"NoPressureTest","easy",1,0,0,0.598,451
"1760",20,31,"NoPressureTest","easy",1,1,0,1.87,452
"1761",20,11,"NoPressureTest","easy",1,0,0,0.593,453
"1762",20,91,"NoPressureTest","difficult",1,1,0,0.474,454
"1763",20,35,"NoPressureTest","difficult",1,0,0,6.615,455
"1764",20,81,"NoPressureTest","difficult",1,0,0,1.367,456
"1765",20,30,"NoPressureTest","easy",1,0,0,0.488,457
"1766",20,59,"NoPressureTest","difficult",1,0,0,0.446,458
"1767",20,20,"NoPressureTest","difficult",1,0,0,1.531,459
"1768",20,112,"NoPressureTest","easy",1,1,0,0.45,460
"1769",20,54,"NoPressureTest","difficult",1,0,0,0.305,461
"1770",20,94,"NoPressureTest","easy",1,1,0,0.745,462
"1771",20,9,"NoPressureTest","difficult",1,1,0,0.28,463
"1772",20,58,"NoPressureTest","easy",1,1,0,0.868,464
"1773",20,49,"NoPressureTest","difficult",1,1,0,0.236,465
"1774",20,99,"NoPressureTest","easy",1,1,0,2.577,466
"1775",20,80,"NoPressureTest","difficult",1,0,0,0.468,467
"1776",20,68,"NoPressureTest","easy",1,0,0,2.846,468
"1777",20,96,"NoPressureTest","difficult",1,1,0,0.532,469
"1778",20,22,"NoPressureTest","easy",1,0,0,0.37,470
"1779",20,19,"NoPressureTest","easy",1,1,0,0.494,471
"1780",20,33,"NoPressureTest","difficult",1,1,0,0.316,472
"1781",20,45,"NoPressureTest","difficult",1,1,0,5.573,473
"1782",20,14,"NoPressureTest","difficult",1,1,0,0.543,474
"1783",20,61,"NoPressureTest","difficult",1,1,0,0.326,475
