"ExpName","Subject","Age","Sex","LanguageSkills","MajorStudies","Group","GroupDescription","SetCondition","Phase","Trial","Statement","Set","Status","Repetition","SexJudgment","SexJudgment.RT","TruthJudgment","TruthJudgment.RT","TruthJudgment.ACC"
"TimePressureExp1","1",29,"male","native",NA,1,"TimePressure","4","Practice",1,"IRA ist die Abkürzung für Irish Revolting Army",NA,NA,NA,"man",6809,NA,NA,NA
"TimePressureExp1","1",29,"male","native",NA,1,"TimePressure","4","Practice",2,"Winnetou ist ein in Deutschland nicht zulässiger Name",NA,NA,NA,"man",14931,NA,NA,NA
"TimePressureExp1","1",29,"male","native",NA,1,"TimePressure","4","Practice",3,"Winston Churchill wurde in einer Umkleidekabine geboren",NA,NA,NA,"woman",13786,NA,NA,NA
"TimePressureExp1","1",29,"male","native",NA,1,"TimePressure","4","Practice",4,"Wenn Kühe zuviele Karotten essen, wird ihre Milch orange",NA,NA,NA,"man",4555,NA,NA,NA
"TimePressureExp1","1",29,"male","native",NA,1,"TimePressure","4","Practice",5,"Der Weißmeer-Kanal ist der längste Kanal der Erde",NA,NA,NA,"man",627,NA,NA,NA
"TimePressureExp1","1",29,"male","native",NA,1,"TimePressure","4","Practice",6,"Ein Blatt Papier lässt sich genau achtmal in der Hälfte falten",NA,NA,NA,"man",2475,NA,NA,NA
"TimePressureExp1","1",29,"male","native",NA,1,"TimePressure","4","Practice",7,"Die dänische Flagge ist die älteste Nationalflagge der Welt",NA,NA,NA,"man",7270,NA,NA,NA
"TimePressureExp1","1",29,"male","native",NA,1,"TimePressure","4","Practice",8,"Giraffen können sich mit ihrer Zunge die Ohren auslecken",NA,NA,NA,"woman",2488,NA,NA,NA
"TimePressureExp1","1",29,"male","native",NA,1,"TimePressure","4","Practice",9,"Halluzinugene Pilze wurden von einem Arzt populär gemacht",NA,NA,NA,"man",2516,NA,NA,NA
"TimePressureExp1","1",29,"male","native",NA,1,"TimePressure","4","Practice",10,"Ein Gegenstand ist am Äquator leichter als am Nordpol",NA,NA,NA,"man",1638,NA,NA,NA
"TimePressureExp1","1",29,"male","native",NA,1,"TimePressure","4","Exposure",11,"Bei der Geburt haben Kängurus die Größe eines Tennisballs","SetC","false","no","woman",4237,NA,NA,NA
"TimePressureExp1","1",29,"male","native",NA,1,"TimePressure","4","Exposure",12,"Die Biene Maja wurde 1912 von Waldemar Bonsels erfunden","SetB","true","yes","woman",11158,NA,NA,NA
"TimePressureExp1","1",29,"male","native",NA,1,"TimePressure","4","Exposure",13,"Chopsuey ist eine amerikanische Erfindung, keine chinesische","SetC","true","no","man",10430,NA,NA,NA
"TimePressureExp1","1",29,"male","native",NA,1,"TimePressure","4","Exposure",14,"Elvis Presley gab prinzipiell immer nur eine einzige Zugabe","SetC","false","no","woman",1621,NA,NA,NA
"TimePressureExp1","1",29,"male","native",NA,1,"TimePressure","4","Exposure",15,"Zuckerwatte wurde von einem Flugzeugpiloten erfunden","SetC","false","no","woman",4709,NA,NA,NA
"TimePressureExp1","1",29,"male","native",NA,1,"TimePressure","4","Exposure",16,"Termiten erzeugen 30% des Methangehaltes der Atmosphäre","SetC","true","no","man",3050,NA,NA,NA
"TimePressureExp1","1",29,"male","native",NA,1,"TimePressure","4","Exposure",17,"Der Geschäftssitz der Rolling Stones befindet sich in Kanada","SetC","false","no","man",3686,NA,NA,NA
"TimePressureExp1","1",29,"male","native",NA,1,"TimePressure","4","Exposure",18,"Model Gisele Bündchen wollte Rettungsschwimmerin werden","SetC","false","no","woman",912,NA,NA,NA
"TimePressureExp1","1",29,"male","native",NA,1,"TimePressure","4","Exposure",19,"DAT steht in der Medizin für Demenz vom Alzheimer-Typ","SetC","true","no","woman",3732,NA,NA,NA
"TimePressureExp1","1",29,"male","native",NA,1,"TimePressure","4","Exposure",20,"Wer in Vietnam einen Hamster besitzt, muss Strafe bezahlen","SetB","true","yes","woman",6167,NA,NA,NA
"TimePressureExp1","1",29,"male","native",NA,1,"TimePressure","4","Exposure",21,"Der bisher größte Regentropfen hatte einen Radius von 0,6 cm","SetC","false","no","man",208,NA,NA,NA
"TimePressureExp1","1",29,"male","native",NA,1,"TimePressure","4","Exposure",22,"Die römische Gottheit Pluto steht für Streit und Zwietracht","SetC","false","no","woman",1702,NA,NA,NA
"TimePressureExp1","1",29,"male","native",NA,1,"TimePressure","4","Exposure",23,"Bei den italienischen Wahlen 2008 traten 62 Parteien an","SetC","false","no","man",1846,NA,NA,NA
"TimePressureExp1","1",29,"male","native",NA,1,"TimePressure","4","Exposure",24,"Laut Descartes wies Schielen bei Frauen auf Frigidität hin","SetB","false","yes","woman",9876,NA,NA,NA
"TimePressureExp1","1",29,"male","native",NA,1,"TimePressure","4","Exposure",25,"In Mexiko werden lebendige Käfer als Schmuck verwendet","SetB","true","yes","woman",572,NA,NA,NA
"TimePressureExp1","1",29,"male","native",NA,1,"TimePressure","4","Exposure",26,"Katzen haben in England sprichwörtlich elf Leben","SetB","false","yes","woman",1226,NA,NA,NA
"TimePressureExp1","1",29,"male","native",NA,1,"TimePressure","4","Exposure",27,"In Düsseldorf wird pro Jahr mehr Bier gebraut als in München","SetC","false","no","man",1818,NA,NA,NA
"TimePressureExp1","1",29,"male","native",NA,1,"TimePressure","4","Exposure",28,"In Papua-Neuguinea werden über 50 Sprachen gesprochen","SetC","false","no","man",641,NA,NA,NA
"TimePressureExp1","1",29,"male","native",NA,1,"TimePressure","4","Exposure",29,"Das größte bekannte Lebewesen ist der Hallimasch-Pilz","SetC","true","no","man",16013,NA,NA,NA
"TimePressureExp1","1",29,"male","native",NA,1,"TimePressure","4","Exposure",30,"Die Frau des größten Mannes der Welt ist 2,03 m groß","SetB","false","yes","man",5019,NA,NA,NA
"TimePressureExp1","1",29,"male","native",NA,1,"TimePressure","4","Exposure",31,"Die Tochter von Sydney Poitier heißt Sydney Poitier","SetB","true","yes","woman",2397,NA,NA,NA
"TimePressureExp1","1",29,"male","native",NA,1,"TimePressure","4","Exposure",32,"Clint Eastwood leidet an einer starken Schlangenphobie","SetB","false","yes","man",775,NA,NA,NA
"TimePressureExp1","1",29,"male","native",NA,1,"TimePressure","4","Exposure",33,"Regenwürmer kommen aus der Erde, um nicht zu ersticken","SetB","false","yes","woman",1116,NA,NA,NA
"TimePressureExp1","1",29,"male","native",NA,1,"TimePressure","4","Exposure",34,"Es gibt 56 verschiedene Arten eine Krawatte zu binden","SetC","false","no","woman",1831,NA,NA,NA
"TimePressureExp1","1",29,"male","native",NA,1,"TimePressure","4","Exposure",35,"Die Angst vor dem Küssen nennt man Philemaphobie","SetC","true","no","woman",6849,NA,NA,NA
"TimePressureExp1","1",29,"male","native",NA,1,"TimePressure","4","Exposure",36,"Die kanadische Sängerin Celine Dion hat acht Geschwister","SetB","false","yes","woman",337,NA,NA,NA
"TimePressureExp1","1",29,"male","native",NA,1,"TimePressure","4","Exposure",37,"Den Torbau eines griechischen Tempels nennt man Propyläen","SetB","true","yes","man",2098,NA,NA,NA
"TimePressureExp1","1",29,"male","native",NA,1,"TimePressure","4","Exposure",38,"Seelöwen flüchten, wenn man sie mit Wasser bespritzt","SetB","true","yes","woman",1298,NA,NA,NA
"TimePressureExp1","1",29,"male","native",NA,1,"TimePressure","4","Exposure",39,"Die Slowakei gehört nicht zu den NATO-Staaten","SetB","false","yes","man",3201,NA,NA,NA
"TimePressureExp1","1",29,"male","native",NA,1,"TimePressure","4","Exposure",40,"Eine Basilika ist ein römischer Tempel in quadratischer Form","SetB","false","yes","man",6747,NA,NA,NA
"TimePressureExp1","1",29,"male","native",NA,1,"TimePressure","4","Exposure",41,"Eine Kugelschreibermine reicht für einen 10 km langen Strich","SetB","true","yes","man",3814,NA,NA,NA
"TimePressureExp1","1",29,"male","native",NA,1,"TimePressure","4","Exposure",42,"Der Brachiosaurus war der größte existierende Dinosaurier","SetC","true","no","man",585,NA,NA,NA
"TimePressureExp1","1",29,"male","native",NA,1,"TimePressure","4","Exposure",43,"Albatrosse legen über 500 Kilometer an einem Tag zurück","SetB","false","yes","man",794,NA,NA,NA
"TimePressureExp1","1",29,"male","native",NA,1,"TimePressure","4","Exposure",44,"Eskimos haben Kühlschränke, damit ihr Essen nicht einfriert","SetC","true","no","woman",1797,NA,NA,NA
"TimePressureExp1","1",29,"male","native",NA,1,"TimePressure","4","Exposure",45,"Edmund Stoiber schrieb seine Dissertation über Erbrecht","SetB","false","yes","man",4167,NA,NA,NA
"TimePressureExp1","1",29,"male","native",NA,1,"TimePressure","4","Exposure",46,"Ein erwachsener Mensch schluckt rund 1500 Mal am Tag","SetC","false","no","woman",4050,NA,NA,NA
"TimePressureExp1","1",29,"male","native",NA,1,"TimePressure","4","Exposure",47,"Libyen ist das einzige Land mit einer einfarbigen Flagge","SetC","true","no","woman",5861,NA,NA,NA
"TimePressureExp1","1",29,"male","native",NA,1,"TimePressure","4","Exposure",48,"Der Name Kaviar geht auf das türkische Wort khavia zurück","SetB","true","yes","man",3937,NA,NA,NA
"TimePressureExp1","1",29,"male","native",NA,1,"TimePressure","4","Exposure",49,"Die Trefferquote von Wahrsagungen liegt laut Studie bei 20%","SetC","false","no","man",460,NA,NA,NA
"TimePressureExp1","1",29,"male","native",NA,1,"TimePressure","4","Exposure",50,"In der DDR gab es keinen einzigen erfolgreichen Banküberfall","SetB","true","yes","woman",2277,NA,NA,NA
"TimePressureExp1","1",29,"male","native",NA,1,"TimePressure","4","Exposure",51,"Die Hälfte aller Herzinfarkte tritt zwischen 6 und 12 Uhr auf","SetB","false","yes","man",777,NA,NA,NA
"TimePressureExp1","1",29,"male","native",NA,1,"TimePressure","4","Exposure",52,"Der Diätexperte Robert Atkins starb an Magersucht","SetC","false","no","woman",1073,NA,NA,NA
"TimePressureExp1","1",29,"male","native",NA,1,"TimePressure","4","Exposure",53,"Der kürzeste Krieg aller Zeiten dauerte nur 38 Minuten","SetC","true","no","man",579,NA,NA,NA
"TimePressureExp1","1",29,"male","native",NA,1,"TimePressure","4","Exposure",54,"Aufzeichnungen zufolge fiel in der Sahara schon 3 Mal Schnee","SetC","false","no","woman",2564,NA,NA,NA
"TimePressureExp1","1",29,"male","native",NA,1,"TimePressure","4","Exposure",55,"1971 wurde ein Zeiger der Berliner Gedächtniskirche gestohlen","SetC","false","no","man",2961,NA,NA,NA
"TimePressureExp1","1",29,"male","native",NA,1,"TimePressure","4","Exposure",56,"Eine mittelgroße Wolke wiegt etwa so viel wie 20 Elefanten","SetB","false","yes","woman",2570,NA,NA,NA
"TimePressureExp1","1",29,"male","native",NA,1,"TimePressure","4","Exposure",57,"Der Ketchup war ursprünglich eine mexikanische Erfindung","SetB","false","yes","woman",629,NA,NA,NA
"TimePressureExp1","1",29,"male","native",NA,1,"TimePressure","4","Exposure",58,"Den Predigtstuhl einer Moschee nennt man Minbar","SetB","true","yes","man",2689,NA,NA,NA
"TimePressureExp1","1",29,"male","native",NA,1,"TimePressure","4","Exposure",59,"Chromatophobie ist die unbegründete Angst vor Farben","SetC","true","no","woman",4965,NA,NA,NA
"TimePressureExp1","1",29,"male","native",NA,1,"TimePressure","4","Exposure",60,"Teebeutel bestehen meist aus Fasern der Bananenstaude","SetC","true","no","woman",1357,NA,NA,NA
"TimePressureExp1","1",29,"male","native",NA,1,"TimePressure","4","Exposure",61,"Der nicht sichtbare Teil des Eisbergs heißt Eisbergkiel","SetB","true","yes","man",4183,NA,NA,NA
"TimePressureExp1","1",29,"male","native",NA,1,"TimePressure","4","Exposure",62,"Ein Blauwal-Junges trinkt bis zu 600 Liter Muttermilch am Tag","SetB","true","yes","woman",2964,NA,NA,NA
"TimePressureExp1","1",29,"male","native",NA,1,"TimePressure","4","Exposure",63,"Die erste Ampel stand 1868 in England und explodierte","SetC","true","no","man",1840,NA,NA,NA
"TimePressureExp1","1",29,"male","native",NA,1,"TimePressure","4","Exposure",64,"In den USA gibt es die meisten Milliardäre auf der Welt","SetC","false","no","woman",954,NA,NA,NA
"TimePressureExp1","1",29,"male","native",NA,1,"TimePressure","4","Exposure",65,"Der Teil der Nase, der die Nasenlöcher trennt, heißt Kolumella","SetC","true","no","man",5398,NA,NA,NA
"TimePressureExp1","1",29,"male","native",NA,1,"TimePressure","4","Exposure",66,"Parmesan ist in Italien das am häufigsten gestohlene Produkt","SetC","true","no","woman",1093,NA,NA,NA
"TimePressureExp1","1",29,"male","native",NA,1,"TimePressure","4","Exposure",67,"Beim Noodling versucht man mit der Hand Fische zu fangen","SetB","true","yes","man",5114,NA,NA,NA
"TimePressureExp1","1",29,"male","native",NA,1,"TimePressure","4","Exposure",68,"Der Maikäfer heißt in den USA übersetzt Junikäfer","SetB","true","yes","woman",2161,NA,NA,NA
"TimePressureExp1","1",29,"male","native",NA,1,"TimePressure","4","Exposure",69,"Der Apollo 8 gelang die erste bemannte Mondlandung","SetC","false","no","man",8828,NA,NA,NA
"TimePressureExp1","1",29,"male","native",NA,1,"TimePressure","4","Exposure",70,"Bis dato haben rund 107 Mrd. Menschen auf der Erde gelebt","SetC","true","no","man",3221,NA,NA,NA
"TimePressureExp1","1",29,"male","native",NA,1,"TimePressure","4","Exposure",71,"In Deutschland werden ausgemusterte Geldscheine verbrannt","SetB","false","yes","woman",2467,NA,NA,NA
"TimePressureExp1","1",29,"male","native",NA,1,"TimePressure","4","Exposure",72,"Der Höchstwert einer Briefmarke am Automat ist 36,75 Euro","SetB","true","yes","man",1178,NA,NA,NA
"TimePressureExp1","1",29,"male","native",NA,1,"TimePressure","4","Exposure",73,"Pseudokyesis bedeutet Empfindung ohne einen Reiz","SetB","false","yes","woman",7123,NA,NA,NA
"TimePressureExp1","1",29,"male","native",NA,1,"TimePressure","4","Exposure",74,"Vier von fünf Menschen atmen nur durch ein Nasenloch","SetC","true","no","man",4504,NA,NA,NA
"TimePressureExp1","1",29,"male","native",NA,1,"TimePressure","4","Exposure",75,"Die Augen eines Straußes sind größer als sein Gehirn","SetC","true","no","man",5974,NA,NA,NA
"TimePressureExp1","1",29,"male","native",NA,1,"TimePressure","4","Exposure",76,"In Schweden ist  Y erst seit kurzem ein offizieller Buchstabe","SetB","false","yes","woman",3383,NA,NA,NA
"TimePressureExp1","1",29,"male","native",NA,1,"TimePressure","4","Exposure",77,"Pamela Andersons Vater ist in einem Hochbegabtenverein","SetC","true","no","woman",13942,NA,NA,NA
"TimePressureExp1","1",29,"male","native",NA,1,"TimePressure","4","Exposure",78,"Der Durchmesser des Äquators beträgt 12.714 Kilometer","SetC","false","no","man",728,NA,NA,NA
"TimePressureExp1","1",29,"male","native",NA,1,"TimePressure","4","Exposure",79,"Die Freiheitsstatue misst 112,53 Meter bis zur Fackelspitze","SetB","false","yes","man",438,NA,NA,NA
"TimePressureExp1","1",29,"male","native",NA,1,"TimePressure","4","Exposure",80,"Die Fettschicht von Walen und Robben nennt man Blubber","SetC","true","no","woman",8122,NA,NA,NA
"TimePressureExp1","1",29,"male","native",NA,1,"TimePressure","4","Exposure",81,"Keime sterben auf Holz schneller ab als auf Plastik","SetC","true","no","woman",2694,NA,NA,NA
"TimePressureExp1","1",29,"male","native",NA,1,"TimePressure","4","Exposure",82,"Um eine Mahlzeit zu verdauen benötigt ein Wombat 14 Tage","SetB","true","yes","man",2266,NA,NA,NA
"TimePressureExp1","1",29,"male","native",NA,1,"TimePressure","4","Exposure",83,"Delphine schwimmen höchstens 54 Kilometer pro Stunde","SetB","true","yes","man",809,NA,NA,NA
"TimePressureExp1","1",29,"male","native",NA,1,"TimePressure","4","Exposure",84,"Der richtige Name des Krümelmonsters lautet Sidney","SetC","false","no","woman",871,NA,NA,NA
"TimePressureExp1","1",29,"male","native",NA,1,"TimePressure","4","Exposure",85,"Der Erfinder des Bikini war ursprünglich Schuhdesigner","SetB","false","yes","woman",625,NA,NA,NA
"TimePressureExp1","1",29,"male","native",NA,1,"TimePressure","4","Exposure",86,"Elefanten können als einzige Säugetiere nicht springen","SetB","true","yes","woman",5819,NA,NA,NA
"TimePressureExp1","1",29,"male","native",NA,1,"TimePressure","4","Exposure",87,"Goethe schrieb genau 64 Jahre lang an seinem Faust","SetB","true","yes","man",732,NA,NA,NA
"TimePressureExp1","1",29,"male","native",NA,1,"TimePressure","4","Exposure",88,"Einen kastrierten Esel nennt man auch Macker oder Knilch","SetB","true","yes","man",2538,NA,NA,NA
"TimePressureExp1","1",29,"male","native",NA,1,"TimePressure","4","Exposure",89,"Frauen bekommen häufiger einen Schluckauf als Männer","SetB","false","yes","woman",1568,NA,NA,NA
"TimePressureExp1","1",29,"male","native",NA,1,"TimePressure","4","Exposure",90,"Die meisten Arbeitsunfälle passieren an einem Mittwoch","SetB","false","yes","woman",2181,NA,NA,NA
"TimePressureExp1","1",29,"male","native",NA,1,"TimePressure","4","Practice",394,"Die Englische Queen ist gelernte Lastwagenmechanikerin",NA,NA,NA,NA,NA,NA,NA,NA
"TimePressureExp1","1",29,"male","native",NA,1,"TimePressure","4","Practice",395,"Margaret Thatcher arbeitete einst für einen Pharmakonzern",NA,NA,NA,NA,NA,"false",380,NA
"TimePressureExp1","1",29,"male","native",NA,1,"TimePressure","4","Practice",396,"Die Titanic hatte eine Länge von insgesamt 289,68 Metern",NA,NA,NA,NA,NA,"true",308,NA
"TimePressureExp1","1",29,"male","native",NA,1,"TimePressure","4","Practice",397,"Der sicherste Platz in einem Auto ist hinten rechts",NA,NA,NA,NA,NA,"true",637,NA
"TimePressureExp1","1",29,"male","native",NA,1,"TimePressure","4","Practice",398,"Der Notruf Mayday ist eine Hollywood-Erfindung",NA,NA,NA,NA,NA,"true",601,NA
"TimePressureExp1","1",29,"male","native",NA,1,"TimePressure","4","Practice",399,"Schweizer tragen den Ehering nicht rechts, sondern links",NA,NA,NA,NA,NA,NA,NA,NA
"TimePressureExp1","1",29,"male","native",NA,1,"TimePressure","4","Practice",400,"Auf den Philippinen herrscht auf den Straßen Linksverkehr",NA,NA,NA,NA,NA,"true",352,NA
"TimePressureExp1","1",29,"male","native",NA,1,"TimePressure","4","Practice",401,"Im Amazonas leben unter anderem rosafarbene Delphine",NA,NA,NA,NA,NA,"true",275,NA
"TimePressureExp1","1",29,"male","native",NA,1,"TimePressure","4","Practice",402,"Schimpansen können bereits von Geburt an schwimmen",NA,NA,NA,NA,NA,"false",263,NA
"TimePressureExp1","1",29,"male","native",NA,1,"TimePressure","4","Practice",403,"In den Casinos von Las Vegas sind keine Uhren erlaubt",NA,NA,NA,NA,NA,NA,NA,NA
"TimePressureExp1","1",29,"male","native",NA,1,"TimePressure","4","Test",404,"Pseudokyesis bedeutet Empfindung ohne einen Reiz","SetB","false","yes",NA,NA,"true",424,0
"TimePressureExp1","1",29,"male","native",NA,1,"TimePressure","4","Test",405,"Einen kastrierten Esel nennt man auch Macker oder Knilch","SetB","true","yes",NA,NA,NA,NA,NA
"TimePressureExp1","1",29,"male","native",NA,1,"TimePressure","4","Test",406,"Das italienische Tiramisu heißt übersetzt Halt mich fest!","SetA","false","no",NA,NA,"false",333,1
"TimePressureExp1","1",29,"male","native",NA,1,"TimePressure","4","Test",407,"Der Speisesaal eines Klosters wird Refektorium genannt","SetA","true","no",NA,NA,"true",572,1
"TimePressureExp1","1",29,"male","native",NA,1,"TimePressure","4","Test",408,"Katzen haben in England sprichwörtlich elf Leben","SetB","false","yes",NA,NA,"false",554,1
"TimePressureExp1","1",29,"male","native",NA,1,"TimePressure","4","Test",409,"Goethe schrieb genau 64 Jahre lang an seinem Faust","SetB","true","yes",NA,NA,NA,NA,NA
"TimePressureExp1","1",29,"male","native",NA,1,"TimePressure","4","Test",410,"Der Name Kaviar geht auf das türkische Wort khavia zurück","SetB","true","yes",NA,NA,"false",233,0
"TimePressureExp1","1",29,"male","native",NA,1,"TimePressure","4","Test",411,"Auf indischen Rupienscheinen sind 12 verschiedene Schriften","SetA","false","no",NA,NA,"true",500,0
"TimePressureExp1","1",29,"male","native",NA,1,"TimePressure","4","Test",412,"In Deutschland werden ausgemusterte Geldscheine verbrannt","SetB","false","yes",NA,NA,"true",261,0
"TimePressureExp1","1",29,"male","native",NA,1,"TimePressure","4","Test",413,"Die meisten Arbeitsunfälle passieren an einem Mittwoch","SetB","false","yes",NA,NA,NA,NA,NA
"TimePressureExp1","1",29,"male","native",NA,1,"TimePressure","4","Test",414,"Clint Eastwood leidet an einer starken Schlangenphobie","SetB","false","yes",NA,NA,"true",203,0
"TimePressureExp1","1",29,"male","native",NA,1,"TimePressure","4","Test",415,"Die Biene Maja wurde 1912 von Waldemar Bonsels erfunden","SetB","true","yes",NA,NA,"false",257,0
"TimePressureExp1","1",29,"male","native",NA,1,"TimePressure","4","Test",416,"Blut fließt in ca. 46 Sekunden einmal durch den ganzen Körper","SetA","false","no",NA,NA,"false",337,1
"TimePressureExp1","1",29,"male","native",NA,1,"TimePressure","4","Test",417,"Männliche Affen können im Alter eine Glatze bekommen","SetA","true","no",NA,NA,"true",226,1
"TimePressureExp1","1",29,"male","native",NA,1,"TimePressure","4","Test",418,"Die Hälfte aller Herzinfarkte tritt zwischen 6 und 12 Uhr auf","SetB","false","yes",NA,NA,"true",251,0
"TimePressureExp1","1",29,"male","native",NA,1,"TimePressure","4","Test",419,"Das Rote Meer verdankt seinen Namen einem Schreibfehler","SetA","true","no",NA,NA,NA,NA,NA
"TimePressureExp1","1",29,"male","native",NA,1,"TimePressure","4","Test",420,"Für ein Kilo Honig müssen Bienen 1 Millionen Blüten anfliegen","SetA","false","no",NA,NA,"true",238,0
"TimePressureExp1","1",29,"male","native",NA,1,"TimePressure","4","Test",421,"Der Ausdruck 08/15 geht auf einen Militärbefehl zurück","SetA","false","no",NA,NA,"true",265,0
"TimePressureExp1","1",29,"male","native",NA,1,"TimePressure","4","Test",422,"Der Nacktmull ist das schmerzempfindlichste Tier der Welt","SetA","false","no",NA,NA,NA,NA,NA
"TimePressureExp1","1",29,"male","native",NA,1,"TimePressure","4","Test",423,"Der Erfinder des Bikini war ursprünglich Schuhdesigner","SetB","false","yes",NA,NA,"true",335,0
"TimePressureExp1","1",29,"male","native",NA,1,"TimePressure","4","Test",424,"Um eine Mahlzeit zu verdauen benötigt ein Wombat 14 Tage","SetB","true","yes",NA,NA,"true",509,1
"TimePressureExp1","1",29,"male","native",NA,1,"TimePressure","4","Test",425,"Eine Kugelschreibermine reicht für einen 10 km langen Strich","SetB","true","yes",NA,NA,"true",192,1
"TimePressureExp1","1",29,"male","native",NA,1,"TimePressure","4","Test",426,"Den Predigtstuhl einer Moschee nennt man Minbar","SetB","true","yes",NA,NA,"false",387,0
"TimePressureExp1","1",29,"male","native",NA,1,"TimePressure","4","Test",427,"Deutsche Windmühlen drehen sich immer im Uhrzeigersinn","SetA","false","no",NA,NA,"true",620,0
"TimePressureExp1","1",29,"male","native",NA,1,"TimePressure","4","Test",428,"Das erste Instrument, das Jimi Hendrix spielte, war eine Geige","SetA","false","no",NA,NA,"true",260,0
"TimePressureExp1","1",29,"male","native",NA,1,"TimePressure","4","Test",429,"Michael Jackson besaß ein Patent auf seinen Tanzstil","SetA","false","no",NA,NA,"false",293,1
"TimePressureExp1","1",29,"male","native",NA,1,"TimePressure","4","Test",430,"Das Cc bei E-Mails steht für Carbon Copy (Kohledurchschlag)","SetA","true","no",NA,NA,"false",555,0
"TimePressureExp1","1",29,"male","native",NA,1,"TimePressure","4","Test",431,"Die Slowakei gehört nicht zu den NATO-Staaten","SetB","false","yes",NA,NA,"true",342,0
"TimePressureExp1","1",29,"male","native",NA,1,"TimePressure","4","Test",432,"Der nicht sichtbare Teil des Eisbergs heißt Eisbergkiel","SetB","true","yes",NA,NA,"false",279,0
"TimePressureExp1","1",29,"male","native",NA,1,"TimePressure","4","Test",433,"Die Franzosen essen rund 1 Milliarde Schnecken pro Jahr","SetA","false","no",NA,NA,"true",282,0
"TimePressureExp1","1",29,"male","native",NA,1,"TimePressure","4","Test",434,"Der erste Roman wurde von einer Chinesin geschrieben","SetA","false","no",NA,NA,"true",240,0
"TimePressureExp1","1",29,"male","native",NA,1,"TimePressure","4","Test",435,"Die Giraffe und der Mensch haben gleich viele Halswirbel","SetA","true","no",NA,NA,NA,NA,NA
"TimePressureExp1","1",29,"male","native",NA,1,"TimePressure","4","Test",436,"Die größte Kaninchenrasse der Welt ist der Deutsche Hammler","SetA","false","no",NA,NA,"true",433,0
"TimePressureExp1","1",29,"male","native",NA,1,"TimePressure","4","Test",437,"Die Frau des größten Mannes der Welt ist 2,03 m groß","SetB","false","yes",NA,NA,"true",227,0
"TimePressureExp1","1",29,"male","native",NA,1,"TimePressure","4","Test",438,"Die Freiheitsstatue misst 112,53 Meter bis zur Fackelspitze","SetB","false","yes",NA,NA,"true",236,0
"TimePressureExp1","1",29,"male","native",NA,1,"TimePressure","4","Test",439,"Albatrosse legen über 500 Kilometer an einem Tag zurück","SetB","false","yes",NA,NA,"true",520,0
"TimePressureExp1","1",29,"male","native",NA,1,"TimePressure","4","Test",440,"Regenwürmer kommen aus der Erde, um nicht zu ersticken","SetB","false","yes",NA,NA,"true",347,0
"TimePressureExp1","1",29,"male","native",NA,1,"TimePressure","4","Test",441,"Die US-Präsidenten Adams und Jefferson starben am 4.Juli","SetA","true","no",NA,NA,"false",523,0
"TimePressureExp1","1",29,"male","native",NA,1,"TimePressure","4","Test",442,"Die abergläubische Angst vor der Zahl 13 heißt Triptophobie","SetA","false","no",NA,NA,NA,NA,NA
"TimePressureExp1","1",29,"male","native",NA,1,"TimePressure","4","Test",443,"Das spanische Wort für Ehefrau ist das gleiche wie für Kerker","SetA","false","no",NA,NA,"false",598,1
"TimePressureExp1","1",29,"male","native",NA,1,"TimePressure","4","Test",444,"Eine mittelgroße Wolke wiegt etwa so viel wie 20 Elefanten","SetB","false","yes",NA,NA,"true",393,0
"TimePressureExp1","1",29,"male","native",NA,1,"TimePressure","4","Test",445,"Eine Basilika ist ein römischer Tempel in quadratischer Form","SetB","false","yes",NA,NA,"false",405,1
"TimePressureExp1","1",29,"male","native",NA,1,"TimePressure","4","Test",446,"Ein Mensch geht am Tag durchschnittlich 6000 Schritte","SetA","true","no",NA,NA,"false",547,0
"TimePressureExp1","1",29,"male","native",NA,1,"TimePressure","4","Test",447,"Der Otto Normalverbraucher heißt in Italien Sergio Rossi","SetA","false","no",NA,NA,"true",619,0
"TimePressureExp1","1",29,"male","native",NA,1,"TimePressure","4","Test",448,"Nur Menschen und Affen besitzen einen Bauchnabel","SetA","true","no",NA,NA,NA,NA,NA
"TimePressureExp1","1",29,"male","native",NA,1,"TimePressure","4","Test",449,"Der Höchstwert einer Briefmarke am Automat ist 36,75 Euro","SetB","true","yes",NA,NA,"true",168,1
"TimePressureExp1","1",29,"male","native",NA,1,"TimePressure","4","Test",450,"Delphine schwimmen höchstens 54 Kilometer pro Stunde","SetB","true","yes",NA,NA,"false",295,0
"TimePressureExp1","1",29,"male","native",NA,1,"TimePressure","4","Test",451,"Das lauteste Geräusch im Tierreich erzeugt der Pistolenkrebs","SetA","true","no",NA,NA,NA,NA,NA
"TimePressureExp1","1",29,"male","native",NA,1,"TimePressure","4","Test",452,"Bud Spencer hat ein Patent auf einen Spazierstock mit Sitz","SetA","true","no",NA,NA,"true",258,1
"TimePressureExp1","1",29,"male","native",NA,1,"TimePressure","4","Test",453,"Rainer Maria Rilke wurde wie ein Mädchen erzogen","SetA","true","no",NA,NA,"true",610,1
"TimePressureExp1","1",29,"male","native",NA,1,"TimePressure","4","Test",454,"In der Gebärdensprache gibt es auch regionale Dialekte","SetA","true","no",NA,NA,NA,NA,NA
"TimePressureExp1","1",29,"male","native",NA,1,"TimePressure","4","Test",455,"Ein Blauwal kann einen ausgewachsenen Ochsen schlucken","SetA","false","no",NA,NA,"true",77,0
"TimePressureExp1","1",29,"male","native",NA,1,"TimePressure","4","Test",456,"Beim Noodling versucht man mit der Hand Fische zu fangen","SetB","true","yes",NA,NA,"true",568,1
"TimePressureExp1","1",29,"male","native",NA,1,"TimePressure","4","Test",457,"Der Maikäfer heißt in den USA übersetzt Junikäfer","SetB","true","yes",NA,NA,"true",326,1
"TimePressureExp1","1",29,"male","native",NA,1,"TimePressure","4","Test",458,"Frauen bekommen häufiger einen Schluckauf als Männer","SetB","false","yes",NA,NA,NA,NA,NA
"TimePressureExp1","1",29,"male","native",NA,1,"TimePressure","4","Test",459,"Das erste Land, in dem Frauen wählen durften, war Finnland","SetA","false","no",NA,NA,NA,NA,NA
"TimePressureExp1","1",29,"male","native",NA,1,"TimePressure","4","Test",460,"Die kanadische Sängerin Celine Dion hat acht Geschwister","SetB","false","yes",NA,NA,"false",190,1
"TimePressureExp1","1",29,"male","native",NA,1,"TimePressure","4","Test",461,"Das Wort Kanada bedeutet ursprünglich kleines Städtchen","SetA","false","no",NA,NA,NA,NA,NA
"TimePressureExp1","1",29,"male","native",NA,1,"TimePressure","4","Test",462,"Elefanten können als einzige Säugetiere nicht springen","SetB","true","yes",NA,NA,"true",246,1
"TimePressureExp1","1",29,"male","native",NA,1,"TimePressure","4","Test",463,"Die Ohren der Laubheuschrecke sitzen unter ihren Knien","SetA","true","no",NA,NA,"false",580,0
"TimePressureExp1","1",29,"male","native",NA,1,"TimePressure","4","Test",464,"Kleopatra war keine Ägypterin, sie kam aus Griechenland","SetA","true","no",NA,NA,"false",325,0
"TimePressureExp1","1",29,"male","native",NA,1,"TimePressure","4","Test",465,"Edmund Stoiber schrieb seine Dissertation über Erbrecht","SetB","false","yes",NA,NA,"true",275,0
"TimePressureExp1","1",29,"male","native",NA,1,"TimePressure","4","Test",466,"Schnapserfinder Jim Beam hieß eigentlich Jakob Böhm","SetA","true","no",NA,NA,"false",358,0
"TimePressureExp1","1",29,"male","native",NA,1,"TimePressure","4","Test",467,"Der Name Wowereit heißt auf Litauisch Eichhörnchen","SetA","true","no",NA,NA,NA,NA,NA
"TimePressureExp1","1",29,"male","native",NA,1,"TimePressure","4","Test",468,"Jährlich fallen rund 20.000 Meteoriten auf die Erde herab","SetA","true","no",NA,NA,"true",238,1
"TimePressureExp1","1",29,"male","native",NA,1,"TimePressure","4","Test",469,"Laut Descartes wies Schielen bei Frauen auf Frigidität hin","SetB","false","yes",NA,NA,"false",340,1
"TimePressureExp1","1",29,"male","native",NA,1,"TimePressure","4","Test",470,"Ein Blauwal-Junges trinkt bis zu 600 Liter Muttermilch am Tag","SetB","true","yes",NA,NA,"true",379,1
"TimePressureExp1","1",29,"male","native",NA,1,"TimePressure","4","Test",471,"Die Tochter von Sydney Poitier heißt Sydney Poitier","SetB","true","yes",NA,NA,"true",322,1
"TimePressureExp1","1",29,"male","native",NA,1,"TimePressure","4","Test",472,"Seelöwen flüchten, wenn man sie mit Wasser bespritzt","SetB","true","yes",NA,NA,"true",273,1
"TimePressureExp1","1",29,"male","native",NA,1,"TimePressure","4","Test",473,"Der Ketchup war ursprünglich eine mexikanische Erfindung","SetB","false","yes",NA,NA,"true",292,0
"TimePressureExp1","1",29,"male","native",NA,1,"TimePressure","4","Test",474,"In der DDR gab es keinen einzigen erfolgreichen Banküberfall","SetB","true","yes",NA,NA,"true",250,1
"TimePressureExp1","1",29,"male","native",NA,1,"TimePressure","4","Test",475,"In Schweden ist  Y erst seit kurzem ein offizieller Buchstabe","SetB","false","yes",NA,NA,"false",281,1
"TimePressureExp1","1",29,"male","native",NA,1,"TimePressure","4","Test",476,"Es gibt ein deutschsprachiges Dorf nahe der Grenze zu China","SetA","true","no",NA,NA,"true",571,1
"TimePressureExp1","1",29,"male","native",NA,1,"TimePressure","4","Test",477,"Nicole Kidman hat panische Angst vor Schmetterlingen","SetA","true","no",NA,NA,"true",265,1
"TimePressureExp1","1",29,"male","native",NA,1,"TimePressure","4","Test",478,"Im alten Ägypten wurde mit Krokodilmist verhütet","SetA","true","no",NA,NA,NA,NA,NA
"TimePressureExp1","1",29,"male","native",NA,1,"TimePressure","4","Test",479,"Wer in Vietnam einen Hamster besitzt, muss Strafe bezahlen","SetB","true","yes",NA,NA,"true",47,1
"TimePressureExp1","1",29,"male","native",NA,1,"TimePressure","4","Test",480,"Die Angst vor langen Wörtern nennt man Hippoendomanie","SetA","false","no",NA,NA,"false",582,1
"TimePressureExp1","1",29,"male","native",NA,1,"TimePressure","4","Test",481,"John Lennons voller Name war John George William Lennon","SetA","false","no",NA,NA,"true",597,0
"TimePressureExp1","1",29,"male","native",NA,1,"TimePressure","4","Test",482,"In Mexiko werden lebendige Käfer als Schmuck verwendet","SetB","true","yes",NA,NA,"true",313,1
"TimePressureExp1","1",29,"male","native",NA,1,"TimePressure","4","Test",483,"Den Torbau eines griechischen Tempels nennt man Propyläen","SetB","true","yes",NA,NA,"true",564,1
"TimePressureExp1","13",22,"female","native","Psychology",1,"TimePressure","5","Practice",1,"Ein Gegenstand ist am Äquator leichter als am Nordpol",NA,NA,NA,"man",4118,NA,NA,NA
"TimePressureExp1","13",22,"female","native","Psychology",1,"TimePressure","5","Practice",2,"Winston Churchill wurde in einer Umkleidekabine geboren",NA,NA,NA,"woman",406,NA,NA,NA
"TimePressureExp1","13",22,"female","native","Psychology",1,"TimePressure","5","Practice",3,"Der Weißmeer-Kanal ist der längste Kanal der Erde",NA,NA,NA,"man",452,NA,NA,NA
"TimePressureExp1","13",22,"female","native","Psychology",1,"TimePressure","5","Practice",4,"Wenn Kühe zuviele Karotten essen, wird ihre Milch orange",NA,NA,NA,"woman",1114,NA,NA,NA
"TimePressureExp1","13",22,"female","native","Psychology",1,"TimePressure","5","Practice",5,"Winnetou ist ein in Deutschland nicht zulässiger Name",NA,NA,NA,"woman",1636,NA,NA,NA
"TimePressureExp1","13",22,"female","native","Psychology",1,"TimePressure","5","Practice",6,"Die dänische Flagge ist die älteste Nationalflagge der Welt",NA,NA,NA,"woman",871,NA,NA,NA
"TimePressureExp1","13",22,"female","native","Psychology",1,"TimePressure","5","Practice",7,"Giraffen können sich mit ihrer Zunge die Ohren auslecken",NA,NA,NA,"woman",466,NA,NA,NA
"TimePressureExp1","13",22,"female","native","Psychology",1,"TimePressure","5","Practice",8,"Ein Blatt Papier lässt sich genau achtmal in der Hälfte falten",NA,NA,NA,"woman",2858,NA,NA,NA
"TimePressureExp1","13",22,"female","native","Psychology",1,"TimePressure","5","Practice",9,"Halluzinugene Pilze wurden von einem Arzt populär gemacht",NA,NA,NA,"man",353,NA,NA,NA
"TimePressureExp1","13",22,"female","native","Psychology",1,"TimePressure","5","Practice",10,"IRA ist die Abkürzung für Irish Revolting Army",NA,NA,NA,"man",468,NA,NA,NA
"TimePressureExp1","13",22,"female","native","Psychology",1,"TimePressure","5","Exposure",11,"Nur Menschen und Affen besitzen einen Bauchnabel","SetA","true","no","woman",2207,NA,NA,NA
"TimePressureExp1","13",22,"female","native","Psychology",1,"TimePressure","5","Exposure",12,"Schnapserfinder Jim Beam hieß eigentlich Jakob Böhm","SetA","true","no","man",547,NA,NA,NA
"TimePressureExp1","13",22,"female","native","Psychology",1,"TimePressure","5","Exposure",13,"Teebeutel bestehen meist aus Fasern der Bananenstaude","SetC","true","yes","woman",2995,NA,NA,NA
"TimePressureExp1","13",22,"female","native","Psychology",1,"TimePressure","5","Exposure",14,"Der richtige Name des Krümelmonsters lautet Sidney","SetC","false","yes","woman",1165,NA,NA,NA
"TimePressureExp1","13",22,"female","native","Psychology",1,"TimePressure","5","Exposure",15,"Der bisher größte Regentropfen hatte einen Radius von 0,6 cm","SetC","false","yes","man",387,NA,NA,NA
"TimePressureExp1","13",22,"female","native","Psychology",1,"TimePressure","5","Exposure",16,"Für ein Kilo Honig müssen Bienen 1 Millionen Blüten anfliegen","SetA","false","no","man",1083,NA,NA,NA
"TimePressureExp1","13",22,"female","native","Psychology",1,"TimePressure","5","Exposure",17,"In Papua-Neuguinea werden über 50 Sprachen gesprochen","SetC","false","yes","woman",417,NA,NA,NA
"TimePressureExp1","13",22,"female","native","Psychology",1,"TimePressure","5","Exposure",18,"Jährlich fallen rund 20.000 Meteoriten auf die Erde herab","SetA","true","no","man",321,NA,NA,NA
"TimePressureExp1","13",22,"female","native","Psychology",1,"TimePressure","5","Exposure",19,"Der Nacktmull ist das schmerzempfindlichste Tier der Welt","SetA","false","no","woman",844,NA,NA,NA
"TimePressureExp1","13",22,"female","native","Psychology",1,"TimePressure","5","Exposure",20,"Der kürzeste Krieg aller Zeiten dauerte nur 38 Minuten","SetC","true","yes","man",354,NA,NA,NA
"TimePressureExp1","13",22,"female","native","Psychology",1,"TimePressure","5","Exposure",21,"Auf indischen Rupienscheinen sind 12 verschiedene Schriften","SetA","false","no","man",1477,NA,NA,NA
"TimePressureExp1","13",22,"female","native","Psychology",1,"TimePressure","5","Exposure",22,"Pamela Andersons Vater ist in einem Hochbegabtenverein","SetC","true","yes","woman",392,NA,NA,NA
"TimePressureExp1","13",22,"female","native","Psychology",1,"TimePressure","5","Exposure",23,"In Düsseldorf wird pro Jahr mehr Bier gebraut als in München","SetC","false","yes","man",1347,NA,NA,NA
"TimePressureExp1","13",22,"female","native","Psychology",1,"TimePressure","5","Exposure",24,"Bis dato haben rund 107 Mrd. Menschen auf der Erde gelebt","SetC","true","yes","man",1387,NA,NA,NA
"TimePressureExp1","13",22,"female","native","Psychology",1,"TimePressure","5","Exposure",25,"Es gibt 56 verschiedene Arten eine Krawatte zu binden","SetC","false","yes","man",250,NA,NA,NA
"TimePressureExp1","13",22,"female","native","Psychology",1,"TimePressure","5","Exposure",26,"Das spanische Wort für Ehefrau ist das gleiche wie für Kerker","SetA","false","no","woman",1736,NA,NA,NA
"TimePressureExp1","13",22,"female","native","Psychology",1,"TimePressure","5","Exposure",27,"Parmesan ist in Italien das am häufigsten gestohlene Produkt","SetC","true","yes","woman",1392,NA,NA,NA
"TimePressureExp1","13",22,"female","native","Psychology",1,"TimePressure","5","Exposure",28,"In der Gebärdensprache gibt es auch regionale Dialekte","SetA","true","no","woman",802,NA,NA,NA
"TimePressureExp1","13",22,"female","native","Psychology",1,"TimePressure","5","Exposure",29,"Der Speisesaal eines Klosters wird Refektorium genannt","SetA","true","no","woman",544,NA,NA,NA
"TimePressureExp1","13",22,"female","native","Psychology",1,"TimePressure","5","Exposure",30,"Die Franzosen essen rund 1 Milliarde Schnecken pro Jahr","SetA","false","no","man",441,NA,NA,NA
"TimePressureExp1","13",22,"female","native","Psychology",1,"TimePressure","5","Exposure",31,"Die römische Gottheit Pluto steht für Streit und Zwietracht","SetC","false","yes","man",796,NA,NA,NA
"TimePressureExp1","13",22,"female","native","Psychology",1,"TimePressure","5","Exposure",32,"Die Ohren der Laubheuschrecke sitzen unter ihren Knien","SetA","true","no","man",694,NA,NA,NA
"TimePressureExp1","13",22,"female","native","Psychology",1,"TimePressure","5","Exposure",33,"Blut fließt in ca. 46 Sekunden einmal durch den ganzen Körper","SetA","false","no","man",684,NA,NA,NA
"TimePressureExp1","13",22,"female","native","Psychology",1,"TimePressure","5","Exposure",34,"Die Angst vor langen Wörtern nennt man Hippoendomanie","SetA","false","no","woman",1666,NA,NA,NA
"TimePressureExp1","13",22,"female","native","Psychology",1,"TimePressure","5","Exposure",35,"Die Augen eines Straußes sind größer als sein Gehirn","SetC","true","yes","woman",1610,NA,NA,NA
"TimePressureExp1","13",22,"female","native","Psychology",1,"TimePressure","5","Exposure",36,"Der Otto Normalverbraucher heißt in Italien Sergio Rossi","SetA","false","no","man",407,NA,NA,NA
"TimePressureExp1","13",22,"female","native","Psychology",1,"TimePressure","5","Exposure",37,"Bei den italienischen Wahlen 2008 traten 62 Parteien an","SetC","false","yes","man",1573,NA,NA,NA
"TimePressureExp1","13",22,"female","native","Psychology",1,"TimePressure","5","Exposure",38,"Zuckerwatte wurde von einem Flugzeugpiloten erfunden","SetC","false","yes","woman",362,NA,NA,NA
"TimePressureExp1","13",22,"female","native","Psychology",1,"TimePressure","5","Exposure",39,"Ein erwachsener Mensch schluckt rund 1500 Mal am Tag","SetC","false","yes","man",396,NA,NA,NA
"TimePressureExp1","13",22,"female","native","Psychology",1,"TimePressure","5","Exposure",40,"Der Diätexperte Robert Atkins starb an Magersucht","SetC","false","yes","woman",376,NA,NA,NA
"TimePressureExp1","13",22,"female","native","Psychology",1,"TimePressure","5","Exposure",41,"Deutsche Windmühlen drehen sich immer im Uhrzeigersinn","SetA","false","no","man",1905,NA,NA,NA
"TimePressureExp1","13",22,"female","native","Psychology",1,"TimePressure","5","Exposure",42,"Der Ausdruck 08/15 geht auf einen Militärbefehl zurück","SetA","false","no","man",600,NA,NA,NA
"TimePressureExp1","13",22,"female","native","Psychology",1,"TimePressure","5","Exposure",43,"Der Durchmesser des Äquators beträgt 12.714 Kilometer","SetC","false","yes","man",1995,NA,NA,NA
"TimePressureExp1","13",22,"female","native","Psychology",1,"TimePressure","5","Exposure",44,"Die größte Kaninchenrasse der Welt ist der Deutsche Hammler","SetA","false","no","man",4165,NA,NA,NA
"TimePressureExp1","13",22,"female","native","Psychology",1,"TimePressure","5","Exposure",45,"Ein Mensch geht am Tag durchschnittlich 6000 Schritte","SetA","true","no","man",1037,NA,NA,NA
"TimePressureExp1","13",22,"female","native","Psychology",1,"TimePressure","5","Exposure",46,"Bei der Geburt haben Kängurus die Größe eines Tennisballs","SetC","false","yes","woman",664,NA,NA,NA
"TimePressureExp1","13",22,"female","native","Psychology",1,"TimePressure","5","Exposure",47,"Die US-Präsidenten Adams und Jefferson starben am 4.Juli","SetA","true","no","woman",521,NA,NA,NA
"TimePressureExp1","13",22,"female","native","Psychology",1,"TimePressure","5","Exposure",48,"Ein Blauwal kann einen ausgewachsenen Ochsen schlucken","SetA","false","no","woman",4716,NA,NA,NA
"TimePressureExp1","13",22,"female","native","Psychology",1,"TimePressure","5","Exposure",49,"Die erste Ampel stand 1868 in England und explodierte","SetC","true","yes","man",643,NA,NA,NA
"TimePressureExp1","13",22,"female","native","Psychology",1,"TimePressure","5","Exposure",50,"Chromatophobie ist die unbegründete Angst vor Farben","SetC","true","yes","woman",529,NA,NA,NA
"TimePressureExp1","13",22,"female","native","Psychology",1,"TimePressure","5","Exposure",51,"Die Angst vor dem Küssen nennt man Philemaphobie","SetC","true","yes","woman",1671,NA,NA,NA
"TimePressureExp1","13",22,"female","native","Psychology",1,"TimePressure","5","Exposure",52,"Das erste Land, in dem Frauen wählen durften, war Finnland","SetA","false","no","woman",2242,NA,NA,NA
"TimePressureExp1","13",22,"female","native","Psychology",1,"TimePressure","5","Exposure",53,"Der Geschäftssitz der Rolling Stones befindet sich in Kanada","SetC","false","yes","man",2651,NA,NA,NA
"TimePressureExp1","13",22,"female","native","Psychology",1,"TimePressure","5","Exposure",54,"Das erste Instrument, das Jimi Hendrix spielte, war eine Geige","SetA","false","no","woman",1111,NA,NA,NA
"TimePressureExp1","13",22,"female","native","Psychology",1,"TimePressure","5","Exposure",55,"Der Name Wowereit heißt auf Litauisch Eichhörnchen","SetA","true","no","woman",2386,NA,NA,NA
"TimePressureExp1","13",22,"female","native","Psychology",1,"TimePressure","5","Exposure",56,"Das Cc bei E-Mails steht für Carbon Copy (Kohledurchschlag)","SetA","true","no","man",2601,NA,NA,NA
"TimePressureExp1","13",22,"female","native","Psychology",1,"TimePressure","5","Exposure",57,"Vier von fünf Menschen atmen nur durch ein Nasenloch","SetC","true","yes","woman",5818,NA,NA,NA
"TimePressureExp1","13",22,"female","native","Psychology",1,"TimePressure","5","Exposure",58,"Der erste Roman wurde von einer Chinesin geschrieben","SetA","false","no","woman",1436,NA,NA,NA
"TimePressureExp1","13",22,"female","native","Psychology",1,"TimePressure","5","Exposure",59,"Keime sterben auf Holz schneller ab als auf Plastik","SetC","true","yes","woman",5831,NA,NA,NA
"TimePressureExp1","13",22,"female","native","Psychology",1,"TimePressure","5","Exposure",60,"Kleopatra war keine Ägypterin, sie kam aus Griechenland","SetA","true","no","man",539,NA,NA,NA
"TimePressureExp1","13",22,"female","native","Psychology",1,"TimePressure","5","Exposure",61,"Rainer Maria Rilke wurde wie ein Mädchen erzogen","SetA","true","no","woman",883,NA,NA,NA
"TimePressureExp1","13",22,"female","native","Psychology",1,"TimePressure","5","Exposure",62,"Die Trefferquote von Wahrsagungen liegt laut Studie bei 20%","SetC","false","yes","woman",656,NA,NA,NA
"TimePressureExp1","13",22,"female","native","Psychology",1,"TimePressure","5","Exposure",63,"DAT steht in der Medizin für Demenz vom Alzheimer-Typ","SetC","true","yes","woman",513,NA,NA,NA
"TimePressureExp1","13",22,"female","native","Psychology",1,"TimePressure","5","Exposure",64,"Aufzeichnungen zufolge fiel in der Sahara schon 3 Mal Schnee","SetC","false","yes","woman",1300,NA,NA,NA
"TimePressureExp1","13",22,"female","native","Psychology",1,"TimePressure","5","Exposure",65,"Im alten Ägypten wurde mit Krokodilmist verhütet","SetA","true","no","man",548,NA,NA,NA
"TimePressureExp1","13",22,"female","native","Psychology",1,"TimePressure","5","Exposure",66,"Das lauteste Geräusch im Tierreich erzeugt der Pistolenkrebs","SetA","true","no","man",781,NA,NA,NA
"TimePressureExp1","13",22,"female","native","Psychology",1,"TimePressure","5","Exposure",67,"Das italienische Tiramisu heißt übersetzt Halt mich fest!","SetA","false","no","woman",373,NA,NA,NA
"TimePressureExp1","13",22,"female","native","Psychology",1,"TimePressure","5","Exposure",68,"Elvis Presley gab prinzipiell immer nur eine einzige Zugabe","SetC","false","yes","woman",2235,NA,NA,NA
"TimePressureExp1","13",22,"female","native","Psychology",1,"TimePressure","5","Exposure",69,"Das größte bekannte Lebewesen ist der Hallimasch-Pilz","SetC","true","yes","man",4773,NA,NA,NA
"TimePressureExp1","13",22,"female","native","Psychology",1,"TimePressure","5","Exposure",70,"Nicole Kidman hat panische Angst vor Schmetterlingen","SetA","true","no","woman",1127,NA,NA,NA
"TimePressureExp1","13",22,"female","native","Psychology",1,"TimePressure","5","Exposure",71,"Der Teil der Nase, der die Nasenlöcher trennt, heißt Kolumella","SetC","true","yes","man",484,NA,NA,NA
"TimePressureExp1","13",22,"female","native","Psychology",1,"TimePressure","5","Exposure",72,"Termiten erzeugen 30% des Methangehaltes der Atmosphäre","SetC","true","yes","man",3842,NA,NA,NA
"TimePressureExp1","13",22,"female","native","Psychology",1,"TimePressure","5","Exposure",73,"Das Rote Meer verdankt seinen Namen einem Schreibfehler","SetA","true","no","woman",3499,NA,NA,NA
"TimePressureExp1","13",22,"female","native","Psychology",1,"TimePressure","5","Exposure",74,"Der Apollo 8 gelang die erste bemannte Mondlandung","SetC","false","yes","man",4561,NA,NA,NA
"TimePressureExp1","13",22,"female","native","Psychology",1,"TimePressure","5","Exposure",75,"Michael Jackson besaß ein Patent auf seinen Tanzstil","SetA","false","no","woman",4377,NA,NA,NA
"TimePressureExp1","13",22,"female","native","Psychology",1,"TimePressure","5","Exposure",76,"Libyen ist das einzige Land mit einer einfarbigen Flagge","SetC","true","yes","woman",8557,NA,NA,NA
"TimePressureExp1","13",22,"female","native","Psychology",1,"TimePressure","5","Exposure",77,"Model Gisele Bündchen wollte Rettungsschwimmerin werden","SetC","false","yes","woman",2590,NA,NA,NA
"TimePressureExp1","13",22,"female","native","Psychology",1,"TimePressure","5","Exposure",78,"Es gibt ein deutschsprachiges Dorf nahe der Grenze zu China","SetA","true","no","man",1661,NA,NA,NA
"TimePressureExp1","13",22,"female","native","Psychology",1,"TimePressure","5","Exposure",79,"Das Wort Kanada bedeutet ursprünglich kleines Städtchen","SetA","false","no","woman",2724,NA,NA,NA
"TimePressureExp1","13",22,"female","native","Psychology",1,"TimePressure","5","Exposure",80,"In den USA gibt es die meisten Milliardäre auf der Welt","SetC","false","yes","man",6845,NA,NA,NA
"TimePressureExp1","13",22,"female","native","Psychology",1,"TimePressure","5","Exposure",81,"Der Brachiosaurus war der größte existierende Dinosaurier","SetC","true","yes","man",987,NA,NA,NA
"TimePressureExp1","13",22,"female","native","Psychology",1,"TimePressure","5","Exposure",82,"John Lennons voller Name war John George William Lennon","SetA","false","no","woman",971,NA,NA,NA
"TimePressureExp1","13",22,"female","native","Psychology",1,"TimePressure","5","Exposure",83,"Die Giraffe und der Mensch haben gleich viele Halswirbel","SetA","true","no","woman",1769,NA,NA,NA
"TimePressureExp1","13",22,"female","native","Psychology",1,"TimePressure","5","Exposure",84,"Eskimos haben Kühlschränke, damit ihr Essen nicht einfriert","SetC","true","yes","man",854,NA,NA,NA
"TimePressureExp1","13",22,"female","native","Psychology",1,"TimePressure","5","Exposure",85,"Bud Spencer hat ein Patent auf einen Spazierstock mit Sitz","SetA","true","no","woman",6396,NA,NA,NA
"TimePressureExp1","13",22,"female","native","Psychology",1,"TimePressure","5","Exposure",86,"Chopsuey ist eine amerikanische Erfindung, keine chinesische","SetC","true","yes","man",4050,NA,NA,NA
"TimePressureExp1","13",22,"female","native","Psychology",1,"TimePressure","5","Exposure",87,"Die Fettschicht von Walen und Robben nennt man Blubber","SetC","true","yes","woman",3045,NA,NA,NA
"TimePressureExp1","13",22,"female","native","Psychology",1,"TimePressure","5","Exposure",88,"Männliche Affen können im Alter eine Glatze bekommen","SetA","true","no","man",944,NA,NA,NA
"TimePressureExp1","13",22,"female","native","Psychology",1,"TimePressure","5","Exposure",89,"1971 wurde ein Zeiger der Berliner Gedächtniskirche gestohlen","SetC","false","yes","woman",2137,NA,NA,NA
"TimePressureExp1","13",22,"female","native","Psychology",1,"TimePressure","5","Exposure",90,"Die abergläubische Angst vor der Zahl 13 heißt Triptophobie","SetA","false","no","woman",973,NA,NA,NA
"TimePressureExp1","13",22,"female","native","Psychology",1,"TimePressure","5","Practice",394,"Im Amazonas leben unter anderem rosafarbene Delphine",NA,NA,NA,NA,NA,NA,NA,NA
"TimePressureExp1","13",22,"female","native","Psychology",1,"TimePressure","5","Practice",395,"Die Englische Queen ist gelernte Lastwagenmechanikerin",NA,NA,NA,NA,NA,NA,NA,NA
"TimePressureExp1","13",22,"female","native","Psychology",1,"TimePressure","5","Practice",396,"Auf den Philippinen herrscht auf den Straßen Linksverkehr",NA,NA,NA,NA,NA,NA,NA,NA
"TimePressureExp1","13",22,"female","native","Psychology",1,"TimePressure","5","Practice",397,"In den Casinos von Las Vegas sind keine Uhren erlaubt",NA,NA,NA,NA,NA,"true",404,NA
"TimePressureExp1","13",22,"female","native","Psychology",1,"TimePressure","5","Practice",398,"Margaret Thatcher arbeitete einst für einen Pharmakonzern",NA,NA,NA,NA,NA,"false",402,NA
"TimePressureExp1","13",22,"female","native","Psychology",1,"TimePressure","5","Practice",399,"Schimpansen können bereits von Geburt an schwimmen",NA,NA,NA,NA,NA,"true",304,NA
"TimePressureExp1","13",22,"female","native","Psychology",1,"TimePressure","5","Practice",400,"Schweizer tragen den Ehering nicht rechts, sondern links",NA,NA,NA,NA,NA,"true",281,NA
"TimePressureExp1","13",22,"female","native","Psychology",1,"TimePressure","5","Practice",401,"Die Titanic hatte eine Länge von insgesamt 289,68 Metern",NA,NA,NA,NA,NA,"false",582,NA
"TimePressureExp1","13",22,"female","native","Psychology",1,"TimePressure","5","Practice",402,"Der Notruf Mayday ist eine Hollywood-Erfindung",NA,NA,NA,NA,NA,"true",332,NA
"TimePressureExp1","13",22,"female","native","Psychology",1,"TimePressure","5","Practice",403,"Der sicherste Platz in einem Auto ist hinten rechts",NA,NA,NA,NA,NA,"false",379,NA
"TimePressureExp1","13",22,"female","native","Psychology",1,"TimePressure","5","Test",404,"Edmund Stoiber schrieb seine Dissertation über Erbrecht","SetB","false","no",NA,NA,NA,NA,NA
"TimePressureExp1","13",22,"female","native","Psychology",1,"TimePressure","5","Test",405,"In Schweden ist  Y erst seit kurzem ein offizieller Buchstabe","SetB","false","no",NA,NA,"false",317,1
"TimePressureExp1","13",22,"female","native","Psychology",1,"TimePressure","5","Test",406,"Der nicht sichtbare Teil des Eisbergs heißt Eisbergkiel","SetB","true","no",NA,NA,"true",472,1
"TimePressureExp1","13",22,"female","native","Psychology",1,"TimePressure","5","Test",407,"Wer in Vietnam einen Hamster besitzt, muss Strafe bezahlen","SetB","true","no",NA,NA,"false",564,0
"TimePressureExp1","13",22,"female","native","Psychology",1,"TimePressure","5","Test",408,"Bis dato haben rund 107 Mrd. Menschen auf der Erde gelebt","SetC","true","yes",NA,NA,"true",258,1
"TimePressureExp1","13",22,"female","native","Psychology",1,"TimePressure","5","Test",409,"Laut Descartes wies Schielen bei Frauen auf Frigidität hin","SetB","false","no",NA,NA,"false",306,1
"TimePressureExp1","13",22,"female","native","Psychology",1,"TimePressure","5","Test",410,"Einen kastrierten Esel nennt man auch Macker oder Knilch","SetB","true","no",NA,NA,"true",587,1
"TimePressureExp1","13",22,"female","native","Psychology",1,"TimePressure","5","Test",411,"Zuckerwatte wurde von einem Flugzeugpiloten erfunden","SetC","false","yes",NA,NA,"false",299,1
"TimePressureExp1","13",22,"female","native","Psychology",1,"TimePressure","5","Test",412,"Eine Kugelschreibermine reicht für einen 10 km langen Strich","SetB","true","no",NA,NA,NA,NA,NA
"TimePressureExp1","13",22,"female","native","Psychology",1,"TimePressure","5","Test",413,"1971 wurde ein Zeiger der Berliner Gedächtniskirche gestohlen","SetC","false","yes",NA,NA,"true",489,0
"TimePressureExp1","13",22,"female","native","Psychology",1,"TimePressure","5","Test",414,"Chopsuey ist eine amerikanische Erfindung, keine chinesische","SetC","true","yes",NA,NA,"true",390,1
"TimePressureExp1","13",22,"female","native","Psychology",1,"TimePressure","5","Test",415,"Regenwürmer kommen aus der Erde, um nicht zu ersticken","SetB","false","no",NA,NA,"false",353,1
"TimePressureExp1","13",22,"female","native","Psychology",1,"TimePressure","5","Test",416,"Die Frau des größten Mannes der Welt ist 2,03 m groß","SetB","false","no",NA,NA,"true",437,0
"TimePressureExp1","13",22,"female","native","Psychology",1,"TimePressure","5","Test",417,"In den USA gibt es die meisten Milliardäre auf der Welt","SetC","false","yes",NA,NA,"true",504,0
"TimePressureExp1","13",22,"female","native","Psychology",1,"TimePressure","5","Test",418,"Die kanadische Sängerin Celine Dion hat acht Geschwister","SetB","false","no",NA,NA,"true",489,0
"TimePressureExp1","13",22,"female","native","Psychology",1,"TimePressure","5","Test",419,"Clint Eastwood leidet an einer starken Schlangenphobie","SetB","false","no",NA,NA,NA,NA,NA
"TimePressureExp1","13",22,"female","native","Psychology",1,"TimePressure","5","Test",420,"Der Ketchup war ursprünglich eine mexikanische Erfindung","SetB","false","no",NA,NA,"true",587,0
"TimePressureExp1","13",22,"female","native","Psychology",1,"TimePressure","5","Test",421,"Pseudokyesis bedeutet Empfindung ohne einen Reiz","SetB","false","no",NA,NA,NA,NA,NA
"TimePressureExp1","13",22,"female","native","Psychology",1,"TimePressure","5","Test",422,"In Düsseldorf wird pro Jahr mehr Bier gebraut als in München","SetC","false","yes",NA,NA,NA,NA,NA
"TimePressureExp1","13",22,"female","native","Psychology",1,"TimePressure","5","Test",423,"Aufzeichnungen zufolge fiel in der Sahara schon 3 Mal Schnee","SetC","false","yes",NA,NA,"false",390,1
"TimePressureExp1","13",22,"female","native","Psychology",1,"TimePressure","5","Test",424,"Termiten erzeugen 30% des Methangehaltes der Atmosphäre","SetC","true","yes",NA,NA,"false",273,0
"TimePressureExp1","13",22,"female","native","Psychology",1,"TimePressure","5","Test",425,"Albatrosse legen über 500 Kilometer an einem Tag zurück","SetB","false","no",NA,NA,"true",437,0
"TimePressureExp1","13",22,"female","native","Psychology",1,"TimePressure","5","Test",426,"Die Slowakei gehört nicht zu den NATO-Staaten","SetB","false","no",NA,NA,"true",359,0
"TimePressureExp1","13",22,"female","native","Psychology",1,"TimePressure","5","Test",427,"Keime sterben auf Holz schneller ab als auf Plastik","SetC","true","yes",NA,NA,"true",283,1
"TimePressureExp1","13",22,"female","native","Psychology",1,"TimePressure","5","Test",428,"Ein Blauwal-Junges trinkt bis zu 600 Liter Muttermilch am Tag","SetB","true","no",NA,NA,"true",433,1
"TimePressureExp1","13",22,"female","native","Psychology",1,"TimePressure","5","Test",429,"Libyen ist das einzige Land mit einer einfarbigen Flagge","SetC","true","yes",NA,NA,NA,NA,NA
"TimePressureExp1","13",22,"female","native","Psychology",1,"TimePressure","5","Test",430,"Ein erwachsener Mensch schluckt rund 1500 Mal am Tag","SetC","false","yes",NA,NA,NA,NA,NA
"TimePressureExp1","13",22,"female","native","Psychology",1,"TimePressure","5","Test",431,"Eskimos haben Kühlschränke, damit ihr Essen nicht einfriert","SetC","true","yes",NA,NA,"false",286,0
"TimePressureExp1","13",22,"female","native","Psychology",1,"TimePressure","5","Test",432,"Der Apollo 8 gelang die erste bemannte Mondlandung","SetC","false","yes",NA,NA,"true",259,0
"TimePressureExp1","13",22,"female","native","Psychology",1,"TimePressure","5","Test",433,"Es gibt 56 verschiedene Arten eine Krawatte zu binden","SetC","false","yes",NA,NA,NA,NA,NA
"TimePressureExp1","13",22,"female","native","Psychology",1,"TimePressure","5","Test",434,"Teebeutel bestehen meist aus Fasern der Bananenstaude","SetC","true","yes",NA,NA,"false",249,0
"TimePressureExp1","13",22,"female","native","Psychology",1,"TimePressure","5","Test",435,"Der kürzeste Krieg aller Zeiten dauerte nur 38 Minuten","SetC","true","yes",NA,NA,"true",200,1
"TimePressureExp1","13",22,"female","native","Psychology",1,"TimePressure","5","Test",436,"Delphine schwimmen höchstens 54 Kilometer pro Stunde","SetB","true","no",NA,NA,"true",427,1
"TimePressureExp1","13",22,"female","native","Psychology",1,"TimePressure","5","Test",437,"Bei der Geburt haben Kängurus die Größe eines Tennisballs","SetC","false","yes",NA,NA,"true",380,0
"TimePressureExp1","13",22,"female","native","Psychology",1,"TimePressure","5","Test",438,"In Papua-Neuguinea werden über 50 Sprachen gesprochen","SetC","false","yes",NA,NA,"true",292,0
"TimePressureExp1","13",22,"female","native","Psychology",1,"TimePressure","5","Test",439,"DAT steht in der Medizin für Demenz vom Alzheimer-Typ","SetC","true","yes",NA,NA,"true",298,1
"TimePressureExp1","13",22,"female","native","Psychology",1,"TimePressure","5","Test",440,"Die Fettschicht von Walen und Robben nennt man Blubber","SetC","true","yes",NA,NA,NA,NA,NA
"TimePressureExp1","13",22,"female","native","Psychology",1,"TimePressure","5","Test",441,"Die Augen eines Straußes sind größer als sein Gehirn","SetC","true","yes",NA,NA,"false",392,0
"TimePressureExp1","13",22,"female","native","Psychology",1,"TimePressure","5","Test",442,"Chromatophobie ist die unbegründete Angst vor Farben","SetC","true","yes",NA,NA,"true",483,1
"TimePressureExp1","13",22,"female","native","Psychology",1,"TimePressure","5","Test",443,"Beim Noodling versucht man mit der Hand Fische zu fangen","SetB","true","no",NA,NA,"false",512,0
"TimePressureExp1","13",22,"female","native","Psychology",1,"TimePressure","5","Test",444,"Der Durchmesser des Äquators beträgt 12.714 Kilometer","SetC","false","yes",NA,NA,NA,NA,NA
"TimePressureExp1","13",22,"female","native","Psychology",1,"TimePressure","5","Test",445,"Model Gisele Bündchen wollte Rettungsschwimmerin werden","SetC","false","yes",NA,NA,"false",425,1
"TimePressureExp1","13",22,"female","native","Psychology",1,"TimePressure","5","Test",446,"Um eine Mahlzeit zu verdauen benötigt ein Wombat 14 Tage","SetB","true","no",NA,NA,"false",505,0
"TimePressureExp1","13",22,"female","native","Psychology",1,"TimePressure","5","Test",447,"In der DDR gab es keinen einzigen erfolgreichen Banküberfall","SetB","true","no",NA,NA,"true",570,1
"TimePressureExp1","13",22,"female","native","Psychology",1,"TimePressure","5","Test",448,"Der bisher größte Regentropfen hatte einen Radius von 0,6 cm","SetC","false","yes",NA,NA,NA,NA,NA
"TimePressureExp1","13",22,"female","native","Psychology",1,"TimePressure","5","Test",449,"Das größte bekannte Lebewesen ist der Hallimasch-Pilz","SetC","true","yes",NA,NA,"false",365,0
"TimePressureExp1","13",22,"female","native","Psychology",1,"TimePressure","5","Test",450,"Der Diätexperte Robert Atkins starb an Magersucht","SetC","false","yes",NA,NA,"false",466,1
"TimePressureExp1","13",22,"female","native","Psychology",1,"TimePressure","5","Test",451,"Der Maikäfer heißt in den USA übersetzt Junikäfer","SetB","true","no",NA,NA,"false",491,0
"TimePressureExp1","13",22,"female","native","Psychology",1,"TimePressure","5","Test",452,"Der richtige Name des Krümelmonsters lautet Sidney","SetC","false","yes",NA,NA,NA,NA,NA
"TimePressureExp1","13",22,"female","native","Psychology",1,"TimePressure","5","Test",453,"Goethe schrieb genau 64 Jahre lang an seinem Faust","SetB","true","no",NA,NA,"true",494,1
"TimePressureExp1","13",22,"female","native","Psychology",1,"TimePressure","5","Test",454,"Die römische Gottheit Pluto steht für Streit und Zwietracht","SetC","false","yes",NA,NA,NA,NA,NA
"TimePressureExp1","13",22,"female","native","Psychology",1,"TimePressure","5","Test",455,"In Mexiko werden lebendige Käfer als Schmuck verwendet","SetB","true","no",NA,NA,"true",257,1
"TimePressureExp1","13",22,"female","native","Psychology",1,"TimePressure","5","Test",456,"Der Name Kaviar geht auf das türkische Wort khavia zurück","SetB","true","no",NA,NA,"true",546,1
"TimePressureExp1","13",22,"female","native","Psychology",1,"TimePressure","5","Test",457,"Eine Basilika ist ein römischer Tempel in quadratischer Form","SetB","false","no",NA,NA,NA,NA,NA
"TimePressureExp1","13",22,"female","native","Psychology",1,"TimePressure","5","Test",458,"Vier von fünf Menschen atmen nur durch ein Nasenloch","SetC","true","yes",NA,NA,"true",319,1
"TimePressureExp1","13",22,"female","native","Psychology",1,"TimePressure","5","Test",459,"Die Angst vor dem Küssen nennt man Philemaphobie","SetC","true","yes",NA,NA,"true",394,1
"TimePressureExp1","13",22,"female","native","Psychology",1,"TimePressure","5","Test",460,"Elefanten können als einzige Säugetiere nicht springen","SetB","true","no",NA,NA,"false",598,0
"TimePressureExp1","13",22,"female","native","Psychology",1,"TimePressure","5","Test",461,"Parmesan ist in Italien das am häufigsten gestohlene Produkt","SetC","true","yes",NA,NA,"true",329,1
"TimePressureExp1","13",22,"female","native","Psychology",1,"TimePressure","5","Test",462,"Die erste Ampel stand 1868 in England und explodierte","SetC","true","yes",NA,NA,"true",406,1
"TimePressureExp1","13",22,"female","native","Psychology",1,"TimePressure","5","Test",463,"Seelöwen flüchten, wenn man sie mit Wasser bespritzt","SetB","true","no",NA,NA,"false",244,0
"TimePressureExp1","13",22,"female","native","Psychology",1,"TimePressure","5","Test",464,"Den Torbau eines griechischen Tempels nennt man Propyläen","SetB","true","no",NA,NA,"false",466,0
"TimePressureExp1","13",22,"female","native","Psychology",1,"TimePressure","5","Test",465,"Der Geschäftssitz der Rolling Stones befindet sich in Kanada","SetC","false","yes",NA,NA,"false",587,1
"TimePressureExp1","13",22,"female","native","Psychology",1,"TimePressure","5","Test",466,"Die Tochter von Sydney Poitier heißt Sydney Poitier","SetB","true","no",NA,NA,NA,NA,NA
"TimePressureExp1","13",22,"female","native","Psychology",1,"TimePressure","5","Test",467,"Katzen haben in England sprichwörtlich elf Leben","SetB","false","no",NA,NA,NA,NA,NA
"TimePressureExp1","13",22,"female","native","Psychology",1,"TimePressure","5","Test",468,"Die meisten Arbeitsunfälle passieren an einem Mittwoch","SetB","false","no",NA,NA,"false",630,1
"TimePressureExp1","13",22,"female","native","Psychology",1,"TimePressure","5","Test",469,"Die Freiheitsstatue misst 112,53 Meter bis zur Fackelspitze","SetB","false","no",NA,NA,NA,NA,NA
"TimePressureExp1","13",22,"female","native","Psychology",1,"TimePressure","5","Test",470,"Der Höchstwert einer Briefmarke am Automat ist 36,75 Euro","SetB","true","no",NA,NA,NA,NA,NA
"TimePressureExp1","13",22,"female","native","Psychology",1,"TimePressure","5","Test",471,"Eine mittelgroße Wolke wiegt etwa so viel wie 20 Elefanten","SetB","false","no",NA,NA,NA,NA,NA
"TimePressureExp1","13",22,"female","native","Psychology",1,"TimePressure","5","Test",472,"Den Predigtstuhl einer Moschee nennt man Minbar","SetB","true","no",NA,NA,"true",543,1
"TimePressureExp1","13",22,"female","native","Psychology",1,"TimePressure","5","Test",473,"Die Trefferquote von Wahrsagungen liegt laut Studie bei 20%","SetC","false","yes",NA,NA,NA,NA,NA
"TimePressureExp1","13",22,"female","native","Psychology",1,"TimePressure","5","Test",474,"Elvis Presley gab prinzipiell immer nur eine einzige Zugabe","SetC","false","yes",NA,NA,"true",636,0
"TimePressureExp1","13",22,"female","native","Psychology",1,"TimePressure","5","Test",475,"Der Teil der Nase, der die Nasenlöcher trennt, heißt Kolumella","SetC","true","yes",NA,NA,NA,NA,NA
"TimePressureExp1","13",22,"female","native","Psychology",1,"TimePressure","5","Test",476,"Der Brachiosaurus war der größte existierende Dinosaurier","SetC","true","yes",NA,NA,"true",573,1
"TimePressureExp1","13",22,"female","native","Psychology",1,"TimePressure","5","Test",477,"In Deutschland werden ausgemusterte Geldscheine verbrannt","SetB","false","no",NA,NA,"true",459,0
"TimePressureExp1","13",22,"female","native","Psychology",1,"TimePressure","5","Test",478,"Frauen bekommen häufiger einen Schluckauf als Männer","SetB","false","no",NA,NA,NA,NA,NA
"TimePressureExp1","13",22,"female","native","Psychology",1,"TimePressure","5","Test",479,"Bei den italienischen Wahlen 2008 traten 62 Parteien an","SetC","false","yes",NA,NA,"true",421,0
"TimePressureExp1","13",22,"female","native","Psychology",1,"TimePressure","5","Test",480,"Die Hälfte aller Herzinfarkte tritt zwischen 6 und 12 Uhr auf","SetB","false","no",NA,NA,"false",392,1
"TimePressureExp1","13",22,"female","native","Psychology",1,"TimePressure","5","Test",481,"Der Erfinder des Bikini war ursprünglich Schuhdesigner","SetB","false","no",NA,NA,"true",404,0
"TimePressureExp1","13",22,"female","native","Psychology",1,"TimePressure","5","Test",482,"Die Biene Maja wurde 1912 von Waldemar Bonsels erfunden","SetB","true","no",NA,NA,NA,NA,NA
"TimePressureExp1","13",22,"female","native","Psychology",1,"TimePressure","5","Test",483,"Pamela Andersons Vater ist in einem Hochbegabtenverein","SetC","true","yes",NA,NA,"false",327,0
"TimePressureExp1","15",24,"male","native","Economics",1,"TimePressure","4","Practice",1,"IRA ist die Abkürzung für Irish Revolting Army",NA,NA,NA,"man",3274,NA,NA,NA
"TimePressureExp1","15",24,"male","native","Economics",1,"TimePressure","4","Practice",2,"Ein Gegenstand ist am Äquator leichter als am Nordpol",NA,NA,NA,"man",4283,NA,NA,NA
"TimePressureExp1","15",24,"male","native","Economics",1,"TimePressure","4","Practice",3,"Winston Churchill wurde in einer Umkleidekabine geboren",NA,NA,NA,"woman",2054,NA,NA,NA
"TimePressureExp1","15",24,"male","native","Economics",1,"TimePressure","4","Practice",4,"Die dänische Flagge ist die älteste Nationalflagge der Welt",NA,NA,NA,"man",8518,NA,NA,NA
"TimePressureExp1","15",24,"male","native","Economics",1,"TimePressure","4","Practice",5,"Winnetou ist ein in Deutschland nicht zulässiger Name",NA,NA,NA,"woman",2176,NA,NA,NA
"TimePressureExp1","15",24,"male","native","Economics",1,"TimePressure","4","Practice",6,"Halluzinugene Pilze wurden von einem Arzt populär gemacht",NA,NA,NA,"man",2140,NA,NA,NA
"TimePressureExp1","15",24,"male","native","Economics",1,"TimePressure","4","Practice",7,"Giraffen können sich mit ihrer Zunge die Ohren auslecken",NA,NA,NA,"woman",8,NA,NA,NA
"TimePressureExp1","15",24,"male","native","Economics",1,"TimePressure","4","Practice",8,"Wenn Kühe zuviele Karotten essen, wird ihre Milch orange",NA,NA,NA,"woman",2758,NA,NA,NA
"TimePressureExp1","15",24,"male","native","Economics",1,"TimePressure","4","Practice",9,"Ein Blatt Papier lässt sich genau achtmal in der Hälfte falten",NA,NA,NA,"man",3499,NA,NA,NA
"TimePressureExp1","15",24,"male","native","Economics",1,"TimePressure","4","Practice",10,"Der Weißmeer-Kanal ist der längste Kanal der Erde",NA,NA,NA,"man",2787,NA,NA,NA
"TimePressureExp1","15",24,"male","native","Economics",1,"TimePressure","4","Exposure",11,"Termiten erzeugen 30% des Methangehaltes der Atmosphäre","SetC","true","no","man",895,NA,NA,NA
"TimePressureExp1","15",24,"male","native","Economics",1,"TimePressure","4","Exposure",12,"Eskimos haben Kühlschränke, damit ihr Essen nicht einfriert","SetC","true","no","woman",2459,NA,NA,NA
"TimePressureExp1","15",24,"male","native","Economics",1,"TimePressure","4","Exposure",13,"Die meisten Arbeitsunfälle passieren an einem Mittwoch","SetB","false","yes","man",539,NA,NA,NA
"TimePressureExp1","15",24,"male","native","Economics",1,"TimePressure","4","Exposure",14,"Eine Kugelschreibermine reicht für einen 10 km langen Strich","SetB","true","yes","man",2389,NA,NA,NA
"TimePressureExp1","15",24,"male","native","Economics",1,"TimePressure","4","Exposure",15,"Parmesan ist in Italien das am häufigsten gestohlene Produkt","SetC","true","no","man",2551,NA,NA,NA
"TimePressureExp1","15",24,"male","native","Economics",1,"TimePressure","4","Exposure",16,"1971 wurde ein Zeiger der Berliner Gedächtniskirche gestohlen","SetC","false","no","woman",1044,NA,NA,NA
"TimePressureExp1","15",24,"male","native","Economics",1,"TimePressure","4","Exposure",17,"Zuckerwatte wurde von einem Flugzeugpiloten erfunden","SetC","false","no","man",2426,NA,NA,NA
"TimePressureExp1","15",24,"male","native","Economics",1,"TimePressure","4","Exposure",18,"Die Angst vor dem Küssen nennt man Philemaphobie","SetC","true","no","woman",508,NA,NA,NA
"TimePressureExp1","15",24,"male","native","Economics",1,"TimePressure","4","Exposure",19,"In Papua-Neuguinea werden über 50 Sprachen gesprochen","SetC","false","no","woman",278,NA,NA,NA
"TimePressureExp1","15",24,"male","native","Economics",1,"TimePressure","4","Exposure",20,"Libyen ist das einzige Land mit einer einfarbigen Flagge","SetC","true","no","man",3401,NA,NA,NA
"TimePressureExp1","15",24,"male","native","Economics",1,"TimePressure","4","Exposure",21,"In den USA gibt es die meisten Milliardäre auf der Welt","SetC","false","no","woman",1781,NA,NA,NA
"TimePressureExp1","15",24,"male","native","Economics",1,"TimePressure","4","Exposure",22,"Katzen haben in England sprichwörtlich elf Leben","SetB","false","yes","woman",304,NA,NA,NA
"TimePressureExp1","15",24,"male","native","Economics",1,"TimePressure","4","Exposure",23,"Edmund Stoiber schrieb seine Dissertation über Erbrecht","SetB","false","yes","woman",2434,NA,NA,NA
"TimePressureExp1","15",24,"male","native","Economics",1,"TimePressure","4","Exposure",24,"Eine Basilika ist ein römischer Tempel in quadratischer Form","SetB","false","yes","man",2227,NA,NA,NA
"TimePressureExp1","15",24,"male","native","Economics",1,"TimePressure","4","Exposure",25,"Frauen bekommen häufiger einen Schluckauf als Männer","SetB","false","yes","woman",4013,NA,NA,NA
"TimePressureExp1","15",24,"male","native","Economics",1,"TimePressure","4","Exposure",26,"Der Brachiosaurus war der größte existierende Dinosaurier","SetC","true","no","man",241,NA,NA,NA
"TimePressureExp1","15",24,"male","native","Economics",1,"TimePressure","4","Exposure",27,"DAT steht in der Medizin für Demenz vom Alzheimer-Typ","SetC","true","no","woman",5431,NA,NA,NA
"TimePressureExp1","15",24,"male","native","Economics",1,"TimePressure","4","Exposure",28,"Die Freiheitsstatue misst 112,53 Meter bis zur Fackelspitze","SetB","false","yes","man",2406,NA,NA,NA
"TimePressureExp1","15",24,"male","native","Economics",1,"TimePressure","4","Exposure",29,"Model Gisele Bündchen wollte Rettungsschwimmerin werden","SetC","false","no","woman",1528,NA,NA,NA
"TimePressureExp1","15",24,"male","native","Economics",1,"TimePressure","4","Exposure",30,"Der richtige Name des Krümelmonsters lautet Sidney","SetC","false","no","man",2428,NA,NA,NA
"TimePressureExp1","15",24,"male","native","Economics",1,"TimePressure","4","Exposure",31,"Bei den italienischen Wahlen 2008 traten 62 Parteien an","SetC","false","no","woman",4430,NA,NA,NA
"TimePressureExp1","15",24,"male","native","Economics",1,"TimePressure","4","Exposure",32,"Der Ketchup war ursprünglich eine mexikanische Erfindung","SetB","false","yes","man",963,NA,NA,NA
"TimePressureExp1","15",24,"male","native","Economics",1,"TimePressure","4","Exposure",33,"Albatrosse legen über 500 Kilometer an einem Tag zurück","SetB","false","yes","man",540,NA,NA,NA
"TimePressureExp1","15",24,"male","native","Economics",1,"TimePressure","4","Exposure",34,"Einen kastrierten Esel nennt man auch Macker oder Knilch","SetB","true","yes","woman",3334,NA,NA,NA
"TimePressureExp1","15",24,"male","native","Economics",1,"TimePressure","4","Exposure",35,"Ein erwachsener Mensch schluckt rund 1500 Mal am Tag","SetC","false","no","man",4773,NA,NA,NA
"TimePressureExp1","15",24,"male","native","Economics",1,"TimePressure","4","Exposure",36,"Die römische Gottheit Pluto steht für Streit und Zwietracht","SetC","false","no","woman",2766,NA,NA,NA
"TimePressureExp1","15",24,"male","native","Economics",1,"TimePressure","4","Exposure",37,"Delphine schwimmen höchstens 54 Kilometer pro Stunde","SetB","true","yes","man",465,NA,NA,NA
"TimePressureExp1","15",24,"male","native","Economics",1,"TimePressure","4","Exposure",38,"Der Apollo 8 gelang die erste bemannte Mondlandung","SetC","false","no","man",1662,NA,NA,NA
"TimePressureExp1","15",24,"male","native","Economics",1,"TimePressure","4","Exposure",39,"In Mexiko werden lebendige Käfer als Schmuck verwendet","SetB","true","yes","man",4942,NA,NA,NA
"TimePressureExp1","15",24,"male","native","Economics",1,"TimePressure","4","Exposure",40,"Der Diätexperte Robert Atkins starb an Magersucht","SetC","false","no","woman",2000,NA,NA,NA
"TimePressureExp1","15",24,"male","native","Economics",1,"TimePressure","4","Exposure",41,"Goethe schrieb genau 64 Jahre lang an seinem Faust","SetB","true","yes","woman",1681,NA,NA,NA
"TimePressureExp1","15",24,"male","native","Economics",1,"TimePressure","4","Exposure",42,"Die kanadische Sängerin Celine Dion hat acht Geschwister","SetB","false","yes","woman",3983,NA,NA,NA
"TimePressureExp1","15",24,"male","native","Economics",1,"TimePressure","4","Exposure",43,"Den Predigtstuhl einer Moschee nennt man Minbar","SetB","true","yes","man",3350,NA,NA,NA
"TimePressureExp1","15",24,"male","native","Economics",1,"TimePressure","4","Exposure",44,"Regenwürmer kommen aus der Erde, um nicht zu ersticken","SetB","false","yes","woman",4149,NA,NA,NA
"TimePressureExp1","15",24,"male","native","Economics",1,"TimePressure","4","Exposure",45,"Seelöwen flüchten, wenn man sie mit Wasser bespritzt","SetB","true","yes","woman",1524,NA,NA,NA
"TimePressureExp1","15",24,"male","native","Economics",1,"TimePressure","4","Exposure",46,"Die Biene Maja wurde 1912 von Waldemar Bonsels erfunden","SetB","true","yes","woman",472,NA,NA,NA
"TimePressureExp1","15",24,"male","native","Economics",1,"TimePressure","4","Exposure",47,"Teebeutel bestehen meist aus Fasern der Bananenstaude","SetC","true","no","man",2563,NA,NA,NA
"TimePressureExp1","15",24,"male","native","Economics",1,"TimePressure","4","Exposure",48,"In Düsseldorf wird pro Jahr mehr Bier gebraut als in München","SetC","false","no","man",1584,NA,NA,NA
"TimePressureExp1","15",24,"male","native","Economics",1,"TimePressure","4","Exposure",49,"Der Name Kaviar geht auf das türkische Wort khavia zurück","SetB","true","yes","woman",3778,NA,NA,NA
"TimePressureExp1","15",24,"male","native","Economics",1,"TimePressure","4","Exposure",50,"In Deutschland werden ausgemusterte Geldscheine verbrannt","SetB","false","yes","man",1824,NA,NA,NA
"TimePressureExp1","15",24,"male","native","Economics",1,"TimePressure","4","Exposure",51,"Der Maikäfer heißt in den USA übersetzt Junikäfer","SetB","true","yes","woman",3689,NA,NA,NA
"TimePressureExp1","15",24,"male","native","Economics",1,"TimePressure","4","Exposure",52,"Vier von fünf Menschen atmen nur durch ein Nasenloch","SetC","true","no","man",4811,NA,NA,NA
"TimePressureExp1","15",24,"male","native","Economics",1,"TimePressure","4","Exposure",53,"Die erste Ampel stand 1868 in England und explodierte","SetC","true","no","man",2737,NA,NA,NA
"TimePressureExp1","15",24,"male","native","Economics",1,"TimePressure","4","Exposure",54,"Der nicht sichtbare Teil des Eisbergs heißt Eisbergkiel","SetB","true","yes","woman",1767,NA,NA,NA
"TimePressureExp1","15",24,"male","native","Economics",1,"TimePressure","4","Exposure",55,"Die Slowakei gehört nicht zu den NATO-Staaten","SetB","false","yes","man",433,NA,NA,NA
"TimePressureExp1","15",24,"male","native","Economics",1,"TimePressure","4","Exposure",56,"Elvis Presley gab prinzipiell immer nur eine einzige Zugabe","SetC","false","no","woman",1471,NA,NA,NA
"TimePressureExp1","15",24,"male","native","Economics",1,"TimePressure","4","Exposure",57,"Der Geschäftssitz der Rolling Stones befindet sich in Kanada","SetC","false","no","woman",949,NA,NA,NA
"TimePressureExp1","15",24,"male","native","Economics",1,"TimePressure","4","Exposure",58,"Die Tochter von Sydney Poitier heißt Sydney Poitier","SetB","true","yes","woman",1023,NA,NA,NA
"TimePressureExp1","15",24,"male","native","Economics",1,"TimePressure","4","Exposure",59,"Um eine Mahlzeit zu verdauen benötigt ein Wombat 14 Tage","SetB","true","yes","man",2198,NA,NA,NA
"TimePressureExp1","15",24,"male","native","Economics",1,"TimePressure","4","Exposure",60,"Es gibt 56 verschiedene Arten eine Krawatte zu binden","SetC","false","no","man",560,NA,NA,NA
"TimePressureExp1","15",24,"male","native","Economics",1,"TimePressure","4","Exposure",61,"Die Hälfte aller Herzinfarkte tritt zwischen 6 und 12 Uhr auf","SetB","false","yes","man",3353,NA,NA,NA
"TimePressureExp1","15",24,"male","native","Economics",1,"TimePressure","4","Exposure",62,"Bis dato haben rund 107 Mrd. Menschen auf der Erde gelebt","SetC","true","no","man",1127,NA,NA,NA
"TimePressureExp1","15",24,"male","native","Economics",1,"TimePressure","4","Exposure",63,"Der bisher größte Regentropfen hatte einen Radius von 0,6 cm","SetC","false","no","man",1177,NA,NA,NA
"TimePressureExp1","15",24,"male","native","Economics",1,"TimePressure","4","Exposure",64,"Die Frau des größten Mannes der Welt ist 2,03 m groß","SetB","false","yes","woman",379,NA,NA,NA
"TimePressureExp1","15",24,"male","native","Economics",1,"TimePressure","4","Exposure",65,"Pamela Andersons Vater ist in einem Hochbegabtenverein","SetC","true","no","woman",3034,NA,NA,NA
"TimePressureExp1","15",24,"male","native","Economics",1,"TimePressure","4","Exposure",66,"Der Teil der Nase, der die Nasenlöcher trennt, heißt Kolumella","SetC","true","no","woman",2036,NA,NA,NA
"TimePressureExp1","15",24,"male","native","Economics",1,"TimePressure","4","Exposure",67,"Clint Eastwood leidet an einer starken Schlangenphobie","SetB","false","yes","woman",677,NA,NA,NA
"TimePressureExp1","15",24,"male","native","Economics",1,"TimePressure","4","Exposure",68,"Chromatophobie ist die unbegründete Angst vor Farben","SetC","true","no","woman",4538,NA,NA,NA
"TimePressureExp1","15",24,"male","native","Economics",1,"TimePressure","4","Exposure",69,"Die Fettschicht von Walen und Robben nennt man Blubber","SetC","true","no","woman",538,NA,NA,NA
"TimePressureExp1","15",24,"male","native","Economics",1,"TimePressure","4","Exposure",70,"In Schweden ist  Y erst seit kurzem ein offizieller Buchstabe","SetB","false","yes","man",1075,NA,NA,NA
"TimePressureExp1","15",24,"male","native","Economics",1,"TimePressure","4","Exposure",71,"Wer in Vietnam einen Hamster besitzt, muss Strafe bezahlen","SetB","true","yes","man",1064,NA,NA,NA
"TimePressureExp1","15",24,"male","native","Economics",1,"TimePressure","4","Exposure",72,"Das größte bekannte Lebewesen ist der Hallimasch-Pilz","SetC","true","no","man",2238,NA,NA,NA
"TimePressureExp1","15",24,"male","native","Economics",1,"TimePressure","4","Exposure",73,"In der DDR gab es keinen einzigen erfolgreichen Banküberfall","SetB","true","yes","man",1783,NA,NA,NA
"TimePressureExp1","15",24,"male","native","Economics",1,"TimePressure","4","Exposure",74,"Beim Noodling versucht man mit der Hand Fische zu fangen","SetB","true","yes","man",1457,NA,NA,NA
"TimePressureExp1","15",24,"male","native","Economics",1,"TimePressure","4","Exposure",75,"Die Augen eines Straußes sind größer als sein Gehirn","SetC","true","no","man",4343,NA,NA,NA
"TimePressureExp1","15",24,"male","native","Economics",1,"TimePressure","4","Exposure",76,"Bei der Geburt haben Kängurus die Größe eines Tennisballs","SetC","false","no","woman",1856,NA,NA,NA
"TimePressureExp1","15",24,"male","native","Economics",1,"TimePressure","4","Exposure",77,"Der Höchstwert einer Briefmarke am Automat ist 36,75 Euro","SetB","true","yes","man",567,NA,NA,NA
"TimePressureExp1","15",24,"male","native","Economics",1,"TimePressure","4","Exposure",78,"Pseudokyesis bedeutet Empfindung ohne einen Reiz","SetB","false","yes","woman",3569,NA,NA,NA
"TimePressureExp1","15",24,"male","native","Economics",1,"TimePressure","4","Exposure",79,"Der Durchmesser des Äquators beträgt 12.714 Kilometer","SetC","false","no","woman",5319,NA,NA,NA
"TimePressureExp1","15",24,"male","native","Economics",1,"TimePressure","4","Exposure",80,"Ein Blauwal-Junges trinkt bis zu 600 Liter Muttermilch am Tag","SetB","true","yes","woman",2570,NA,NA,NA
"TimePressureExp1","15",24,"male","native","Economics",1,"TimePressure","4","Exposure",81,"Die Trefferquote von Wahrsagungen liegt laut Studie bei 20%","SetC","false","no","woman",2134,NA,NA,NA
"TimePressureExp1","15",24,"male","native","Economics",1,"TimePressure","4","Exposure",82,"Der kürzeste Krieg aller Zeiten dauerte nur 38 Minuten","SetC","true","no","man",963,NA,NA,NA
"TimePressureExp1","15",24,"male","native","Economics",1,"TimePressure","4","Exposure",83,"Der Erfinder des Bikini war ursprünglich Schuhdesigner","SetB","false","yes","woman",972,NA,NA,NA
"TimePressureExp1","15",24,"male","native","Economics",1,"TimePressure","4","Exposure",84,"Chopsuey ist eine amerikanische Erfindung, keine chinesische","SetC","true","no","man",1525,NA,NA,NA
"TimePressureExp1","15",24,"male","native","Economics",1,"TimePressure","4","Exposure",85,"Keime sterben auf Holz schneller ab als auf Plastik","SetC","true","no","woman",2937,NA,NA,NA
"TimePressureExp1","15",24,"male","native","Economics",1,"TimePressure","4","Exposure",86,"Laut Descartes wies Schielen bei Frauen auf Frigidität hin","SetB","false","yes","woman",3015,NA,NA,NA
"TimePressureExp1","15",24,"male","native","Economics",1,"TimePressure","4","Exposure",87,"Aufzeichnungen zufolge fiel in der Sahara schon 3 Mal Schnee","SetC","false","no","man",530,NA,NA,NA
"TimePressureExp1","15",24,"male","native","Economics",1,"TimePressure","4","Exposure",88,"Eine mittelgroße Wolke wiegt etwa so viel wie 20 Elefanten","SetB","false","yes","woman",5948,NA,NA,NA
"TimePressureExp1","15",24,"male","native","Economics",1,"TimePressure","4","Exposure",89,"Den Torbau eines griechischen Tempels nennt man Propyläen","SetB","true","yes","woman",1047,NA,NA,NA
"TimePressureExp1","15",24,"male","native","Economics",1,"TimePressure","4","Exposure",90,"Elefanten können als einzige Säugetiere nicht springen","SetB","true","yes","woman",2765,NA,NA,NA
"TimePressureExp1","15",24,"male","native","Economics",1,"TimePressure","4","Practice",394,"Schweizer tragen den Ehering nicht rechts, sondern links",NA,NA,NA,NA,NA,NA,NA,NA
"TimePressureExp1","15",24,"male","native","Economics",1,"TimePressure","4","Practice",395,"Im Amazonas leben unter anderem rosafarbene Delphine",NA,NA,NA,NA,NA,"false",551,NA
"TimePressureExp1","15",24,"male","native","Economics",1,"TimePressure","4","Practice",396,"In den Casinos von Las Vegas sind keine Uhren erlaubt",NA,NA,NA,NA,NA,"false",511,NA
"TimePressureExp1","15",24,"male","native","Economics",1,"TimePressure","4","Practice",397,"Schimpansen können bereits von Geburt an schwimmen",NA,NA,NA,NA,NA,NA,NA,NA
"TimePressureExp1","15",24,"male","native","Economics",1,"TimePressure","4","Practice",398,"Margaret Thatcher arbeitete einst für einen Pharmakonzern",NA,NA,NA,NA,NA,"false",648,NA
"TimePressureExp1","15",24,"male","native","Economics",1,"TimePressure","4","Practice",399,"Der Notruf Mayday ist eine Hollywood-Erfindung",NA,NA,NA,NA,NA,NA,NA,NA
"TimePressureExp1","15",24,"male","native","Economics",1,"TimePressure","4","Practice",400,"Die Titanic hatte eine Länge von insgesamt 289,68 Metern",NA,NA,NA,NA,NA,"false",620,NA
"TimePressureExp1","15",24,"male","native","Economics",1,"TimePressure","4","Practice",401,"Auf den Philippinen herrscht auf den Straßen Linksverkehr",NA,NA,NA,NA,NA,"true",227,NA
"TimePressureExp1","15",24,"male","native","Economics",1,"TimePressure","4","Practice",402,"Die Englische Queen ist gelernte Lastwagenmechanikerin",NA,NA,NA,NA,NA,"true",455,NA
"TimePressureExp1","15",24,"male","native","Economics",1,"TimePressure","4","Practice",403,"Der sicherste Platz in einem Auto ist hinten rechts",NA,NA,NA,NA,NA,"false",243,NA
"TimePressureExp1","15",24,"male","native","Economics",1,"TimePressure","4","Test",404,"Eine Kugelschreibermine reicht für einen 10 km langen Strich","SetB","true","yes",NA,NA,"true",337,1
"TimePressureExp1","15",24,"male","native","Economics",1,"TimePressure","4","Test",405,"Rainer Maria Rilke wurde wie ein Mädchen erzogen","SetA","true","no",NA,NA,NA,NA,NA
"TimePressureExp1","15",24,"male","native","Economics",1,"TimePressure","4","Test",406,"Der erste Roman wurde von einer Chinesin geschrieben","SetA","false","no",NA,NA,"true",208,0
"TimePressureExp1","15",24,"male","native","Economics",1,"TimePressure","4","Test",407,"Pseudokyesis bedeutet Empfindung ohne einen Reiz","SetB","false","yes",NA,NA,"false",246,1
"TimePressureExp1","15",24,"male","native","Economics",1,"TimePressure","4","Test",408,"Das erste Instrument, das Jimi Hendrix spielte, war eine Geige","SetA","false","no",NA,NA,"true",363,0
"TimePressureExp1","15",24,"male","native","Economics",1,"TimePressure","4","Test",409,"In Mexiko werden lebendige Käfer als Schmuck verwendet","SetB","true","yes",NA,NA,"true",571,1
"TimePressureExp1","15",24,"male","native","Economics",1,"TimePressure","4","Test",410,"Ein Mensch geht am Tag durchschnittlich 6000 Schritte","SetA","true","no",NA,NA,"true",131,1
"TimePressureExp1","15",24,"male","native","Economics",1,"TimePressure","4","Test",411,"Die Biene Maja wurde 1912 von Waldemar Bonsels erfunden","SetB","true","yes",NA,NA,"true",363,1
"TimePressureExp1","15",24,"male","native","Economics",1,"TimePressure","4","Test",412,"Männliche Affen können im Alter eine Glatze bekommen","SetA","true","no",NA,NA,"true",219,1
"TimePressureExp1","15",24,"male","native","Economics",1,"TimePressure","4","Test",413,"Einen kastrierten Esel nennt man auch Macker oder Knilch","SetB","true","yes",NA,NA,"false",624,0
"TimePressureExp1","15",24,"male","native","Economics",1,"TimePressure","4","Test",414,"Regenwürmer kommen aus der Erde, um nicht zu ersticken","SetB","false","yes",NA,NA,"true",455,0
"TimePressureExp1","15",24,"male","native","Economics",1,"TimePressure","4","Test",415,"Die abergläubische Angst vor der Zahl 13 heißt Triptophobie","SetA","false","no",NA,NA,"false",338,1
"TimePressureExp1","15",24,"male","native","Economics",1,"TimePressure","4","Test",416,"Jährlich fallen rund 20.000 Meteoriten auf die Erde herab","SetA","true","no",NA,NA,"true",627,1
"TimePressureExp1","15",24,"male","native","Economics",1,"TimePressure","4","Test",417,"Der Erfinder des Bikini war ursprünglich Schuhdesigner","SetB","false","yes",NA,NA,"false",89,1
"TimePressureExp1","15",24,"male","native","Economics",1,"TimePressure","4","Test",418,"Der Ketchup war ursprünglich eine mexikanische Erfindung","SetB","false","yes",NA,NA,"false",83,1
"TimePressureExp1","15",24,"male","native","Economics",1,"TimePressure","4","Test",419,"Blut fließt in ca. 46 Sekunden einmal durch den ganzen Körper","SetA","false","no",NA,NA,"false",78,1
"TimePressureExp1","15",24,"male","native","Economics",1,"TimePressure","4","Test",420,"Der Name Kaviar geht auf das türkische Wort khavia zurück","SetB","true","yes",NA,NA,NA,NA,NA
"TimePressureExp1","15",24,"male","native","Economics",1,"TimePressure","4","Test",421,"Frauen bekommen häufiger einen Schluckauf als Männer","SetB","false","yes",NA,NA,"false",247,1
"TimePressureExp1","15",24,"male","native","Economics",1,"TimePressure","4","Test",422,"Das Wort Kanada bedeutet ursprünglich kleines Städtchen","SetA","false","no",NA,NA,"true",60,0
"TimePressureExp1","15",24,"male","native","Economics",1,"TimePressure","4","Test",423,"Clint Eastwood leidet an einer starken Schlangenphobie","SetB","false","yes",NA,NA,"true",551,0
"TimePressureExp1","15",24,"male","native","Economics",1,"TimePressure","4","Test",424,"Das spanische Wort für Ehefrau ist das gleiche wie für Kerker","SetA","false","no",NA,NA,"false",144,1
"TimePressureExp1","15",24,"male","native","Economics",1,"TimePressure","4","Test",425,"Schnapserfinder Jim Beam hieß eigentlich Jakob Böhm","SetA","true","no",NA,NA,"true",439,1
"TimePressureExp1","15",24,"male","native","Economics",1,"TimePressure","4","Test",426,"Die Tochter von Sydney Poitier heißt Sydney Poitier","SetB","true","yes",NA,NA,NA,NA,NA
"TimePressureExp1","15",24,"male","native","Economics",1,"TimePressure","4","Test",427,"Ein Blauwal-Junges trinkt bis zu 600 Liter Muttermilch am Tag","SetB","true","yes",NA,NA,"false",243,0
"TimePressureExp1","15",24,"male","native","Economics",1,"TimePressure","4","Test",428,"Albatrosse legen über 500 Kilometer an einem Tag zurück","SetB","false","yes",NA,NA,"true",552,0
"TimePressureExp1","15",24,"male","native","Economics",1,"TimePressure","4","Test",429,"Michael Jackson besaß ein Patent auf seinen Tanzstil","SetA","false","no",NA,NA,"false",273,1
"TimePressureExp1","15",24,"male","native","Economics",1,"TimePressure","4","Test",430,"In der DDR gab es keinen einzigen erfolgreichen Banküberfall","SetB","true","yes",NA,NA,"false",228,0
"TimePressureExp1","15",24,"male","native","Economics",1,"TimePressure","4","Test",431,"Den Predigtstuhl einer Moschee nennt man Minbar","SetB","true","yes",NA,NA,"false",88,0
"TimePressureExp1","15",24,"male","native","Economics",1,"TimePressure","4","Test",432,"Die Frau des größten Mannes der Welt ist 2,03 m groß","SetB","false","yes",NA,NA,"true",435,0
"TimePressureExp1","15",24,"male","native","Economics",1,"TimePressure","4","Test",433,"Die Giraffe und der Mensch haben gleich viele Halswirbel","SetA","true","no",NA,NA,"true",576,1
"TimePressureExp1","15",24,"male","native","Economics",1,"TimePressure","4","Test",434,"Im alten Ägypten wurde mit Krokodilmist verhütet","SetA","true","no",NA,NA,"false",280,0
"TimePressureExp1","15",24,"male","native","Economics",1,"TimePressure","4","Test",435,"John Lennons voller Name war John George William Lennon","SetA","false","no",NA,NA,"false",315,1
"TimePressureExp1","15",24,"male","native","Economics",1,"TimePressure","4","Test",436,"Das Rote Meer verdankt seinen Namen einem Schreibfehler","SetA","true","no",NA,NA,"false",381,0
"TimePressureExp1","15",24,"male","native","Economics",1,"TimePressure","4","Test",437,"Eine Basilika ist ein römischer Tempel in quadratischer Form","SetB","false","yes",NA,NA,"true",476,0
"TimePressureExp1","15",24,"male","native","Economics",1,"TimePressure","4","Test",438,"Das erste Land, in dem Frauen wählen durften, war Finnland","SetA","false","no",NA,NA,NA,NA,NA
"TimePressureExp1","15",24,"male","native","Economics",1,"TimePressure","4","Test",439,"Der Höchstwert einer Briefmarke am Automat ist 36,75 Euro","SetB","true","yes",NA,NA,"false",487,0
"TimePressureExp1","15",24,"male","native","Economics",1,"TimePressure","4","Test",440,"Kleopatra war keine Ägypterin, sie kam aus Griechenland","SetA","true","no",NA,NA,"false",242,0
"TimePressureExp1","15",24,"male","native","Economics",1,"TimePressure","4","Test",441,"Der Nacktmull ist das schmerzempfindlichste Tier der Welt","SetA","false","no",NA,NA,"true",422,0
"TimePressureExp1","15",24,"male","native","Economics",1,"TimePressure","4","Test",442,"Die Slowakei gehört nicht zu den NATO-Staaten","SetB","false","yes",NA,NA,"false",291,1
"TimePressureExp1","15",24,"male","native","Economics",1,"TimePressure","4","Test",443,"Der Otto Normalverbraucher heißt in Italien Sergio Rossi","SetA","false","no",NA,NA,"false",294,1
"TimePressureExp1","15",24,"male","native","Economics",1,"TimePressure","4","Test",444,"Ein Blauwal kann einen ausgewachsenen Ochsen schlucken","SetA","false","no",NA,NA,"true",617,0
"TimePressureExp1","15",24,"male","native","Economics",1,"TimePressure","4","Test",445,"Der Maikäfer heißt in den USA übersetzt Junikäfer","SetB","true","yes",NA,NA,"true",384,1
"TimePressureExp1","15",24,"male","native","Economics",1,"TimePressure","4","Test",446,"Das lauteste Geräusch im Tierreich erzeugt der Pistolenkrebs","SetA","true","no",NA,NA,"false",142,0
"TimePressureExp1","15",24,"male","native","Economics",1,"TimePressure","4","Test",447,"Bud Spencer hat ein Patent auf einen Spazierstock mit Sitz","SetA","true","no",NA,NA,"false",295,0
"TimePressureExp1","15",24,"male","native","Economics",1,"TimePressure","4","Test",448,"Die Franzosen essen rund 1 Milliarde Schnecken pro Jahr","SetA","false","no",NA,NA,NA,NA,NA
"TimePressureExp1","15",24,"male","native","Economics",1,"TimePressure","4","Test",449,"Nicole Kidman hat panische Angst vor Schmetterlingen","SetA","true","no",NA,NA,"true",248,1
"TimePressureExp1","15",24,"male","native","Economics",1,"TimePressure","4","Test",450,"Der Ausdruck 08/15 geht auf einen Militärbefehl zurück","SetA","false","no",NA,NA,"true",237,0
"TimePressureExp1","15",24,"male","native","Economics",1,"TimePressure","4","Test",451,"Wer in Vietnam einen Hamster besitzt, muss Strafe bezahlen","SetB","true","yes",NA,NA,"true",177,1
"TimePressureExp1","15",24,"male","native","Economics",1,"TimePressure","4","Test",452,"Auf indischen Rupienscheinen sind 12 verschiedene Schriften","SetA","false","no",NA,NA,"false",360,1
"TimePressureExp1","15",24,"male","native","Economics",1,"TimePressure","4","Test",453,"In Schweden ist  Y erst seit kurzem ein offizieller Buchstabe","SetB","false","yes",NA,NA,"false",312,1
"TimePressureExp1","15",24,"male","native","Economics",1,"TimePressure","4","Test",454,"Deutsche Windmühlen drehen sich immer im Uhrzeigersinn","SetA","false","no",NA,NA,"true",218,0
"TimePressureExp1","15",24,"male","native","Economics",1,"TimePressure","4","Test",455,"Beim Noodling versucht man mit der Hand Fische zu fangen","SetB","true","yes",NA,NA,"false",479,0
"TimePressureExp1","15",24,"male","native","Economics",1,"TimePressure","4","Test",456,"Die US-Präsidenten Adams und Jefferson starben am 4.Juli","SetA","true","no",NA,NA,"true",459,1
"TimePressureExp1","15",24,"male","native","Economics",1,"TimePressure","4","Test",457,"Elefanten können als einzige Säugetiere nicht springen","SetB","true","yes",NA,NA,"true",119,1
"TimePressureExp1","15",24,"male","native","Economics",1,"TimePressure","4","Test",458,"Die Ohren der Laubheuschrecke sitzen unter ihren Knien","SetA","true","no",NA,NA,"false",400,0
"TimePressureExp1","15",24,"male","native","Economics",1,"TimePressure","4","Test",459,"Edmund Stoiber schrieb seine Dissertation über Erbrecht","SetB","false","yes",NA,NA,"true",271,0
"TimePressureExp1","15",24,"male","native","Economics",1,"TimePressure","4","Test",460,"Delphine schwimmen höchstens 54 Kilometer pro Stunde","SetB","true","yes",NA,NA,"true",3,1
"TimePressureExp1","15",24,"male","native","Economics",1,"TimePressure","4","Test",461,"Für ein Kilo Honig müssen Bienen 1 Millionen Blüten anfliegen","SetA","false","no",NA,NA,"true",351,0
"TimePressureExp1","15",24,"male","native","Economics",1,"TimePressure","4","Test",462,"Das Cc bei E-Mails steht für Carbon Copy (Kohledurchschlag)","SetA","true","no",NA,NA,"false",272,0
"TimePressureExp1","15",24,"male","native","Economics",1,"TimePressure","4","Test",463,"In der Gebärdensprache gibt es auch regionale Dialekte","SetA","true","no",NA,NA,NA,NA,NA
"TimePressureExp1","15",24,"male","native","Economics",1,"TimePressure","4","Test",464,"Der nicht sichtbare Teil des Eisbergs heißt Eisbergkiel","SetB","true","yes",NA,NA,"false",114,0
"TimePressureExp1","15",24,"male","native","Economics",1,"TimePressure","4","Test",465,"Nur Menschen und Affen besitzen einen Bauchnabel","SetA","true","no",NA,NA,"false",331,0
"TimePressureExp1","15",24,"male","native","Economics",1,"TimePressure","4","Test",466,"Eine mittelgroße Wolke wiegt etwa so viel wie 20 Elefanten","SetB","false","yes",NA,NA,"false",204,1
"TimePressureExp1","15",24,"male","native","Economics",1,"TimePressure","4","Test",467,"Die meisten Arbeitsunfälle passieren an einem Mittwoch","SetB","false","yes",NA,NA,"true",290,0
"TimePressureExp1","15",24,"male","native","Economics",1,"TimePressure","4","Test",468,"Die Hälfte aller Herzinfarkte tritt zwischen 6 und 12 Uhr auf","SetB","false","yes",NA,NA,"false",469,1
"TimePressureExp1","15",24,"male","native","Economics",1,"TimePressure","4","Test",469,"Den Torbau eines griechischen Tempels nennt man Propyläen","SetB","true","yes",NA,NA,NA,NA,NA
"TimePressureExp1","15",24,"male","native","Economics",1,"TimePressure","4","Test",470,"Die Freiheitsstatue misst 112,53 Meter bis zur Fackelspitze","SetB","false","yes",NA,NA,"true",127,0
"TimePressureExp1","15",24,"male","native","Economics",1,"TimePressure","4","Test",471,"Die Angst vor langen Wörtern nennt man Hippoendomanie","SetA","false","no",NA,NA,"false",408,1
"TimePressureExp1","15",24,"male","native","Economics",1,"TimePressure","4","Test",472,"Um eine Mahlzeit zu verdauen benötigt ein Wombat 14 Tage","SetB","true","yes",NA,NA,"false",358,0
"TimePressureExp1","15",24,"male","native","Economics",1,"TimePressure","4","Test",473,"Katzen haben in England sprichwörtlich elf Leben","SetB","false","yes",NA,NA,"true",614,0
"TimePressureExp1","15",24,"male","native","Economics",1,"TimePressure","4","Test",474,"Laut Descartes wies Schielen bei Frauen auf Frigidität hin","SetB","false","yes",NA,NA,"false",381,1
"TimePressureExp1","15",24,"male","native","Economics",1,"TimePressure","4","Test",475,"Die größte Kaninchenrasse der Welt ist der Deutsche Hammler","SetA","false","no",NA,NA,"true",172,0
"TimePressureExp1","15",24,"male","native","Economics",1,"TimePressure","4","Test",476,"Das italienische Tiramisu heißt übersetzt Halt mich fest!","SetA","false","no",NA,NA,"true",83,0
"TimePressureExp1","15",24,"male","native","Economics",1,"TimePressure","4","Test",477,"In Deutschland werden ausgemusterte Geldscheine verbrannt","SetB","false","yes",NA,NA,"true",350,0
"TimePressureExp1","15",24,"male","native","Economics",1,"TimePressure","4","Test",478,"Es gibt ein deutschsprachiges Dorf nahe der Grenze zu China","SetA","true","no",NA,NA,"false",319,0
"TimePressureExp1","15",24,"male","native","Economics",1,"TimePressure","4","Test",479,"Goethe schrieb genau 64 Jahre lang an seinem Faust","SetB","true","yes",NA,NA,"false",384,0
"TimePressureExp1","15",24,"male","native","Economics",1,"TimePressure","4","Test",480,"Der Name Wowereit heißt auf Litauisch Eichhörnchen","SetA","true","no",NA,NA,"true",303,1
"TimePressureExp1","15",24,"male","native","Economics",1,"TimePressure","4","Test",481,"Die kanadische Sängerin Celine Dion hat acht Geschwister","SetB","false","yes",NA,NA,"true",273,0
"TimePressureExp1","15",24,"male","native","Economics",1,"TimePressure","4","Test",482,"Der Speisesaal eines Klosters wird Refektorium genannt","SetA","true","no",NA,NA,"true",420,1
"TimePressureExp1","15",24,"male","native","Economics",1,"TimePressure","4","Test",483,"Seelöwen flüchten, wenn man sie mit Wasser bespritzt","SetB","true","yes",NA,NA,"true",162,1
"TimePressureExp1","16",19,"female","native","Sociology",2,"NoPressure","4","Practice",1,"Ein Gegenstand ist am Äquator leichter als am Nordpol",NA,NA,NA,"woman",2168,NA,NA,NA
"TimePressureExp1","16",19,"female","native","Sociology",2,"NoPressure","4","Practice",2,"Der Weißmeer-Kanal ist der längste Kanal der Erde",NA,NA,NA,"man",1571,NA,NA,NA
"TimePressureExp1","16",19,"female","native","Sociology",2,"NoPressure","4","Practice",3,"Ein Blatt Papier lässt sich genau achtmal in der Hälfte falten",NA,NA,NA,"man",2052,NA,NA,NA
"TimePressureExp1","16",19,"female","native","Sociology",2,"NoPressure","4","Practice",4,"Giraffen können sich mit ihrer Zunge die Ohren auslecken",NA,NA,NA,"woman",18,NA,NA,NA
"TimePressureExp1","16",19,"female","native","Sociology",2,"NoPressure","4","Practice",5,"Wenn Kühe zuviele Karotten essen, wird ihre Milch orange",NA,NA,NA,"woman",1711,NA,NA,NA
"TimePressureExp1","16",19,"female","native","Sociology",2,"NoPressure","4","Practice",6,"Die dänische Flagge ist die älteste Nationalflagge der Welt",NA,NA,NA,"man",2203,NA,NA,NA
