"","subject","statement_identifier","procedure_identifier","within_identifier","between_identifier","response","repeated","rt","trial"
"1",436,1,1,1,1,0,0,NA,0
"2",436,2,1,1,1,3,1,NA,1
"3",436,3,1,1,1,0,1,NA,2
"4",436,4,1,1,1,1,1,NA,3
"5",436,5,1,1,1,23,0,NA,4
"6",436,6,1,1,1,0,0,NA,5
"7",436,7,1,1,1,50,1,NA,6
"8",436,8,1,1,1,0,1,NA,7
"9",436,9,1,1,1,0,0,NA,8
"10",436,10,1,1,1,0,0,NA,9
"11",436,11,1,1,1,0,0,NA,10
"12",436,12,1,1,1,0,0,NA,11
"13",436,13,1,1,1,0,1,NA,12
"14",436,14,1,1,1,0,1,NA,13
"15",436,15,1,1,1,0,0,NA,14
"16",436,16,1,1,1,50,1,NA,15
"17",435,6,1,1,1,0,0,NA,0
"18",435,3,1,1,1,0,1,NA,1
"19",435,15,1,1,1,50,0,NA,2
"20",435,14,1,1,1,5,1,NA,3
"21",435,2,1,1,1,0,1,NA,4
"22",435,12,1,1,1,0,0,NA,5
"23",435,4,1,1,1,0,1,NA,6
"24",435,13,1,1,1,0,1,NA,7
"25",435,7,1,1,1,50,1,NA,8
"26",435,8,1,1,1,0,1,NA,9
"27",435,1,1,1,1,9,0,NA,10
"28",435,10,1,1,1,0,0,NA,11
"29",435,5,1,1,1,0,0,NA,12
"30",435,9,1,1,1,0,0,NA,13
"31",435,11,1,1,1,0,0,NA,14
"32",435,16,1,1,1,100,1,NA,15
"33",433,13,1,1,1,0,1,NA,0
"34",433,4,1,1,1,10,1,NA,1
"35",433,16,1,1,1,15,1,NA,2
"36",433,8,1,1,1,10,1,NA,3
"37",433,7,1,1,1,35,1,NA,4
"38",433,10,1,1,1,0,0,NA,5
"39",433,15,1,1,1,50,0,NA,6
"40",433,6,1,1,1,0,0,NA,7
"41",433,14,1,1,1,0,1,NA,8
"42",433,2,1,1,1,0,1,NA,9
"43",433,11,1,1,1,5,0,NA,10
"44",433,1,1,1,1,0,0,NA,11
"45",433,9,1,1,1,0,0,NA,12
"46",433,12,1,1,1,10,0,NA,13
"47",433,3,1,1,1,0,1,NA,14
"48",433,5,1,1,1,10,0,NA,15
"49",430,14,1,1,1,0,1,NA,0
"50",430,3,1,1,1,0,1,NA,1
"51",430,6,1,1,1,0,0,NA,2
"52",430,11,1,1,1,0,0,NA,3
"53",430,4,1,1,1,0,1,NA,4
"54",430,10,1,1,1,0,0,NA,5
"55",430,15,1,1,1,0,0,NA,6
"56",430,2,1,1,1,0,1,NA,7
"57",430,9,1,1,1,0,0,NA,8
"58",430,5,1,1,1,0,0,NA,9
"59",430,12,1,1,1,0,0,NA,10
"60",430,1,1,1,1,0,0,NA,11
"61",430,13,1,1,1,0,1,NA,12
"62",430,7,1,1,1,0,1,NA,13
"63",430,8,1,1,1,0,1,NA,14
"64",430,16,1,1,1,0,1,NA,15
"65",429,8,1,1,1,0,1,NA,0
"66",429,11,1,1,1,0,0,NA,1
"67",429,3,1,1,1,6,1,NA,2
"68",429,5,1,1,1,1,0,NA,3
"69",429,7,1,1,1,0,1,NA,4
"70",429,4,1,1,1,0,1,NA,5
"71",429,16,1,1,1,10,1,NA,6
"72",429,1,1,1,1,0,0,NA,7
"73",429,2,1,1,1,0,1,NA,8
"74",429,6,1,1,1,0,0,NA,9
"75",429,10,1,1,1,0,0,NA,10
"76",429,14,1,1,1,0,1,NA,11
"77",429,15,1,1,1,0,0,NA,12
"78",429,9,1,1,1,0,0,NA,13
"79",429,12,1,1,1,0,0,NA,14
"80",429,13,1,1,1,0,1,NA,15
"81",428,16,1,1,1,81,1,NA,0
"82",428,13,1,1,1,10,1,NA,1
"83",428,9,1,1,1,0,0,NA,2
"84",428,8,1,1,1,70,1,NA,3
"85",428,5,1,1,1,25,0,NA,4
"86",428,15,1,1,1,0,0,NA,5
"87",428,14,1,1,1,0,1,NA,6
"88",428,3,1,1,1,0,1,NA,7
"89",428,12,1,1,1,0,0,NA,8
"90",428,10,1,1,1,0,0,NA,9
"91",428,11,1,1,1,0,0,NA,10
"92",428,4,1,1,1,0,1,NA,11
"93",428,6,1,1,1,0,0,NA,12
"94",428,7,1,1,1,40,1,NA,13
"95",428,2,1,1,1,0,1,NA,14
"96",428,1,1,1,1,0,0,NA,15
"97",426,4,1,1,1,0,1,NA,0
"98",426,16,1,1,1,75,1,NA,1
"99",426,15,1,1,1,20,0,NA,2
"100",426,3,1,1,1,0,1,NA,3
"101",426,2,1,1,1,0,1,NA,4
"102",426,10,1,1,1,0,0,NA,5
"103",426,11,1,1,1,0,0,NA,6
"104",426,7,1,1,1,0,1,NA,7
"105",426,5,1,1,1,5,0,NA,8
"106",426,1,1,1,1,0,0,NA,9
"107",426,9,1,1,1,0,0,NA,10
"108",426,8,1,1,1,0,1,NA,11
"109",426,6,1,1,1,0,0,NA,12
"110",426,13,1,1,1,0,1,NA,13
"111",426,14,1,1,1,0,1,NA,14
"112",426,12,1,1,1,15,0,NA,15
"113",424,9,1,1,1,0,0,NA,0
"114",424,8,1,1,1,0,1,NA,1
"115",424,11,1,1,1,0,0,NA,2
"116",424,12,1,1,1,0,0,NA,3
"117",424,13,1,1,1,0,1,NA,4
"118",424,3,1,1,1,0,1,NA,5
"119",424,15,1,1,1,70,0,NA,6
"120",424,14,1,1,1,0,1,NA,7
"121",424,6,1,1,1,0,0,NA,8
"122",424,2,1,1,1,0,1,NA,9
"123",424,10,1,1,1,0,0,NA,10
"124",424,4,1,1,1,0,1,NA,11
"125",424,1,1,1,1,0,0,NA,12
"126",424,5,1,1,1,0,0,NA,13
"127",424,16,1,1,1,0,1,NA,14
"128",424,7,1,1,1,0,1,NA,15
"129",423,3,1,1,1,0,1,NA,0
"130",423,7,1,1,1,0,1,NA,1
"131",423,13,1,1,1,0,1,NA,2
"132",423,2,1,1,1,0,1,NA,3
"133",423,6,1,1,1,0,0,NA,4
"134",423,1,1,1,1,0,0,NA,5
"135",423,14,1,1,1,0,1,NA,6
"136",423,16,1,1,1,40,1,NA,7
"137",423,11,1,1,1,0,0,NA,8
"138",423,9,1,1,1,0,0,NA,9
"139",423,15,1,1,1,10,0,NA,10
"140",423,4,1,1,1,0,1,NA,11
"141",423,12,1,1,1,65,0,NA,12
"142",423,10,1,1,1,0,0,NA,13
"143",423,8,1,1,1,25,1,NA,14
"144",423,5,1,1,1,40,0,NA,15
"145",421,14,1,1,1,0,1,NA,0
"146",421,10,1,1,1,0,0,NA,1
"147",421,8,1,1,1,0,1,NA,2
"148",421,13,1,1,1,0,1,NA,3
"149",421,11,1,1,1,0,0,NA,4
"150",421,16,1,1,1,0,1,NA,5
"151",421,7,1,1,1,0,1,NA,6
"152",421,6,1,1,1,0,0,NA,7
"153",421,5,1,1,1,5,0,NA,8
"154",421,2,1,1,1,0,1,NA,9
"155",421,4,1,1,1,0,1,NA,10
"156",421,15,1,1,1,50,0,NA,11
"157",421,9,1,1,1,0,0,NA,12
"158",421,3,1,1,1,0,1,NA,13
"159",421,12,1,1,1,0,0,NA,14
"160",421,1,1,1,1,0,0,NA,15
"161",414,15,1,1,1,48,0,NA,0
"162",414,1,1,1,1,0,0,NA,1
"163",414,9,1,1,1,0,0,NA,2
"164",414,10,1,1,1,0,0,NA,3
"165",414,6,1,1,1,35,0,NA,4
"166",414,4,1,1,1,0,1,NA,5
"167",414,16,1,1,1,77,1,NA,6
"168",414,2,1,1,1,14,1,NA,7
"169",414,5,1,1,1,69,0,NA,8
"170",414,14,1,1,1,0,1,NA,9
"171",414,8,1,1,1,31,1,NA,10
"172",414,11,1,1,1,22,0,NA,11
"173",414,3,1,1,1,0,1,NA,12
"174",414,13,1,1,1,0,1,NA,13
"175",414,12,1,1,1,0,0,NA,14
"176",414,7,1,1,1,0,1,NA,15
"177",413,8,1,1,1,0,1,NA,0
"178",413,2,1,1,1,0,1,NA,1
"179",413,1,1,1,1,0,0,NA,2
"180",413,3,1,1,1,0,1,NA,3
"181",413,15,1,1,1,0,0,NA,4
"182",413,6,1,1,1,0,0,NA,5
"183",413,9,1,1,1,0,0,NA,6
"184",413,11,1,1,1,0,0,NA,7
"185",413,4,1,1,1,0,1,NA,8
"186",413,16,1,1,1,0,1,NA,9
"187",413,7,1,1,1,0,1,NA,10
"188",413,10,1,1,1,0,0,NA,11
"189",413,12,1,1,1,0,0,NA,12
"190",413,13,1,1,1,0,1,NA,13
"191",413,14,1,1,1,0,1,NA,14
"192",413,5,1,1,1,0,0,NA,15
"193",411,3,1,1,1,0,1,NA,0
"194",411,15,1,1,1,22,0,NA,1
"195",411,7,1,1,1,11,1,NA,2
"196",411,6,1,1,1,0,0,NA,3
"197",411,10,1,1,1,0,0,NA,4
"198",411,12,1,1,1,1,0,NA,5
"199",411,9,1,1,1,0,0,NA,6
"200",411,11,1,1,1,10,0,NA,7
"201",411,2,1,1,1,68,1,NA,8
"202",411,4,1,1,1,0,1,NA,9
"203",411,16,1,1,1,0,1,NA,10
"204",411,8,1,1,1,8,1,NA,11
"205",411,1,1,1,1,1,0,NA,12
"206",411,14,1,1,1,0,1,NA,13
"207",411,5,1,1,1,4,0,NA,14
"208",411,13,1,1,1,26,1,NA,15
"209",408,1,1,1,1,0,0,NA,0
"210",408,15,1,1,1,60,0,NA,1
"211",408,13,1,1,1,0,1,NA,2
"212",408,5,1,1,1,15,0,NA,3
"213",408,12,1,1,1,54,0,NA,4
"214",408,7,1,1,1,0,1,NA,5
"215",408,9,1,1,1,0,0,NA,6
"216",408,11,1,1,1,0,0,NA,7
"217",408,6,1,1,1,0,0,NA,8
"218",408,4,1,1,1,20,1,NA,9
"219",408,3,1,1,1,0,1,NA,10
"220",408,14,1,1,1,0,1,NA,11
"221",408,16,1,1,1,0,1,NA,12
"222",408,10,1,1,1,0,0,NA,13
"223",408,8,1,1,1,0,1,NA,14
"224",408,2,1,1,1,0,1,NA,15
"225",406,13,1,1,1,1,1,NA,0
"226",406,4,1,1,1,1,1,NA,1
"227",406,7,1,1,1,6,1,NA,2
"228",406,16,1,1,1,0,1,NA,3
"229",406,6,1,1,1,66,0,NA,4
"230",406,15,1,1,1,62,0,NA,5
"231",406,1,1,1,1,7,0,NA,6
"232",406,12,1,1,1,60,0,NA,7
"233",406,11,1,1,1,11,0,NA,8
"234",406,5,1,1,1,57,0,NA,9
"235",406,3,1,1,1,0,1,NA,10
"236",406,2,1,1,1,0,1,NA,11
"237",406,10,1,1,1,0,0,NA,12
"238",406,14,1,1,1,0,1,NA,13
"239",406,9,1,1,1,0,0,NA,14
"240",406,8,1,1,1,0,1,NA,15
"241",405,1,1,1,1,0,0,NA,0
"242",405,6,1,1,1,0,0,NA,1
"243",405,13,1,1,1,0,1,NA,2
"244",405,15,1,1,1,13,0,NA,3
"245",405,5,1,1,1,0,0,NA,4
"246",405,4,1,1,1,0,1,NA,5
"247",405,3,1,1,1,0,1,NA,6
"248",405,10,1,1,1,0,0,NA,7
"249",405,11,1,1,1,0,0,NA,8
"250",405,8,1,1,1,0,1,NA,9
"251",405,14,1,1,1,0,1,NA,10
"252",405,12,1,1,1,30,0,NA,11
"253",405,9,1,1,1,0,0,NA,12
"254",405,2,1,1,1,1,1,NA,13
"255",405,16,1,1,1,18,1,NA,14
"256",405,7,1,1,1,0,1,NA,15
"257",403,9,1,1,1,0,0,NA,0
"258",403,14,1,1,1,0,1,NA,1
"259",403,7,1,1,1,0,1,NA,2
"260",403,6,1,1,1,0,0,NA,3
"261",403,2,1,1,1,0,1,NA,4
"262",403,13,1,1,1,0,1,NA,5
"263",403,12,1,1,1,0,0,NA,6
"264",403,1,1,1,1,0,0,NA,7
"265",403,10,1,1,1,0,0,NA,8
"266",403,3,1,1,1,0,1,NA,9
"267",403,16,1,1,1,0,1,NA,10
"268",403,15,1,1,1,0,0,NA,11
"269",403,5,1,1,1,0,0,NA,12
"270",403,11,1,1,1,0,0,NA,13
"271",403,4,1,1,1,0,1,NA,14
"272",403,8,1,1,1,0,1,NA,15
"273",397,9,1,1,1,0,0,NA,0
"274",397,12,1,1,1,0,0,NA,1
"275",397,5,1,1,1,50,0,NA,2
"276",397,11,1,1,1,0,0,NA,3
"277",397,8,1,1,1,50,1,NA,4
"278",397,4,1,1,1,0,1,NA,5
"279",397,15,1,1,1,0,0,NA,6
"280",397,14,1,1,1,50,1,NA,7
"281",397,7,1,1,1,27,1,NA,8
"282",397,3,1,1,1,0,1,NA,9
"283",397,16,1,1,1,100,1,NA,10
"284",397,6,1,1,1,0,0,NA,11
"285",397,10,1,1,1,0,0,NA,12
"286",397,2,1,1,1,0,1,NA,13
"287",397,1,1,1,1,0,0,NA,14
"288",397,13,1,1,1,0,1,NA,15
"289",389,2,1,1,1,0,1,NA,0
"290",389,1,1,1,1,0,0,NA,1
"291",389,6,1,1,1,0,0,NA,2
"292",389,3,1,1,1,0,1,NA,3
"293",389,7,1,1,1,0,1,NA,4
"294",389,4,1,1,1,0,1,NA,5
"295",389,10,1,1,1,0,0,NA,6
"296",389,12,1,1,1,0,0,NA,7
"297",389,8,1,1,1,0,1,NA,8
"298",389,9,1,1,1,0,0,NA,9
"299",389,13,1,1,1,0,1,NA,10
"300",389,16,1,1,1,0,1,NA,11
"301",389,5,1,1,1,0,0,NA,12
"302",389,15,1,1,1,0,0,NA,13
"303",389,14,1,1,1,0,1,NA,14
"304",389,11,1,1,1,0,0,NA,15
"305",387,11,1,1,1,0,0,NA,0
"306",387,9,1,1,1,0,0,NA,1
"307",387,6,1,1,1,0,0,NA,2
"308",387,1,1,1,1,0,0,NA,3
"309",387,3,1,1,1,0,1,NA,4
"310",387,4,1,1,1,0,1,NA,5
"311",387,5,1,1,1,0,0,NA,6
"312",387,7,1,1,1,0,1,NA,7
"313",387,14,1,1,1,0,1,NA,8
"314",387,13,1,1,1,0,1,NA,9
"315",387,15,1,1,1,50,0,NA,10
"316",387,8,1,1,1,0,1,NA,11
"317",387,16,1,1,1,50,1,NA,12
"318",387,12,1,1,1,50,0,NA,13
"319",387,10,1,1,1,0,0,NA,14
"320",387,2,1,1,1,0,1,NA,15
"321",385,14,1,1,1,0,1,NA,0
"322",385,2,1,1,1,0,1,NA,1
"323",385,12,1,1,1,0,0,NA,2
"324",385,6,1,1,1,0,0,NA,3
"325",385,3,1,1,1,0,1,NA,4
"326",385,11,1,1,1,0,0,NA,5
"327",385,13,1,1,1,0,1,NA,6
"328",385,4,1,1,1,0,1,NA,7
"329",385,15,1,1,1,0,0,NA,8
"330",385,9,1,1,1,0,0,NA,9
"331",385,1,1,1,1,0,0,NA,10
"332",385,10,1,1,1,0,0,NA,11
"333",385,16,1,1,1,73,1,NA,12
"334",385,5,1,1,1,0,0,NA,13
"335",385,8,1,1,1,0,1,NA,14
"336",385,7,1,1,1,0,1,NA,15
"337",382,1,1,1,1,0,0,NA,0
"338",382,11,1,1,1,0,0,NA,1
"339",382,10,1,1,1,0,0,NA,2
"340",382,8,1,1,1,1,1,NA,3
"341",382,15,1,1,1,0,0,NA,4
"342",382,12,1,1,1,0,0,NA,5
"343",382,3,1,1,1,0,1,NA,6
"344",382,13,1,1,1,0,1,NA,7
"345",382,7,1,1,1,0,1,NA,8
"346",382,5,1,1,1,0,0,NA,9
"347",382,6,1,1,1,0,0,NA,10
"348",382,4,1,1,1,0,1,NA,11
"349",382,16,1,1,1,8,1,NA,12
"350",382,9,1,1,1,0,0,NA,13
"351",382,14,1,1,1,0,1,NA,14
"352",382,2,1,1,1,0,1,NA,15
"353",381,12,1,1,1,0,0,NA,0
"354",381,16,1,1,1,45,1,NA,1
"355",381,3,1,1,1,0,1,NA,2
"356",381,8,1,1,1,0,1,NA,3
"357",381,2,1,1,1,0,1,NA,4
"358",381,4,1,1,1,0,1,NA,5
"359",381,13,1,1,1,0,1,NA,6
"360",381,6,1,1,1,0,0,NA,7
"361",381,11,1,1,1,0,0,NA,8
"362",381,5,1,1,1,0,0,NA,9
"363",381,14,1,1,1,0,1,NA,10
"364",381,7,1,1,1,0,1,NA,11
"365",381,10,1,1,1,0,0,NA,12
"366",381,1,1,1,1,0,0,NA,13
"367",381,15,1,1,1,50,0,NA,14
"368",381,9,1,1,1,0,0,NA,15
"369",376,15,1,1,1,0,0,NA,0
"370",376,16,1,1,1,0,1,NA,1
"371",376,4,1,1,1,0,1,NA,2
"372",376,5,1,1,1,0,0,NA,3
"373",376,11,1,1,1,0,0,NA,4
"374",376,1,1,1,1,0,0,NA,5
"375",376,2,1,1,1,0,1,NA,6
"376",376,7,1,1,1,0,1,NA,7
"377",376,10,1,1,1,0,0,NA,8
"378",376,13,1,1,1,0,1,NA,9
"379",376,6,1,1,1,0,0,NA,10
"380",376,3,1,1,1,0,1,NA,11
"381",376,8,1,1,1,0,1,NA,12
"382",376,9,1,1,1,0,0,NA,13
"383",376,14,1,1,1,0,1,NA,14
"384",376,12,1,1,1,0,0,NA,15
"385",370,6,1,1,1,0,0,NA,0
"386",370,10,1,1,1,0,0,NA,1
"387",370,3,1,1,1,0,1,NA,2
"388",370,16,1,1,1,20,1,NA,3
"389",370,12,1,1,1,0,0,NA,4
"390",370,9,1,1,1,0,0,NA,5
"391",370,8,1,1,1,20,1,NA,6
"392",370,11,1,1,1,20,0,NA,7
"393",370,7,1,1,1,0,1,NA,8
"394",370,15,1,1,1,90,0,NA,9
"395",370,5,1,1,1,70,0,NA,10
"396",370,13,1,1,1,0,1,NA,11
"397",370,4,1,1,1,30,1,NA,12
"398",370,2,1,1,1,0,1,NA,13
"399",370,1,1,1,1,0,0,NA,14
"400",370,14,1,1,1,0,1,NA,15
"401",366,14,1,1,1,0,1,NA,0
"402",366,13,1,1,1,0,1,NA,1
"403",366,1,1,1,1,0,0,NA,2
"404",366,12,1,1,1,0,0,NA,3
"405",366,6,1,1,1,0,0,NA,4
"406",366,11,1,1,1,0,0,NA,5
"407",366,4,1,1,1,0,1,NA,6
"408",366,7,1,1,1,0,1,NA,7
"409",366,16,1,1,1,0,1,NA,8
"410",366,5,1,1,1,0,0,NA,9
"411",366,10,1,1,1,0,0,NA,10
"412",366,8,1,1,1,6,1,NA,11
"413",366,9,1,1,1,0,0,NA,12
"414",366,3,1,1,1,0,1,NA,13
"415",366,15,1,1,1,0,0,NA,14
"416",366,2,1,1,1,0,1,NA,15
"417",362,13,1,1,1,20,1,NA,0
"418",362,10,1,1,1,0,0,NA,1
"419",362,1,1,1,1,31,0,NA,2
"420",362,3,1,1,1,0,1,NA,3
"421",362,16,1,1,1,70,1,NA,4
"422",362,2,1,1,1,0,1,NA,5
"423",362,15,1,1,1,10,0,NA,6
"424",362,11,1,1,1,0,0,NA,7
"425",362,4,1,1,1,41,1,NA,8
"426",362,6,1,1,1,0,0,NA,9
"427",362,5,1,1,1,0,0,NA,10
"428",362,7,1,1,1,17,1,NA,11
"429",362,8,1,1,1,33,1,NA,12
"430",362,14,1,1,1,0,1,NA,13
"431",362,12,1,1,1,89,0,NA,14
"432",362,9,1,1,1,0,0,NA,15
"433",359,16,1,1,1,61,1,NA,0
"434",359,13,1,1,1,13,1,NA,1
"435",359,12,1,1,1,100,0,NA,2
"436",359,9,1,1,1,0,0,NA,3
"437",359,4,1,1,1,0,1,NA,4
"438",359,7,1,1,1,83,1,NA,5
"439",359,15,1,1,1,31,0,NA,6
"440",359,14,1,1,1,72,1,NA,7
"441",359,11,1,1,1,0,0,NA,8
"442",359,1,1,1,1,0,0,NA,9
"443",359,6,1,1,1,0,0,NA,10
"444",359,3,1,1,1,0,1,NA,11
"445",359,2,1,1,1,0,1,NA,12
"446",359,8,1,1,1,0,1,NA,13
"447",359,5,1,1,1,28,0,NA,14
"448",359,10,1,1,1,0,0,NA,15
"449",358,3,1,1,1,0,1,NA,0
"450",358,15,1,1,1,0,0,NA,1
"451",358,6,1,1,1,0,0,NA,2
"452",358,14,1,1,1,0,1,NA,3
"453",358,4,1,1,1,4,1,NA,4
"454",358,16,1,1,1,0,1,NA,5
"455",358,9,1,1,1,0,0,NA,6
"456",358,10,1,1,1,0,0,NA,7
"457",358,1,1,1,1,0,0,NA,8
"458",358,5,1,1,1,0,0,NA,9
"459",358,11,1,1,1,0,0,NA,10
"460",358,8,1,1,1,25,1,NA,11
"461",358,7,1,1,1,0,1,NA,12
"462",358,2,1,1,1,0,1,NA,13
"463",358,12,1,1,1,0,0,NA,14
"464",358,13,1,1,1,0,1,NA,15
"465",357,6,1,1,1,0,0,NA,0
"466",357,5,1,1,1,20,0,NA,1
"467",357,2,1,1,1,0,1,NA,2
"468",357,13,1,1,1,0,1,NA,3
"469",357,1,1,1,1,0,0,NA,4
"470",357,11,1,1,1,0,0,NA,5
"471",357,16,1,1,1,40,1,NA,6
"472",357,14,1,1,1,0,1,NA,7
"473",357,7,1,1,1,10,1,NA,8
"474",357,9,1,1,1,0,0,NA,9
"475",357,8,1,1,1,1,1,NA,10
"476",357,12,1,1,1,0,0,NA,11
"477",357,10,1,1,1,0,0,NA,12
"478",357,15,1,1,1,55,0,NA,13
"479",357,4,1,1,1,0,1,NA,14
"480",357,3,1,1,1,0,1,NA,15
"481",355,12,1,1,1,54,0,NA,0
"482",355,7,1,1,1,71,1,NA,1
"483",355,3,1,1,1,0,1,NA,2
"484",355,6,1,1,1,0,0,NA,3
"485",355,8,1,1,1,33,1,NA,4
"486",355,16,1,1,1,16,1,NA,5
"487",355,15,1,1,1,78,0,NA,6
"488",355,11,1,1,1,19,0,NA,7
"489",355,2,1,1,1,77,1,NA,8
"490",355,1,1,1,1,0,0,NA,9
"491",355,10,1,1,1,0,0,NA,10
"492",355,14,1,1,1,0,1,NA,11
"493",355,13,1,1,1,0,1,NA,12
"494",355,5,1,1,1,0,0,NA,13
"495",355,4,1,1,1,33,1,NA,14
"496",355,9,1,1,1,0,0,NA,15
"497",353,11,1,1,1,2,0,NA,0
"498",353,4,1,1,1,0,1,NA,1
"499",353,7,1,1,1,19,1,NA,2
"500",353,8,1,1,1,0,1,NA,3
"501",353,2,1,1,1,0,1,NA,4
"502",353,13,1,1,1,0,1,NA,5
"503",353,12,1,1,1,5,0,NA,6
"504",353,9,1,1,1,0,0,NA,7
"505",353,10,1,1,1,7,0,NA,8
"506",353,16,1,1,1,6,1,NA,9
"507",353,14,1,1,1,8,1,NA,10
"508",353,6,1,1,1,0,0,NA,11
"509",353,15,1,1,1,0,0,NA,12
"510",353,1,1,1,1,5,0,NA,13
"511",353,3,1,1,1,0,1,NA,14
"512",353,5,1,1,1,3,0,NA,15
"513",352,9,1,1,1,0,0,NA,0
"514",352,16,1,1,1,0,1,NA,1
"515",352,2,1,1,1,0,1,NA,2
"516",352,8,1,1,1,0,1,NA,3
"517",352,15,1,1,1,0,0,NA,4
"518",352,7,1,1,1,0,1,NA,5
"519",352,12,1,1,1,0,0,NA,6
"520",352,3,1,1,1,0,1,NA,7
"521",352,5,1,1,1,0,0,NA,8
"522",352,14,1,1,1,0,1,NA,9
"523",352,1,1,1,1,0,0,NA,10
"524",352,11,1,1,1,0,0,NA,11
"525",352,13,1,1,1,0,1,NA,12
"526",352,6,1,1,1,0,0,NA,13
"527",352,10,1,1,1,0,0,NA,14
"528",352,4,1,1,1,0,1,NA,15
"529",350,5,1,1,1,4,0,NA,0
"530",350,13,1,1,1,2,1,NA,1
"531",350,10,1,1,1,0,0,NA,2
"532",350,12,1,1,1,1,0,NA,3
"533",350,14,1,1,1,0,1,NA,4
"534",350,4,1,1,1,0,1,NA,5
"535",350,8,1,1,1,0,1,NA,6
"536",350,7,1,1,1,0,1,NA,7
"537",350,15,1,1,1,0,0,NA,8
"538",350,6,1,1,1,0,0,NA,9
"539",350,9,1,1,1,0,0,NA,10
"540",350,16,1,1,1,0,1,NA,11
"541",350,3,1,1,1,0,1,NA,12
"542",350,1,1,1,1,0,0,NA,13
"543",350,11,1,1,1,0,0,NA,14
"544",350,2,1,1,1,0,1,NA,15
"545",347,7,1,1,1,0,1,NA,0
"546",347,1,1,1,1,0,0,NA,1
"547",347,4,1,1,1,0,1,NA,2
"548",347,6,1,1,1,0,0,NA,3
"549",347,5,1,1,1,81,0,NA,4
"550",347,9,1,1,1,0,0,NA,5
"551",347,8,1,1,1,0,1,NA,6
"552",347,13,1,1,1,0,1,NA,7
"553",347,11,1,1,1,0,0,NA,8
"554",347,12,1,1,1,72,0,NA,9
"555",347,10,1,1,1,0,0,NA,10
"556",347,15,1,1,1,0,0,NA,11
"557",347,2,1,1,1,0,1,NA,12
"558",347,14,1,1,1,0,1,NA,13
"559",347,16,1,1,1,0,1,NA,14
"560",347,3,1,1,1,0,1,NA,15
"561",346,5,1,1,1,2,0,NA,0
"562",346,7,1,1,1,0,1,NA,1
"563",346,14,1,1,1,0,1,NA,2
"564",346,11,1,1,1,7,0,NA,3
"565",346,6,1,1,1,0,0,NA,4
"566",346,8,1,1,1,0,1,NA,5
"567",346,13,1,1,1,0,1,NA,6
"568",346,4,1,1,1,0,1,NA,7
"569",346,3,1,1,1,0,1,NA,8
"570",346,10,1,1,1,0,0,NA,9
"571",346,16,1,1,1,50,1,NA,10
"572",346,9,1,1,1,0,0,NA,11
"573",346,1,1,1,1,0,0,NA,12
"574",346,12,1,1,1,0,0,NA,13
"575",346,15,1,1,1,0,0,NA,14
"576",346,2,1,1,1,0,1,NA,15
"577",342,7,1,1,1,13,1,NA,0
"578",342,5,1,1,1,8,0,NA,1
"579",342,13,1,1,1,0,1,NA,2
"580",342,16,1,1,1,69,1,NA,3
"581",342,6,1,1,1,0,0,NA,4
"582",342,8,1,1,1,0,1,NA,5
"583",342,10,1,1,1,0,0,NA,6
"584",342,9,1,1,1,0,0,NA,7
"585",342,3,1,1,1,0,1,NA,8
"586",342,12,1,1,1,0,0,NA,9
"587",342,2,1,1,1,5,1,NA,10
"588",342,4,1,1,1,8,1,NA,11
"589",342,1,1,1,1,0,0,NA,12
"590",342,11,1,1,1,0,0,NA,13
"591",342,15,1,1,1,27,0,NA,14
"592",342,14,1,1,1,0,1,NA,15
"593",341,13,1,1,1,0,1,NA,0
"594",341,2,1,1,1,0,1,NA,1
"595",341,16,1,1,1,0,1,NA,2
"596",341,1,1,1,1,0,0,NA,3
"597",341,7,1,1,1,0,1,NA,4
"598",341,11,1,1,1,0,0,NA,5
"599",341,14,1,1,1,5,1,NA,6
"600",341,12,1,1,1,0,0,NA,7
"601",341,10,1,1,1,0,0,NA,8
"602",341,4,1,1,1,0,1,NA,9
"603",341,9,1,1,1,0,0,NA,10
"604",341,15,1,1,1,0,0,NA,11
"605",341,5,1,1,1,0,0,NA,12
"606",341,6,1,1,1,0,0,NA,13
"607",341,3,1,1,1,0,1,NA,14
"608",341,8,1,1,1,0,1,NA,15
"609",337,5,1,1,1,0,0,NA,0
"610",337,3,1,1,1,0,1,NA,1
"611",337,14,1,1,1,0,1,NA,2
"612",337,8,1,1,1,0,1,NA,3
"613",337,6,1,1,1,0,0,NA,4
"614",337,13,1,1,1,0,1,NA,5
"615",337,4,1,1,1,0,1,NA,6
"616",337,9,1,1,1,0,0,NA,7
"617",337,2,1,1,1,0,1,NA,8
"618",337,11,1,1,1,0,0,NA,9
"619",337,15,1,1,1,0,0,NA,10
"620",337,16,1,1,1,0,1,NA,11
"621",337,7,1,1,1,0,1,NA,12
"622",337,10,1,1,1,0,0,NA,13
"623",337,1,1,1,1,0,0,NA,14
"624",337,12,1,1,1,0,0,NA,15
"625",334,1,1,1,1,0,0,NA,0
"626",334,5,1,1,1,0,0,NA,1
"627",334,14,1,1,1,0,1,NA,2
"628",334,2,1,1,1,0,1,NA,3
"629",334,6,1,1,1,0,0,NA,4
"630",334,11,1,1,1,0,0,NA,5
"631",334,10,1,1,1,0,0,NA,6
"632",334,4,1,1,1,0,1,NA,7
"633",334,3,1,1,1,0,1,NA,8
"634",334,12,1,1,1,0,0,NA,9
"635",334,15,1,1,1,0,0,NA,10
"636",334,16,1,1,1,0,1,NA,11
"637",334,8,1,1,1,0,1,NA,12
"638",334,13,1,1,1,0,1,NA,13
"639",334,9,1,1,1,0,0,NA,14
"640",334,7,1,1,1,0,1,NA,15
"641",333,11,1,1,1,0,0,NA,0
"642",333,16,1,1,1,10,1,NA,1
"643",333,8,1,1,1,0,1,NA,2
"644",333,7,1,1,1,5,1,NA,3
"645",333,14,1,1,1,0,1,NA,4
"646",333,1,1,1,1,0,0,NA,5
"647",333,4,1,1,1,0,1,NA,6
"648",333,13,1,1,1,0,1,NA,7
"649",333,12,1,1,1,0,0,NA,8
"650",333,6,1,1,1,0,0,NA,9
"651",333,9,1,1,1,0,0,NA,10
"652",333,10,1,1,1,0,0,NA,11
"653",333,2,1,1,1,0,1,NA,12
"654",333,15,1,1,1,0,0,NA,13
"655",333,5,1,1,1,0,0,NA,14
"656",333,3,1,1,1,0,1,NA,15
"657",332,15,1,1,1,0,0,NA,0
"658",332,7,1,1,1,0,1,NA,1
"659",332,9,1,1,1,0,0,NA,2
"660",332,8,1,1,1,0,1,NA,3
"661",332,12,1,1,1,0,0,NA,4
"662",332,16,1,1,1,0,1,NA,5
"663",332,1,1,1,1,0,0,NA,6
"664",332,13,1,1,1,0,1,NA,7
"665",332,3,1,1,1,0,1,NA,8
"666",332,6,1,1,1,0,0,NA,9
"667",332,10,1,1,1,0,0,NA,10
"668",332,5,1,1,1,0,0,NA,11
"669",332,14,1,1,1,0,1,NA,12
"670",332,11,1,1,1,0,0,NA,13
"671",332,4,1,1,1,0,1,NA,14
"672",332,2,1,1,1,0,1,NA,15
"673",331,5,1,1,1,16,0,NA,0
"674",331,3,1,1,1,0,1,NA,1
"675",331,10,1,1,1,0,0,NA,2
"676",331,4,1,1,1,0,1,NA,3
"677",331,16,1,1,1,0,1,NA,4
"678",331,6,1,1,1,0,0,NA,5
"679",331,8,1,1,1,0,1,NA,6
"680",331,9,1,1,1,0,0,NA,7
"681",331,12,1,1,1,0,0,NA,8
"682",331,13,1,1,1,0,1,NA,9
"683",331,1,1,1,1,0,0,NA,10
"684",331,15,1,1,1,0,0,NA,11
"685",331,7,1,1,1,0,1,NA,12
"686",331,14,1,1,1,0,1,NA,13
"687",331,2,1,1,1,0,1,NA,14
"688",331,11,1,1,1,0,0,NA,15
"689",329,3,1,1,1,0,1,NA,0
"690",329,1,1,1,1,0,0,NA,1
"691",329,4,1,1,1,25,1,NA,2
"692",329,8,1,1,1,20,1,NA,3
"693",329,16,1,1,1,20,1,NA,4
"694",329,15,1,1,1,5,0,NA,5
"695",329,2,1,1,1,0,1,NA,6
"696",329,9,1,1,1,0,0,NA,7
"697",329,11,1,1,1,0,0,NA,8
"698",329,6,1,1,1,0,0,NA,9
"699",329,5,1,1,1,65,0,NA,10
"700",329,10,1,1,1,0,0,NA,11
"701",329,7,1,1,1,0,1,NA,12
"702",329,14,1,1,1,0,1,NA,13
"703",329,13,1,1,1,0,1,NA,14
"704",329,12,1,1,1,0,0,NA,15
"705",327,3,1,1,1,50,1,NA,0
"706",327,2,1,1,1,0,1,NA,1
"707",327,6,1,1,1,0,0,NA,2
"708",327,14,1,1,1,0,1,NA,3
"709",327,16,1,1,1,0,1,NA,4
"710",327,8,1,1,1,0,1,NA,5
"711",327,1,1,1,1,0,0,NA,6
"712",327,5,1,1,1,0,0,NA,7
"713",327,15,1,1,1,0,0,NA,8
"714",327,9,1,1,1,0,0,NA,9
"715",327,12,1,1,1,0,0,NA,10
"716",327,10,1,1,1,0,0,NA,11
"717",327,4,1,1,1,0,1,NA,12
"718",327,7,1,1,1,0,1,NA,13
"719",327,13,1,1,1,0,1,NA,14
"720",327,11,1,1,1,0,0,NA,15
"721",326,14,1,1,1,0,1,NA,0
"722",326,5,1,1,1,5,0,NA,1
"723",326,13,1,1,1,0,1,NA,2
"724",326,6,1,1,1,0,0,NA,3
"725",326,9,1,1,1,0,0,NA,4
"726",326,10,1,1,1,0,0,NA,5
"727",326,1,1,1,1,0,0,NA,6
"728",326,7,1,1,1,5,1,NA,7
"729",326,11,1,1,1,0,0,NA,8
"730",326,3,1,1,1,0,1,NA,9
"731",326,2,1,1,1,0,1,NA,10
"732",326,4,1,1,1,0,1,NA,11
"733",326,16,1,1,1,0,1,NA,12
"734",326,8,1,1,1,1,1,NA,13
"735",326,15,1,1,1,0,0,NA,14
"736",326,12,1,1,1,0,0,NA,15
"737",325,3,1,1,1,0,1,NA,0
"738",325,11,1,1,1,25,0,NA,1
"739",325,12,1,1,1,8,0,NA,2
"740",325,7,1,1,1,9,1,NA,3
"741",325,4,1,1,1,1,1,NA,4
"742",325,1,1,1,1,0,0,NA,5
"743",325,13,1,1,1,7,1,NA,6
"744",325,2,1,1,1,7,1,NA,7
"745",325,10,1,1,1,12,0,NA,8
"746",325,15,1,1,1,0,0,NA,9
"747",325,5,1,1,1,6,0,NA,10
"748",325,6,1,1,1,7,0,NA,11
"749",325,14,1,1,1,0,1,NA,12
"750",325,16,1,1,1,7,1,NA,13
"751",325,9,1,1,1,0,0,NA,14
"752",325,8,1,1,1,4,1,NA,15
"753",320,15,1,1,1,0,0,NA,0
"754",320,12,1,1,1,0,0,NA,1
"755",320,10,1,1,1,7,0,NA,2
"756",320,4,1,1,1,0,1,NA,3
"757",320,8,1,1,1,7,1,NA,4
"758",320,14,1,1,1,0,1,NA,5
"759",320,13,1,1,1,0,1,NA,6
"760",320,2,1,1,1,0,1,NA,7
"761",320,1,1,1,1,0,0,NA,8
"762",320,7,1,1,1,0,1,NA,9
"763",320,5,1,1,1,0,0,NA,10
"764",320,11,1,1,1,0,0,NA,11
"765",320,6,1,1,1,0,0,NA,12
"766",320,9,1,1,1,0,0,NA,13
"767",320,16,1,1,1,50,1,NA,14
"768",320,3,1,1,1,0,1,NA,15
"769",318,7,1,1,1,0,1,NA,0
"770",318,12,1,1,1,1,0,NA,1
"771",318,11,1,1,1,0,0,NA,2
"772",318,3,1,1,1,0,1,NA,3
"773",318,14,1,1,1,0,1,NA,4
"774",318,1,1,1,1,0,0,NA,5
"775",318,9,1,1,1,0,0,NA,6
"776",318,2,1,1,1,0,1,NA,7
"777",318,16,1,1,1,8,1,NA,8
"778",318,15,1,1,1,0,0,NA,9
"779",318,4,1,1,1,0,1,NA,10
"780",318,13,1,1,1,14,1,NA,11
"781",318,5,1,1,1,0,0,NA,12
"782",318,6,1,1,1,0,0,NA,13
"783",318,8,1,1,1,0,1,NA,14
"784",318,10,1,1,1,0,0,NA,15
"785",317,13,1,1,1,0,1,NA,0
"786",317,16,1,1,1,80,1,NA,1
"787",317,7,1,1,1,25,1,NA,2
"788",317,5,1,1,1,30,0,NA,3
"789",317,9,1,1,1,0,0,NA,4
"790",317,10,1,1,1,0,0,NA,5
"791",317,12,1,1,1,0,0,NA,6
"792",317,1,1,1,1,0,0,NA,7
"793",317,8,1,1,1,26,1,NA,8
"794",317,3,1,1,1,0,1,NA,9
"795",317,15,1,1,1,63,0,NA,10
"796",317,11,1,1,1,0,0,NA,11
"797",317,4,1,1,1,0,1,NA,12
"798",317,6,1,1,1,11,0,NA,13
"799",317,14,1,1,1,0,1,NA,14
"800",317,2,1,1,1,0,1,NA,15
"801",313,4,1,1,1,72,1,NA,0
"802",313,7,1,1,1,0,1,NA,1
"803",313,11,1,1,1,0,0,NA,2
"804",313,9,1,1,1,0,0,NA,3
"805",313,14,1,1,1,0,1,NA,4
"806",313,5,1,1,1,65,0,NA,5
"807",313,16,1,1,1,20,1,NA,6
"808",313,15,1,1,1,37,0,NA,7
"809",313,1,1,1,1,0,0,NA,8
"810",313,13,1,1,1,0,1,NA,9
"811",313,3,1,1,1,0,1,NA,10
"812",313,6,1,1,1,67,0,NA,11
"813",313,12,1,1,1,38,0,NA,12
"814",313,8,1,1,1,0,1,NA,13
"815",313,10,1,1,1,0,0,NA,14
"816",313,2,1,1,1,0,1,NA,15
"817",310,8,1,1,1,71,1,NA,0
"818",310,11,1,1,1,12,0,NA,1
"819",310,7,1,1,1,0,1,NA,2
"820",310,14,1,1,1,0,1,NA,3
"821",310,10,1,1,1,0,0,NA,4
"822",310,3,1,1,1,0,1,NA,5
"823",310,1,1,1,1,0,0,NA,6
"824",310,2,1,1,1,0,1,NA,7
"825",310,6,1,1,1,0,0,NA,8
"826",310,13,1,1,1,0,1,NA,9
"827",310,9,1,1,1,0,0,NA,10
"828",310,12,1,1,1,63,0,NA,11
"829",310,4,1,1,1,0,1,NA,12
"830",310,15,1,1,1,5,0,NA,13
"831",310,16,1,1,1,69,1,NA,14
"832",310,5,1,1,1,26,0,NA,15
"833",307,13,1,1,1,0,1,NA,0
"834",307,1,1,1,1,0,0,NA,1
"835",307,2,1,1,1,30,1,NA,2
"836",307,11,1,1,1,0,0,NA,3
"837",307,15,1,1,1,55,0,NA,4
"838",307,3,1,1,1,0,1,NA,5
"839",307,10,1,1,1,0,0,NA,6
"840",307,6,1,1,1,27,0,NA,7
"841",307,16,1,1,1,62,1,NA,8
"842",307,12,1,1,1,57,0,NA,9
"843",307,4,1,1,1,50,1,NA,10
"844",307,5,1,1,1,28,0,NA,11
"845",307,14,1,1,1,0,1,NA,12
"846",307,7,1,1,1,56,1,NA,13
"847",307,9,1,1,1,0,0,NA,14
"848",307,8,1,1,1,0,1,NA,15
"849",306,2,1,1,1,0,1,NA,0
"850",306,13,1,1,1,0,1,NA,1
"851",306,11,1,1,1,0,0,NA,2
"852",306,3,1,1,1,0,1,NA,3
"853",306,10,1,1,1,0,0,NA,4
"854",306,9,1,1,1,0,0,NA,5
"855",306,12,1,1,1,100,0,NA,6
"856",306,5,1,1,1,0,0,NA,7
"857",306,6,1,1,1,0,0,NA,8
"858",306,15,1,1,1,0,0,NA,9
"859",306,4,1,1,1,0,1,NA,10
"860",306,7,1,1,1,0,1,NA,11
"861",306,1,1,1,1,0,0,NA,12
"862",306,16,1,1,1,0,1,NA,13
"863",306,14,1,1,1,0,1,NA,14
"864",306,8,1,1,1,0,1,NA,15
"865",302,13,1,1,1,0,1,NA,0
"866",302,10,1,1,1,0,0,NA,1
"867",302,14,1,1,1,16,1,NA,2
"868",302,7,1,1,1,0,1,NA,3
"869",302,4,1,1,1,67,1,NA,4
"870",302,5,1,1,1,12,0,NA,5
"871",302,8,1,1,1,15,1,NA,6
"872",302,16,1,1,1,41,1,NA,7
"873",302,12,1,1,1,0,0,NA,8
"874",302,11,1,1,1,0,0,NA,9
"875",302,9,1,1,1,0,0,NA,10
"876",302,3,1,1,1,0,1,NA,11
"877",302,15,1,1,1,57,0,NA,12
"878",302,6,1,1,1,48,0,NA,13
"879",302,2,1,1,1,8,1,NA,14
"880",302,1,1,1,1,0,0,NA,15
"881",301,12,1,1,1,0,0,NA,0
"882",301,9,1,1,1,0,0,NA,1
"883",301,1,1,1,1,0,0,NA,2
"884",301,14,1,1,1,0,1,NA,3
"885",301,4,1,1,1,0,1,NA,4
"886",301,13,1,1,1,0,1,NA,5
"887",301,16,1,1,1,75,1,NA,6
"888",301,15,1,1,1,0,0,NA,7
"889",301,6,1,1,1,0,0,NA,8
"890",301,8,1,1,1,0,1,NA,9
"891",301,5,1,1,1,0,0,NA,10
"892",301,10,1,1,1,0,0,NA,11
"893",301,11,1,1,1,0,0,NA,12
"894",301,7,1,1,1,0,1,NA,13
"895",301,3,1,1,1,0,1,NA,14
"896",301,2,1,1,1,0,1,NA,15
"897",299,6,1,1,1,0,0,NA,0
"898",299,14,1,1,1,0,1,NA,1
"899",299,9,1,1,1,0,0,NA,2
"900",299,3,1,1,1,0,1,NA,3
"901",299,5,1,1,1,5,0,NA,4
"902",299,11,1,1,1,7,0,NA,5
"903",299,8,1,1,1,31,1,NA,6
"904",299,7,1,1,1,0,1,NA,7
"905",299,13,1,1,1,1,1,NA,8
"906",299,12,1,1,1,92,0,NA,9
"907",299,2,1,1,1,1,1,NA,10
"908",299,15,1,1,1,0,0,NA,11
"909",299,1,1,1,1,0,0,NA,12
"910",299,4,1,1,1,0,1,NA,13
"911",299,10,1,1,1,0,0,NA,14
"912",299,16,1,1,1,50,1,NA,15
"913",298,11,1,1,1,0,0,NA,0
"914",298,15,1,1,1,5,0,NA,1
"915",298,7,1,1,1,0,1,NA,2
"916",298,9,1,1,1,0,0,NA,3
"917",298,4,1,1,1,0,1,NA,4
"918",298,16,1,1,1,0,1,NA,5
"919",298,1,1,1,1,0,0,NA,6
"920",298,10,1,1,1,0,0,NA,7
"921",298,2,1,1,1,0,1,NA,8
"922",298,12,1,1,1,0,0,NA,9
"923",298,14,1,1,1,0,1,NA,10
"924",298,8,1,1,1,0,1,NA,11
"925",298,6,1,1,1,0,0,NA,12
"926",298,13,1,1,1,0,1,NA,13
"927",298,5,1,1,1,0,0,NA,14
"928",298,3,1,1,1,0,1,NA,15
"929",296,6,1,1,1,0,0,NA,0
"930",296,15,1,1,1,0,0,NA,1
"931",296,7,1,1,1,0,1,NA,2
"932",296,5,1,1,1,23,0,NA,3
"933",296,13,1,1,1,0,1,NA,4
"934",296,10,1,1,1,0,0,NA,5
"935",296,1,1,1,1,0,0,NA,6
"936",296,11,1,1,1,0,0,NA,7
"937",296,12,1,1,1,0,0,NA,8
"938",296,9,1,1,1,0,0,NA,9
"939",296,3,1,1,1,0,1,NA,10
"940",296,8,1,1,1,0,1,NA,11
"941",296,4,1,1,1,0,1,NA,12
"942",296,2,1,1,1,0,1,NA,13
"943",296,16,1,1,1,77,1,NA,14
"944",296,14,1,1,1,0,1,NA,15
"945",295,11,1,1,1,0,0,NA,0
"946",295,1,1,1,1,0,0,NA,1
"947",295,3,1,1,1,0,1,NA,2
"948",295,14,1,1,1,0,1,NA,3
"949",295,6,1,1,1,0,0,NA,4
"950",295,9,1,1,1,0,0,NA,5
"951",295,7,1,1,1,0,1,NA,6
"952",295,8,1,1,1,0,1,NA,7
"953",295,13,1,1,1,0,1,NA,8
"954",295,5,1,1,1,0,0,NA,9
"955",295,16,1,1,1,50,1,NA,10
"956",295,15,1,1,1,0,0,NA,11
"957",295,4,1,1,1,0,1,NA,12
"958",295,2,1,1,1,0,1,NA,13
"959",295,12,1,1,1,0,0,NA,14
"960",295,10,1,1,1,0,0,NA,15
"961",292,15,1,1,1,0,0,NA,0
"962",292,9,1,1,1,0,0,NA,1
"963",292,11,1,1,1,26,0,NA,2
"964",292,13,1,1,1,0,1,NA,3
"965",292,6,1,1,1,0,0,NA,4
"966",292,5,1,1,1,0,0,NA,5
"967",292,3,1,1,1,0,1,NA,6
"968",292,7,1,1,1,12,1,NA,7
"969",292,8,1,1,1,8,1,NA,8
"970",292,12,1,1,1,0,0,NA,9
"971",292,10,1,1,1,0,0,NA,10
"972",292,2,1,1,1,0,1,NA,11
"973",292,4,1,1,1,0,1,NA,12
"974",292,16,1,1,1,30,1,NA,13
"975",292,1,1,1,1,0,0,NA,14
"976",292,14,1,1,1,24,1,NA,15
"977",291,3,1,1,1,0,1,NA,0
"978",291,13,1,1,1,20,1,NA,1
"979",291,2,1,1,1,0,1,NA,2
"980",291,4,1,1,1,0,1,NA,3
"981",291,16,1,1,1,65,1,NA,4
"982",291,12,1,1,1,0,0,NA,5
"983",291,9,1,1,1,0,0,NA,6
"984",291,1,1,1,1,0,0,NA,7
"985",291,5,1,1,1,15,0,NA,8
"986",291,6,1,1,1,30,0,NA,9
"987",291,14,1,1,1,0,1,NA,10
"988",291,7,1,1,1,10,1,NA,11
"989",291,15,1,1,1,0,0,NA,12
"990",291,10,1,1,1,0,0,NA,13
"991",291,11,1,1,1,0,0,NA,14
"992",291,8,1,1,1,0,1,NA,15
"993",289,6,1,1,1,0,0,NA,0
"994",289,2,1,1,1,0,1,NA,1
"995",289,16,1,1,1,50,1,NA,2
"996",289,12,1,1,1,0,0,NA,3
"997",289,3,1,1,1,0,1,NA,4
"998",289,14,1,1,1,0,1,NA,5
"999",289,13,1,1,1,0,1,NA,6
"1000",289,7,1,1,1,0,1,NA,7
"1001",289,1,1,1,1,0,0,NA,8
"1002",289,11,1,1,1,0,0,NA,9
"1003",289,5,1,1,1,49,0,NA,10
"1004",289,10,1,1,1,0,0,NA,11
"1005",289,9,1,1,1,0,0,NA,12
"1006",289,4,1,1,1,0,1,NA,13
"1007",289,8,1,1,1,0,1,NA,14
"1008",289,15,1,1,1,0,0,NA,15
"1009",287,11,1,1,1,0,0,NA,0
"1010",287,5,1,1,1,63,0,NA,1
"1011",287,7,1,1,1,6,1,NA,2
"1012",287,14,1,1,1,0,1,NA,3
"1013",287,6,1,1,1,0,0,NA,4
"1014",287,8,1,1,1,50,1,NA,5
"1015",287,2,1,1,1,0,1,NA,6
"1016",287,3,1,1,1,0,1,NA,7
"1017",287,1,1,1,1,0,0,NA,8
"1018",287,9,1,1,1,0,0,NA,9
"1019",287,4,1,1,1,0,1,NA,10
"1020",287,12,1,1,1,100,0,NA,11
"1021",287,10,1,1,1,0,0,NA,12
"1022",287,13,1,1,1,0,1,NA,13
"1023",287,15,1,1,1,0,0,NA,14
"1024",287,16,1,1,1,100,1,NA,15
"1025",286,8,1,1,1,0,1,NA,0
"1026",286,6,1,1,1,0,0,NA,1
"1027",286,14,1,1,1,0,1,NA,2
"1028",286,16,1,1,1,0,1,NA,3
"1029",286,2,1,1,1,0,1,NA,4
"1030",286,13,1,1,1,0,1,NA,5
"1031",286,12,1,1,1,50,0,NA,6
"1032",286,7,1,1,1,0,1,NA,7
"1033",286,15,1,1,1,0,0,NA,8
"1034",286,4,1,1,1,0,1,NA,9
"1035",286,9,1,1,1,0,0,NA,10
"1036",286,11,1,1,1,0,0,NA,11
"1037",286,3,1,1,1,0,1,NA,12
"1038",286,1,1,1,1,0,0,NA,13
"1039",286,10,1,1,1,0,0,NA,14
"1040",286,5,1,1,1,0,0,NA,15
"1041",284,5,1,1,1,10,0,NA,0
"1042",284,12,1,1,1,0,0,NA,1
"1043",284,6,1,1,1,0,0,NA,2
"1044",284,14,1,1,1,0,1,NA,3
"1045",284,1,1,1,1,0,0,NA,4
"1046",284,7,1,1,1,0,1,NA,5
"1047",284,11,1,1,1,4,0,NA,6
"1048",284,3,1,1,1,0,1,NA,7
"1049",284,15,1,1,1,0,0,NA,8
"1050",284,8,1,1,1,0,1,NA,9
"1051",284,10,1,1,1,0,0,NA,10
"1052",284,4,1,1,1,0,1,NA,11
"1053",284,13,1,1,1,0,1,NA,12
"1054",284,2,1,1,1,0,1,NA,13
"1055",284,16,1,1,1,0,1,NA,14
"1056",284,9,1,1,1,0,0,NA,15
"1057",282,1,1,1,1,0,0,NA,0
"1058",282,5,1,1,1,26,0,NA,1
"1059",282,15,1,1,1,0,0,NA,2
"1060",282,6,1,1,1,0,0,NA,3
"1061",282,8,1,1,1,0,1,NA,4
"1062",282,3,1,1,1,0,1,NA,5
"1063",282,7,1,1,1,20,1,NA,6
"1064",282,11,1,1,1,0,0,NA,7
"1065",282,16,1,1,1,62,1,NA,8
"1066",282,13,1,1,1,23,1,NA,9
"1067",282,14,1,1,1,0,1,NA,10
"1068",282,10,1,1,1,0,0,NA,11
"1069",282,2,1,1,1,0,1,NA,12
"1070",282,9,1,1,1,0,0,NA,13
"1071",282,4,1,1,1,40,1,NA,14
"1072",282,12,1,1,1,68,0,NA,15
"1073",278,9,1,1,1,0,0,NA,0
"1074",278,15,1,1,1,50,0,NA,1
"1075",278,3,1,1,1,0,1,NA,2
"1076",278,6,1,1,1,50,0,NA,3
"1077",278,8,1,1,1,50,1,NA,4
"1078",278,12,1,1,1,0,0,NA,5
"1079",278,2,1,1,1,0,1,NA,6
"1080",278,14,1,1,1,55,1,NA,7
"1081",278,11,1,1,1,0,0,NA,8
"1082",278,1,1,1,1,5,0,NA,9
"1083",278,13,1,1,1,0,1,NA,10
"1084",278,10,1,1,1,0,0,NA,11
"1085",278,4,1,1,1,0,1,NA,12
"1086",278,7,1,1,1,0,1,NA,13
"1087",278,5,1,1,1,0,0,NA,14
"1088",278,16,1,1,1,50,1,NA,15
"1089",272,11,1,1,1,3,0,NA,0
"1090",272,7,1,1,1,66,1,NA,1
"1091",272,15,1,1,1,2,0,NA,2
"1092",272,14,1,1,1,0,1,NA,3
"1093",272,10,1,1,1,0,0,NA,4
"1094",272,9,1,1,1,0,0,NA,5
"1095",272,4,1,1,1,14,1,NA,6
"1096",272,3,1,1,1,0,1,NA,7
"1097",272,12,1,1,1,0,0,NA,8
"1098",272,16,1,1,1,56,1,NA,9
"1099",272,13,1,1,1,27,1,NA,10
"1100",272,8,1,1,1,54,1,NA,11
"1101",272,6,1,1,1,16,0,NA,12
"1102",272,5,1,1,1,56,0,NA,13
"1103",272,1,1,1,1,0,0,NA,14
"1104",272,2,1,1,1,0,1,NA,15
"1105",271,9,1,1,1,0,0,NA,0
"1106",271,7,1,1,1,0,1,NA,1
"1107",271,1,1,1,1,0,0,NA,2
"1108",271,15,1,1,1,0,0,NA,3
"1109",271,6,1,1,1,0,0,NA,4
"1110",271,11,1,1,1,0,0,NA,5
"1111",271,13,1,1,1,0,1,NA,6
"1112",271,16,1,1,1,0,1,NA,7
"1113",271,10,1,1,1,0,0,NA,8
"1114",271,4,1,1,1,0,1,NA,9
"1115",271,12,1,1,1,0,0,NA,10
"1116",271,3,1,1,1,0,1,NA,11
"1117",271,8,1,1,1,0,1,NA,12
"1118",271,2,1,1,1,0,1,NA,13
"1119",271,14,1,1,1,0,1,NA,14
"1120",271,5,1,1,1,0,0,NA,15
"1121",266,2,1,1,1,0,1,NA,0
"1122",266,4,1,1,1,0,1,NA,1
"1123",266,12,1,1,1,0,0,NA,2
"1124",266,9,1,1,1,0,0,NA,3
"1125",266,7,1,1,1,20,1,NA,4
"1126",266,14,1,1,1,0,1,NA,5
"1127",266,15,1,1,1,0,0,NA,6
"1128",266,6,1,1,1,0,0,NA,7
"1129",266,3,1,1,1,0,1,NA,8
"1130",266,1,1,1,1,0,0,NA,9
"1131",266,11,1,1,1,0,0,NA,10
"1132",266,5,1,1,1,19,0,NA,11
"1133",266,16,1,1,1,100,1,NA,12
"1134",266,8,1,1,1,4,1,NA,13
"1135",266,13,1,1,1,0,1,NA,14
"1136",266,10,1,1,1,0,0,NA,15
"1137",265,7,1,1,1,0,1,NA,0
"1138",265,16,1,1,1,25,1,NA,1
"1139",265,15,1,1,1,0,0,NA,2
"1140",265,1,1,1,1,0,0,NA,3
"1141",265,8,1,1,1,0,1,NA,4
"1142",265,10,1,1,1,0,0,NA,5
"1143",265,14,1,1,1,0,1,NA,6
"1144",265,5,1,1,1,25,0,NA,7
"1145",265,6,1,1,1,0,0,NA,8
"1146",265,4,1,1,1,0,1,NA,9
"1147",265,12,1,1,1,0,0,NA,10
"1148",265,9,1,1,1,0,0,NA,11
"1149",265,3,1,1,1,0,1,NA,12
"1150",265,11,1,1,1,0,0,NA,13
"1151",265,2,1,1,1,0,1,NA,14
"1152",265,13,1,1,1,0,1,NA,15
"1153",264,3,1,1,1,91,1,NA,0
"1154",264,4,1,1,1,72,1,NA,1
"1155",264,2,1,1,1,3,1,NA,2
"1156",264,11,1,1,1,2,0,NA,3
"1157",264,12,1,1,1,57,0,NA,4
"1158",264,14,1,1,1,2,1,NA,5
"1159",264,16,1,1,1,55,1,NA,6
"1160",264,7,1,1,1,2,1,NA,7
"1161",264,6,1,1,1,2,0,NA,8
"1162",264,9,1,1,1,2,0,NA,9
"1163",264,10,1,1,1,2,0,NA,10
"1164",264,15,1,1,1,2,0,NA,11
"1165",264,13,1,1,1,2,1,NA,12
"1166",264,1,1,1,1,2,0,NA,13
"1167",264,5,1,1,1,2,0,NA,14
"1168",264,8,1,1,1,2,1,NA,15
"1169",262,2,1,1,1,0,1,NA,0
"1170",262,4,1,1,1,0,1,NA,1
"1171",262,5,1,1,1,28,0,NA,2
"1172",262,15,1,1,1,12,0,NA,3
"1173",262,13,1,1,1,0,1,NA,4
"1174",262,16,1,1,1,63,1,NA,5
"1175",262,10,1,1,1,0,0,NA,6
"1176",262,7,1,1,1,7,1,NA,7
"1177",262,8,1,1,1,0,1,NA,8
"1178",262,11,1,1,1,0,0,NA,9
"1179",262,12,1,1,1,0,0,NA,10
"1180",262,3,1,1,1,0,1,NA,11
"1181",262,9,1,1,1,0,0,NA,12
"1182",262,6,1,1,1,0,0,NA,13
"1183",262,1,1,1,1,0,0,NA,14
"1184",262,14,1,1,1,0,1,NA,15
"1185",261,7,1,1,1,65,1,NA,0
"1186",261,1,1,1,1,0,0,NA,1
"1187",261,13,1,1,1,0,1,NA,2
"1188",261,2,1,1,1,15,1,NA,3
"1189",261,3,1,1,1,0,1,NA,4
"1190",261,10,1,1,1,0,0,NA,5
"1191",261,12,1,1,1,0,0,NA,6
"1192",261,4,1,1,1,0,1,NA,7
"1193",261,11,1,1,1,0,0,NA,8
"1194",261,8,1,1,1,0,1,NA,9
"1195",261,14,1,1,1,0,1,NA,10
"1196",261,16,1,1,1,80,1,NA,11
"1197",261,6,1,1,1,0,0,NA,12
"1198",261,5,1,1,1,65,0,NA,13
"1199",261,15,1,1,1,0,0,NA,14
"1200",261,9,1,1,1,0,0,NA,15
"1201",257,9,1,1,1,0,0,NA,0
"1202",257,14,1,1,1,0,1,NA,1
"1203",257,15,1,1,1,0,0,NA,2
"1204",257,3,1,1,1,0,1,NA,3
"1205",257,6,1,1,1,0,0,NA,4
"1206",257,13,1,1,1,0,1,NA,5
"1207",257,16,1,1,1,0,1,NA,6
"1208",257,5,1,1,1,0,0,NA,7
"1209",257,2,1,1,1,0,1,NA,8
"1210",257,12,1,1,1,0,0,NA,9
"1211",257,11,1,1,1,0,0,NA,10
"1212",257,4,1,1,1,0,1,NA,11
"1213",257,10,1,1,1,0,0,NA,12
"1214",257,1,1,1,1,0,0,NA,13
"1215",257,7,1,1,1,0,1,NA,14
"1216",257,8,1,1,1,0,1,NA,15
"1217",255,3,1,1,1,0,1,NA,0
"1218",255,15,1,1,1,0,0,NA,1
"1219",255,2,1,1,1,0,1,NA,2
"1220",255,4,1,1,1,0,1,NA,3
"1221",255,7,1,1,1,0,1,NA,4
"1222",255,1,1,1,1,0,0,NA,5
"1223",255,13,1,1,1,0,1,NA,6
"1224",255,6,1,1,1,0,0,NA,7
"1225",255,12,1,1,1,0,0,NA,8
"1226",255,9,1,1,1,41,0,NA,9
"1227",255,16,1,1,1,0,1,NA,10
"1228",255,11,1,1,1,0,0,NA,11
"1229",255,8,1,1,1,0,1,NA,12
"1230",255,5,1,1,1,0,0,NA,13
"1231",255,14,1,1,1,0,1,NA,14
"1232",255,10,1,1,1,0,0,NA,15
"1233",252,10,1,1,1,0,0,NA,0
"1234",252,5,1,1,1,0,0,NA,1
"1235",252,9,1,1,1,0,0,NA,2
"1236",252,14,1,1,1,0,1,NA,3
"1237",252,7,1,1,1,0,1,NA,4
"1238",252,2,1,1,1,0,1,NA,5
"1239",252,3,1,1,1,0,1,NA,6
"1240",252,13,1,1,1,0,1,NA,7
"1241",252,16,1,1,1,0,1,NA,8
"1242",252,8,1,1,1,0,1,NA,9
"1243",252,1,1,1,1,0,0,NA,10
"1244",252,11,1,1,1,0,0,NA,11
"1245",252,4,1,1,1,0,1,NA,12
"1246",252,15,1,1,1,0,0,NA,13
"1247",252,6,1,1,1,0,0,NA,14
"1248",252,12,1,1,1,0,0,NA,15
"1249",249,3,1,1,1,7,1,NA,0
"1250",249,15,1,1,1,3,0,NA,1
"1251",249,13,1,1,1,0,1,NA,2
"1252",249,4,1,1,1,0,1,NA,3
"1253",249,5,1,1,1,7,0,NA,4
"1254",249,10,1,1,1,1,0,NA,5
"1255",249,6,1,1,1,87,0,NA,6
"1256",249,8,1,1,1,88,1,NA,7
"1257",249,7,1,1,1,13,1,NA,8
"1258",249,1,1,1,1,4,0,NA,9
"1259",249,14,1,1,1,7,1,NA,10
"1260",249,11,1,1,1,0,0,NA,11
"1261",249,2,1,1,1,85,1,NA,12
"1262",249,9,1,1,1,0,0,NA,13
"1263",249,16,1,1,1,98,1,NA,14
"1264",249,12,1,1,1,90,0,NA,15
"1265",247,16,1,1,1,50,1,NA,0
"1266",247,4,1,1,1,65,1,NA,1
"1267",247,14,1,1,1,0,1,NA,2
"1268",247,9,1,1,1,0,0,NA,3
"1269",247,6,1,1,1,0,0,NA,4
"1270",247,7,1,1,1,0,1,NA,5
"1271",247,1,1,1,1,0,0,NA,6
"1272",247,10,1,1,1,0,0,NA,7
"1273",247,13,1,1,1,0,1,NA,8
"1274",247,2,1,1,1,0,1,NA,9
"1275",247,12,1,1,1,0,0,NA,10
"1276",247,8,1,1,1,0,1,NA,11
"1277",247,5,1,1,1,11,0,NA,12
"1278",247,3,1,1,1,0,1,NA,13
"1279",247,15,1,1,1,0,0,NA,14
"1280",247,11,1,1,1,0,0,NA,15
"1281",244,6,1,1,1,0,0,NA,0
"1282",244,13,1,1,1,0,1,NA,1
"1283",244,3,1,1,1,0,1,NA,2
"1284",244,10,1,1,1,0,0,NA,3
"1285",244,12,1,1,1,0,0,NA,4
"1286",244,15,1,1,1,0,0,NA,5
"1287",244,5,1,1,1,0,0,NA,6
"1288",244,4,1,1,1,0,1,NA,7
"1289",244,7,1,1,1,0,1,NA,8
"1290",244,16,1,1,1,74,1,NA,9
"1291",244,11,1,1,1,0,0,NA,10
"1292",244,8,1,1,1,0,1,NA,11
"1293",244,14,1,1,1,0,1,NA,12
"1294",244,1,1,1,1,0,0,NA,13
"1295",244,2,1,1,1,0,1,NA,14
"1296",244,9,1,1,1,0,0,NA,15
"1297",242,6,1,1,1,0,0,NA,0
"1298",242,5,1,1,1,67,0,NA,1
"1299",242,9,1,1,1,0,0,NA,2
"1300",242,15,1,1,1,49,0,NA,3
"1301",242,1,1,1,1,0,0,NA,4
"1302",242,12,1,1,1,0,0,NA,5
"1303",242,16,1,1,1,50,1,NA,6
"1304",242,7,1,1,1,32,1,NA,7
"1305",242,11,1,1,1,25,0,NA,8
"1306",242,4,1,1,1,0,1,NA,9
"1307",242,14,1,1,1,0,1,NA,10
"1308",242,13,1,1,1,35,1,NA,11
"1309",242,8,1,1,1,0,1,NA,12
"1310",242,10,1,1,1,0,0,NA,13
"1311",242,2,1,1,1,0,1,NA,14
"1312",242,3,1,1,1,0,1,NA,15
"1313",238,16,1,1,1,28,1,NA,0
"1314",238,2,1,1,1,6,1,NA,1
"1315",238,13,1,1,1,39,1,NA,2
"1316",238,12,1,1,1,93,0,NA,3
"1317",238,10,1,1,1,0,0,NA,4
"1318",238,1,1,1,1,0,0,NA,5
"1319",238,3,1,1,1,0,1,NA,6
"1320",238,15,1,1,1,5,0,NA,7
"1321",238,11,1,1,1,42,0,NA,8
"1322",238,5,1,1,1,34,0,NA,9
"1323",238,14,1,1,1,58,1,NA,10
"1324",238,6,1,1,1,23,0,NA,11
"1325",238,8,1,1,1,23,1,NA,12
"1326",238,4,1,1,1,9,1,NA,13
"1327",238,7,1,1,1,56,1,NA,14
"1328",238,9,1,1,1,0,0,NA,15
"1329",237,14,1,1,1,28,1,NA,0
"1330",237,6,1,1,1,0,0,NA,1
"1331",237,1,1,1,1,45,0,NA,2
"1332",237,10,1,1,1,0,0,NA,3
"1333",237,7,1,1,1,0,1,NA,4
"1334",237,16,1,1,1,0,1,NA,5
"1335",237,11,1,1,1,0,0,NA,6
"1336",237,4,1,1,1,32,1,NA,7
"1337",237,9,1,1,1,0,0,NA,8
"1338",237,8,1,1,1,0,1,NA,9
"1339",237,15,1,1,1,54,0,NA,10
"1340",237,3,1,1,1,0,1,NA,11
"1341",237,5,1,1,1,34,0,NA,12
"1342",237,2,1,1,1,29,1,NA,13
"1343",237,12,1,1,1,57,0,NA,14
"1344",237,13,1,1,1,36,1,NA,15
"1345",235,3,1,1,1,0,1,NA,0
"1346",235,12,1,1,1,0,0,NA,1
"1347",235,15,1,1,1,0,0,NA,2
"1348",235,5,1,1,1,0,0,NA,3
"1349",235,8,1,1,1,0,1,NA,4
"1350",235,2,1,1,1,0,1,NA,5
"1351",235,1,1,1,1,0,0,NA,6
"1352",235,7,1,1,1,0,1,NA,7
"1353",235,4,1,1,1,0,1,NA,8
"1354",235,6,1,1,1,0,0,NA,9
"1355",235,13,1,1,1,0,1,NA,10
"1356",235,14,1,1,1,0,1,NA,11
"1357",235,11,1,1,1,0,0,NA,12
"1358",235,16,1,1,1,0,1,NA,13
"1359",235,10,1,1,1,0,0,NA,14
"1360",235,9,1,1,1,0,0,NA,15
"1361",234,1,1,1,1,0,0,NA,0
"1362",234,9,1,1,1,0,0,NA,1
"1363",234,7,1,1,1,0,1,NA,2
"1364",234,8,1,1,1,0,1,NA,3
"1365",234,3,1,1,1,0,1,NA,4
"1366",234,11,1,1,1,0,0,NA,5
"1367",234,16,1,1,1,0,1,NA,6
"1368",234,13,1,1,1,0,1,NA,7
"1369",234,5,1,1,1,3,0,NA,8
"1370",234,14,1,1,1,0,1,NA,9
"1371",234,10,1,1,1,0,0,NA,10
"1372",234,15,1,1,1,0,0,NA,11
"1373",234,6,1,1,1,0,0,NA,12
"1374",234,12,1,1,1,0,0,NA,13
"1375",234,2,1,1,1,0,1,NA,14
"1376",234,4,1,1,1,0,1,NA,15
"1377",230,2,1,1,1,0,1,NA,0
"1378",230,12,1,1,1,0,0,NA,1
"1379",230,4,1,1,1,0,1,NA,2
"1380",230,1,1,1,1,0,0,NA,3
"1381",230,8,1,1,1,0,1,NA,4
"1382",230,6,1,1,1,0,0,NA,5
"1383",230,10,1,1,1,0,0,NA,6
"1384",230,3,1,1,1,0,1,NA,7
"1385",230,15,1,1,1,0,0,NA,8
"1386",230,9,1,1,1,0,0,NA,9
"1387",230,7,1,1,1,0,1,NA,10
"1388",230,11,1,1,1,0,0,NA,11
"1389",230,16,1,1,1,50,1,NA,12
"1390",230,13,1,1,1,0,1,NA,13
"1391",230,14,1,1,1,0,1,NA,14
"1392",230,5,1,1,1,0,0,NA,15
"1393",229,1,1,1,1,5,0,NA,0
"1394",229,16,1,1,1,34,1,NA,1
"1395",229,8,1,1,1,0,1,NA,2
"1396",229,5,1,1,1,39,0,NA,3
"1397",229,9,1,1,1,0,0,NA,4
"1398",229,2,1,1,1,2,1,NA,5
"1399",229,15,1,1,1,3,0,NA,6
"1400",229,6,1,1,1,2,0,NA,7
"1401",229,11,1,1,1,1,0,NA,8
"1402",229,3,1,1,1,0,1,NA,9
"1403",229,4,1,1,1,1,1,NA,10
"1404",229,10,1,1,1,2,0,NA,11
"1405",229,13,1,1,1,2,1,NA,12
"1406",229,14,1,1,1,0,1,NA,13
"1407",229,12,1,1,1,2,0,NA,14
"1408",229,7,1,1,1,0,1,NA,15
"1409",225,9,1,1,1,0,0,NA,0
"1410",225,3,1,1,1,0,1,NA,1
"1411",225,8,1,1,1,0,1,NA,2
"1412",225,16,1,1,1,85,1,NA,3
"1413",225,2,1,1,1,10,1,NA,4
"1414",225,12,1,1,1,0,0,NA,5
"1415",225,5,1,1,1,22,0,NA,6
"1416",225,1,1,1,1,0,0,NA,7
"1417",225,10,1,1,1,0,0,NA,8
"1418",225,7,1,1,1,0,1,NA,9
"1419",225,15,1,1,1,0,0,NA,10
"1420",225,14,1,1,1,0,1,NA,11
"1421",225,13,1,1,1,0,1,NA,12
"1422",225,4,1,1,1,0,1,NA,13
"1423",225,11,1,1,1,0,0,NA,14
"1424",225,6,1,1,1,0,0,NA,15
"1425",224,3,1,1,1,0,1,NA,0
"1426",224,11,1,1,1,50,0,NA,1
"1427",224,16,1,1,1,87,1,NA,2
"1428",224,12,1,1,1,0,0,NA,3
"1429",224,2,1,1,1,0,1,NA,4
"1430",224,7,1,1,1,0,1,NA,5
"1431",224,15,1,1,1,0,0,NA,6
"1432",224,14,1,1,1,0,1,NA,7
"1433",224,9,1,1,1,0,0,NA,8
"1434",224,13,1,1,1,0,1,NA,9
"1435",224,6,1,1,1,0,0,NA,10
"1436",224,4,1,1,1,0,1,NA,11
"1437",224,5,1,1,1,0,0,NA,12
"1438",224,8,1,1,1,0,1,NA,13
"1439",224,10,1,1,1,0,0,NA,14
"1440",224,1,1,1,1,0,0,NA,15
"1441",220,16,1,1,1,10,1,NA,0
"1442",220,10,1,1,1,0,0,NA,1
"1443",220,9,1,1,1,0,0,NA,2
"1444",220,11,1,1,1,0,0,NA,3
"1445",220,7,1,1,1,10,1,NA,4
"1446",220,6,1,1,1,0,0,NA,5
"1447",220,3,1,1,1,0,1,NA,6
"1448",220,4,1,1,1,0,1,NA,7
"1449",220,12,1,1,1,0,0,NA,8
"1450",220,14,1,1,1,0,1,NA,9
"1451",220,13,1,1,1,0,1,NA,10
"1452",220,5,1,1,1,0,0,NA,11
"1453",220,1,1,1,1,0,0,NA,12
"1454",220,8,1,1,1,0,1,NA,13
"1455",220,15,1,1,1,0,0,NA,14
"1456",220,2,1,1,1,0,1,NA,15
"1457",218,1,1,1,1,1,0,NA,0
"1458",218,15,1,1,1,4,0,NA,1
"1459",218,4,1,1,1,3,1,NA,2
"1460",218,9,1,1,1,1,0,NA,3
"1461",218,2,1,1,1,5,1,NA,4
"1462",218,16,1,1,1,55,1,NA,5
"1463",218,5,1,1,1,55,0,NA,6
"1464",218,6,1,1,1,51,0,NA,7
"1465",218,3,1,1,1,0,1,NA,8
"1466",218,14,1,1,1,4,1,NA,9
"1467",218,7,1,1,1,1,1,NA,10
"1468",218,8,1,1,1,0,1,NA,11
"1469",218,10,1,1,1,0,0,NA,12
"1470",218,13,1,1,1,0,1,NA,13
"1471",218,11,1,1,1,0,0,NA,14
"1472",218,12,1,1,1,0,0,NA,15
"1473",215,12,1,1,1,25,0,NA,0
"1474",215,11,1,1,1,10,0,NA,1
"1475",215,6,1,1,1,0,0,NA,2
"1476",215,2,1,1,1,50,1,NA,3
"1477",215,9,1,1,1,0,0,NA,4
"1478",215,8,1,1,1,50,1,NA,5
"1479",215,5,1,1,1,50,0,NA,6
"1480",215,4,1,1,1,0,1,NA,7
"1481",215,13,1,1,1,30,1,NA,8
"1482",215,16,1,1,1,50,1,NA,9
"1483",215,10,1,1,1,0,0,NA,10
"1484",215,7,1,1,1,50,1,NA,11
"1485",215,3,1,1,1,0,1,NA,12
"1486",215,14,1,1,1,0,1,NA,13
"1487",215,1,1,1,1,15,0,NA,14
"1488",215,15,1,1,1,0,0,NA,15
"1489",211,4,1,1,1,0,1,NA,0
"1490",211,13,1,1,1,0,1,NA,1
"1491",211,7,1,1,1,0,1,NA,2
"1492",211,8,1,1,1,0,1,NA,3
"1493",211,1,1,1,1,0,0,NA,4
"1494",211,10,1,1,1,0,0,NA,5
"1495",211,9,1,1,1,0,0,NA,6
"1496",211,2,1,1,1,0,1,NA,7
"1497",211,12,1,1,1,0,0,NA,8
"1498",211,11,1,1,1,0,0,NA,9
"1499",211,16,1,1,1,0,1,NA,10
"1500",211,3,1,1,1,0,1,NA,11
"1501",211,15,1,1,1,0,0,NA,12
"1502",211,6,1,1,1,0,0,NA,13
"1503",211,14,1,1,1,0,1,NA,14
"1504",211,5,1,1,1,0,0,NA,15
"1505",206,15,1,1,1,0,0,NA,0
"1506",206,6,1,1,1,0,0,NA,1
"1507",206,16,1,1,1,90,1,NA,2
"1508",206,13,1,1,1,0,1,NA,3
"1509",206,11,1,1,1,0,0,NA,4
"1510",206,8,1,1,1,0,1,NA,5
"1511",206,2,1,1,1,12,1,NA,6
"1512",206,12,1,1,1,0,0,NA,7
"1513",206,1,1,1,1,0,0,NA,8
"1514",206,7,1,1,1,0,1,NA,9
"1515",206,3,1,1,1,0,1,NA,10
"1516",206,9,1,1,1,0,0,NA,11
"1517",206,14,1,1,1,0,1,NA,12
"1518",206,5,1,1,1,0,0,NA,13
"1519",206,10,1,1,1,0,0,NA,14
"1520",206,4,1,1,1,0,1,NA,15
"1521",205,16,1,1,1,11,1,NA,0
"1522",205,14,1,1,1,0,1,NA,1
"1523",205,9,1,1,1,0,0,NA,2
"1524",205,6,1,1,1,33,0,NA,3
"1525",205,10,1,1,1,0,0,NA,4
"1526",205,5,1,1,1,9,0,NA,5
"1527",205,8,1,1,1,0,1,NA,6
"1528",205,1,1,1,1,0,0,NA,7
"1529",205,15,1,1,1,3,0,NA,8
"1530",205,12,1,1,1,0,0,NA,9
"1531",205,3,1,1,1,0,1,NA,10
"1532",205,2,1,1,1,14,1,NA,11
"1533",205,4,1,1,1,14,1,NA,12
"1534",205,11,1,1,1,0,0,NA,13
"1535",205,13,1,1,1,42,1,NA,14
"1536",205,7,1,1,1,14,1,NA,15
"1537",203,7,1,1,1,0,1,NA,0
"1538",203,12,1,1,1,0,0,NA,1
"1539",203,6,1,1,1,0,0,NA,2
"1540",203,14,1,1,1,0,1,NA,3
"1541",203,10,1,1,1,0,0,NA,4
"1542",203,13,1,1,1,0,1,NA,5
"1543",203,16,1,1,1,80,1,NA,6
"1544",203,9,1,1,1,0,0,NA,7
"1545",203,2,1,1,1,0,1,NA,8
"1546",203,4,1,1,1,0,1,NA,9
"1547",203,11,1,1,1,0,0,NA,10
"1548",203,15,1,1,1,0,0,NA,11
"1549",203,1,1,1,1,0,0,NA,12
"1550",203,3,1,1,1,0,1,NA,13
"1551",203,8,1,1,1,0,1,NA,14
"1552",203,5,1,1,1,18,0,NA,15
"1553",202,14,1,1,1,0,1,NA,0
"1554",202,3,1,1,1,0,1,NA,1
"1555",202,9,1,1,1,0,0,NA,2
"1556",202,8,1,1,1,0,1,NA,3
"1557",202,10,1,1,1,0,0,NA,4
"1558",202,6,1,1,1,0,0,NA,5
"1559",202,12,1,1,1,0,0,NA,6
"1560",202,2,1,1,1,0,1,NA,7
"1561",202,11,1,1,1,0,0,NA,8
"1562",202,5,1,1,1,3,0,NA,9
"1563",202,1,1,1,1,0,0,NA,10
"1564",202,13,1,1,1,0,1,NA,11
"1565",202,7,1,1,1,0,1,NA,12
"1566",202,15,1,1,1,0,0,NA,13
"1567",202,16,1,1,1,0,1,NA,14
"1568",202,4,1,1,1,0,1,NA,15
"1569",197,12,1,1,1,0,0,NA,0
"1570",197,8,1,1,1,0,1,NA,1
"1571",197,2,1,1,1,0,1,NA,2
"1572",197,9,1,1,1,0,0,NA,3
"1573",197,6,1,1,1,0,0,NA,4
"1574",197,14,1,1,1,0,1,NA,5
"1575",197,3,1,1,1,0,1,NA,6
"1576",197,11,1,1,1,0,0,NA,7
"1577",197,16,1,1,1,0,1,NA,8
"1578",197,4,1,1,1,0,1,NA,9
"1579",197,13,1,1,1,0,1,NA,10
"1580",197,7,1,1,1,0,1,NA,11
"1581",197,10,1,1,1,0,0,NA,12
"1582",197,1,1,1,1,0,0,NA,13
"1583",197,15,1,1,1,0,0,NA,14
"1584",197,5,1,1,1,0,0,NA,15
"1585",190,15,1,1,1,0,0,NA,0
"1586",190,10,1,1,1,0,0,NA,1
"1587",190,8,1,1,1,0,1,NA,2
"1588",190,13,1,1,1,0,1,NA,3
"1589",190,2,1,1,1,0,1,NA,4
"1590",190,9,1,1,1,0,0,NA,5
"1591",190,3,1,1,1,0,1,NA,6
"1592",190,11,1,1,1,3,0,NA,7
"1593",190,5,1,1,1,0,0,NA,8
"1594",190,6,1,1,1,0,0,NA,9
"1595",190,1,1,1,1,0,0,NA,10
"1596",190,16,1,1,1,2,1,NA,11
"1597",190,7,1,1,1,0,1,NA,12
"1598",190,14,1,1,1,0,1,NA,13
"1599",190,12,1,1,1,0,0,NA,14
"1600",190,4,1,1,1,0,1,NA,15
"1601",188,10,1,1,1,0,0,NA,0
"1602",188,5,1,1,1,30,0,NA,1
"1603",188,16,1,1,1,0,1,NA,2
"1604",188,11,1,1,1,0,0,NA,3
"1605",188,4,1,1,1,0,1,NA,4
"1606",188,15,1,1,1,0,0,NA,5
"1607",188,6,1,1,1,0,0,NA,6
"1608",188,8,1,1,1,0,1,NA,7
"1609",188,3,1,1,1,0,1,NA,8
"1610",188,7,1,1,1,0,1,NA,9
"1611",188,9,1,1,1,0,0,NA,10
"1612",188,1,1,1,1,0,0,NA,11
"1613",188,2,1,1,1,0,1,NA,12
"1614",188,12,1,1,1,0,0,NA,13
"1615",188,13,1,1,1,0,1,NA,14
"1616",188,14,1,1,1,0,1,NA,15
"1617",183,15,1,1,1,79,0,NA,0
"1618",183,1,1,1,1,0,0,NA,1
"1619",183,8,1,1,1,0,1,NA,2
"1620",183,5,1,1,1,13,0,NA,3
"1621",183,7,1,1,1,11,1,NA,4
"1622",183,13,1,1,1,2,1,NA,5
"1623",183,16,1,1,1,97,1,NA,6
"1624",183,11,1,1,1,0,0,NA,7
"1625",183,14,1,1,1,0,1,NA,8
"1626",183,2,1,1,1,0,1,NA,9
"1627",183,4,1,1,1,0,1,NA,10
"1628",183,10,1,1,1,0,0,NA,11
"1629",183,3,1,1,1,0,1,NA,12
"1630",183,9,1,1,1,0,0,NA,13
"1631",183,6,1,1,1,0,0,NA,14
"1632",183,12,1,1,1,0,0,NA,15
"1633",180,15,1,1,1,0,0,NA,0
"1634",180,13,1,1,1,0,1,NA,1
"1635",180,14,1,1,1,0,1,NA,2
"1636",180,1,1,1,1,0,0,NA,3
"1637",180,2,1,1,1,0,1,NA,4
"1638",180,8,1,1,1,0,1,NA,5
"1639",180,3,1,1,1,0,1,NA,6
"1640",180,7,1,1,1,0,1,NA,7
"1641",180,10,1,1,1,0,0,NA,8
"1642",180,9,1,1,1,0,0,NA,9
"1643",180,6,1,1,1,0,0,NA,10
"1644",180,4,1,1,1,0,1,NA,11
"1645",180,16,1,1,1,0,1,NA,12
"1646",180,11,1,1,1,0,0,NA,13
"1647",180,5,1,1,1,0,0,NA,14
"1648",180,12,1,1,1,0,0,NA,15
"1649",179,11,1,1,1,0,0,NA,0
"1650",179,16,1,1,1,71,1,NA,1
"1651",179,10,1,1,1,0,0,NA,2
"1652",179,6,1,1,1,28,0,NA,3
"1653",179,1,1,1,1,56,0,NA,4
"1654",179,7,1,1,1,33,1,NA,5
"1655",179,12,1,1,1,63,0,NA,6
"1656",179,2,1,1,1,0,1,NA,7
"1657",179,5,1,1,1,72,0,NA,8
"1658",179,3,1,1,1,0,1,NA,9
"1659",179,9,1,1,1,0,0,NA,10
"1660",179,13,1,1,1,0,1,NA,11
"1661",179,15,1,1,1,61,0,NA,12
"1662",179,14,1,1,1,0,1,NA,13
"1663",179,8,1,1,1,0,1,NA,14
"1664",179,4,1,1,1,32,1,NA,15
"1665",172,16,1,1,1,0,1,NA,0
"1666",172,12,1,1,1,0,0,NA,1
"1667",172,7,1,1,1,0,1,NA,2
"1668",172,14,1,1,1,0,1,NA,3
"1669",172,10,1,1,1,0,0,NA,4
"1670",172,4,1,1,1,0,1,NA,5
"1671",172,15,1,1,1,0,0,NA,6
"1672",172,5,1,1,1,0,0,NA,7
"1673",172,8,1,1,1,0,1,NA,8
"1674",172,13,1,1,1,0,1,NA,9
"1675",172,9,1,1,1,0,0,NA,10
"1676",172,6,1,1,1,0,0,NA,11
"1677",172,2,1,1,1,0,1,NA,12
"1678",172,11,1,1,1,0,0,NA,13
"1679",172,3,1,1,1,0,1,NA,14
"1680",172,1,1,1,1,0,0,NA,15
"1681",170,16,1,1,1,100,1,NA,0
"1682",170,7,1,1,1,0,1,NA,1
"1683",170,14,1,1,1,0,1,NA,2
"1684",170,1,1,1,1,0,0,NA,3
"1685",170,9,1,1,1,0,0,NA,4
"1686",170,4,1,1,1,0,1,NA,5
"1687",170,13,1,1,1,0,1,NA,6
"1688",170,12,1,1,1,0,0,NA,7
"1689",170,10,1,1,1,0,0,NA,8
"1690",170,15,1,1,1,0,0,NA,9
"1691",170,5,1,1,1,0,0,NA,10
"1692",170,2,1,1,1,0,1,NA,11
"1693",170,8,1,1,1,10,1,NA,12
"1694",170,3,1,1,1,0,1,NA,13
"1695",170,11,1,1,1,0,0,NA,14
"1696",170,6,1,1,1,0,0,NA,15
"1697",168,2,1,1,1,9,1,NA,0
"1698",168,10,1,1,1,0,0,NA,1
"1699",168,14,1,1,1,1,1,NA,2
"1700",168,13,1,1,1,32,1,NA,3
"1701",168,11,1,1,1,0,0,NA,4
"1702",168,8,1,1,1,9,1,NA,5
"1703",168,6,1,1,1,0,0,NA,6
"1704",168,3,1,1,1,0,1,NA,7
"1705",168,7,1,1,1,11,1,NA,8
"1706",168,5,1,1,1,79,0,NA,9
"1707",168,9,1,1,1,0,0,NA,10
"1708",168,12,1,1,1,18,0,NA,11
"1709",168,16,1,1,1,66,1,NA,12
"1710",168,4,1,1,1,1,1,NA,13
"1711",168,1,1,1,1,0,0,NA,14
"1712",168,15,1,1,1,3,0,NA,15
"1713",161,16,1,1,1,1,1,NA,0
"1714",161,1,1,1,1,0,0,NA,1
"1715",161,3,1,1,1,0,1,NA,2
"1716",161,13,1,1,1,0,1,NA,3
"1717",161,10,1,1,1,0,0,NA,4
"1718",161,11,1,1,1,0,0,NA,5
"1719",161,6,1,1,1,0,0,NA,6
"1720",161,7,1,1,1,0,1,NA,7
"1721",161,15,1,1,1,0,0,NA,8
"1722",161,12,1,1,1,0,0,NA,9
"1723",161,2,1,1,1,18,1,NA,10
"1724",161,14,1,1,1,0,1,NA,11
"1725",161,9,1,1,1,0,0,NA,12
"1726",161,4,1,1,1,0,1,NA,13
"1727",161,8,1,1,1,35,1,NA,14
"1728",161,5,1,1,1,11,0,NA,15
"1729",159,6,1,1,1,0,0,NA,0
"1730",159,14,1,1,1,0,1,NA,1
"1731",159,16,1,1,1,50,1,NA,2
"1732",159,5,1,1,1,16,0,NA,3
"1733",159,13,1,1,1,0,1,NA,4
"1734",159,2,1,1,1,0,1,NA,5
"1735",159,7,1,1,1,20,1,NA,6
"1736",159,9,1,1,1,0,0,NA,7
"1737",159,8,1,1,1,0,1,NA,8
"1738",159,11,1,1,1,0,0,NA,9
"1739",159,15,1,1,1,0,0,NA,10
"1740",159,3,1,1,1,0,1,NA,11
"1741",159,4,1,1,1,0,1,NA,12
"1742",159,10,1,1,1,0,0,NA,13
"1743",159,12,1,1,1,0,0,NA,14
"1744",159,1,1,1,1,0,0,NA,15
"1745",158,16,1,1,1,0,1,NA,0
"1746",158,15,1,1,1,0,0,NA,1
"1747",158,9,1,1,1,0,0,NA,2
"1748",158,8,1,1,1,0,1,NA,3
"1749",158,12,1,1,1,0,0,NA,4
"1750",158,3,1,1,1,0,1,NA,5
"1751",158,1,1,1,1,0,0,NA,6
"1752",158,10,1,1,1,0,0,NA,7
"1753",158,7,1,1,1,0,1,NA,8
"1754",158,11,1,1,1,0,0,NA,9
"1755",158,2,1,1,1,0,1,NA,10
"1756",158,6,1,1,1,0,0,NA,11
"1757",158,4,1,1,1,0,1,NA,12
"1758",158,5,1,1,1,0,0,NA,13
"1759",158,13,1,1,1,0,1,NA,14
"1760",158,14,1,1,1,0,1,NA,15
"1761",156,10,1,1,1,0,0,NA,0
"1762",156,7,1,1,1,0,1,NA,1
"1763",156,4,1,1,1,25,1,NA,2
"1764",156,2,1,1,1,0,1,NA,3
"1765",156,16,1,1,1,39,1,NA,4
"1766",156,14,1,1,1,0,1,NA,5
"1767",156,8,1,1,1,21,1,NA,6
"1768",156,9,1,1,1,0,0,NA,7
"1769",156,15,1,1,1,0,0,NA,8
"1770",156,13,1,1,1,0,1,NA,9
"1771",156,11,1,1,1,12,0,NA,10
"1772",156,5,1,1,1,42,0,NA,11
"1773",156,12,1,1,1,0,0,NA,12
"1774",156,3,1,1,1,0,1,NA,13
"1775",156,1,1,1,1,0,0,NA,14
"1776",156,6,1,1,1,0,0,NA,15
"1777",155,4,1,1,1,0,1,NA,0
"1778",155,14,1,1,1,0,1,NA,1
"1779",155,15,1,1,1,0,0,NA,2
"1780",155,7,1,1,1,0,1,NA,3
"1781",155,10,1,1,1,0,0,NA,4
"1782",155,1,1,1,1,0,0,NA,5
"1783",155,6,1,1,1,0,0,NA,6
"1784",155,8,1,1,1,28,1,NA,7
"1785",155,5,1,1,1,0,0,NA,8
"1786",155,9,1,1,1,0,0,NA,9
"1787",155,16,1,1,1,77,1,NA,10
"1788",155,3,1,1,1,0,1,NA,11
"1789",155,12,1,1,1,0,0,NA,12
"1790",155,13,1,1,1,0,1,NA,13
"1791",155,2,1,1,1,0,1,NA,14
"1792",155,11,1,1,1,0,0,NA,15
"1793",144,3,1,1,1,0,1,NA,0
"1794",144,9,1,1,1,0,0,NA,1
"1795",144,1,1,1,1,0,0,NA,2
"1796",144,4,1,1,1,0,1,NA,3
"1797",144,10,1,1,1,0,0,NA,4
"1798",144,5,1,1,1,28,0,NA,5
"1799",144,8,1,1,1,4,1,NA,6
"1800",144,14,1,1,1,0,1,NA,7
"1801",144,15,1,1,1,0,0,NA,8
"1802",144,12,1,1,1,0,0,NA,9
"1803",144,13,1,1,1,0,1,NA,10
"1804",144,2,1,1,1,0,1,NA,11
"1805",144,6,1,1,1,0,0,NA,12
"1806",144,11,1,1,1,9,0,NA,13
"1807",144,16,1,1,1,9,1,NA,14
"1808",144,7,1,1,1,0,1,NA,15
"1809",143,14,1,1,1,0,1,NA,0
"1810",143,12,1,1,1,1,0,NA,1
"1811",143,3,1,1,1,0,1,NA,2
"1812",143,11,1,1,1,0,0,NA,3
"1813",143,7,1,1,1,0,1,NA,4
"1814",143,5,1,1,1,4,0,NA,5
"1815",143,15,1,1,1,28,0,NA,6
"1816",143,13,1,1,1,0,1,NA,7
"1817",143,2,1,1,1,0,1,NA,8
"1818",143,4,1,1,1,0,1,NA,9
"1819",143,10,1,1,1,0,0,NA,10
"1820",143,16,1,1,1,7,1,NA,11
"1821",143,1,1,1,1,0,0,NA,12
"1822",143,8,1,1,1,0,1,NA,13
"1823",143,6,1,1,1,0,0,NA,14
"1824",143,9,1,1,1,0,0,NA,15
"1825",138,7,1,1,1,0,1,NA,0
"1826",138,12,1,1,1,0,0,NA,1
"1827",138,6,1,1,1,0,0,NA,2
"1828",138,3,1,1,1,0,1,NA,3
"1829",138,14,1,1,1,0,1,NA,4
"1830",138,5,1,1,1,49,0,NA,5
"1831",138,4,1,1,1,0,1,NA,6
"1832",138,2,1,1,1,20,1,NA,7
"1833",138,1,1,1,1,0,0,NA,8
"1834",138,9,1,1,1,0,0,NA,9
"1835",138,10,1,1,1,0,0,NA,10
"1836",138,16,1,1,1,100,1,NA,11
"1837",138,11,1,1,1,23,0,NA,12
"1838",138,15,1,1,1,0,0,NA,13
"1839",138,13,1,1,1,1,1,NA,14
"1840",138,8,1,1,1,2,1,NA,15
"1841",437,5,1,1,1,35,1,NA,0
"1842",437,2,1,1,1,0,0,NA,1
"1843",437,6,1,1,1,0,1,NA,2
"1844",437,11,1,1,1,28,1,NA,3
"1845",437,14,1,1,1,1,0,NA,4
"1846",437,10,1,1,1,5,1,NA,5
"1847",437,12,1,1,1,0,1,NA,6
"1848",437,7,1,1,1,0,0,NA,7
"1849",437,4,1,1,1,0,0,NA,8
"1850",437,3,1,1,1,0,0,NA,9
"1851",437,8,1,1,1,0,0,NA,10
"1852",437,16,1,1,1,0,0,NA,11
"1853",437,13,1,1,1,0,0,NA,12
"1854",437,15,1,1,1,0,1,NA,13
"1855",437,1,1,1,1,0,1,NA,14
"1856",437,9,1,1,1,0,1,NA,15
"1857",434,6,1,1,1,71,1,NA,0
"1858",434,8,1,1,1,62,0,NA,1
"1859",434,7,1,1,1,32,0,NA,2
"1860",434,13,1,1,1,36,0,NA,3
"1861",434,16,1,1,1,55,0,NA,4
"1862",434,11,1,1,1,31,1,NA,5
"1863",434,2,1,1,1,35,0,NA,6
"1864",434,4,1,1,1,0,0,NA,7
"1865",434,15,1,1,1,100,1,NA,8
"1866",434,14,1,1,1,0,0,NA,9
"1867",434,10,1,1,1,0,1,NA,10
"1868",434,9,1,1,1,0,1,NA,11
"1869",434,12,1,1,1,0,1,NA,12
"1870",434,1,1,1,1,0,1,NA,13
"1871",434,3,1,1,1,0,0,NA,14
"1872",434,5,1,1,1,75,1,NA,15
"1873",432,1,1,1,1,0,1,NA,0
"1874",432,2,1,1,1,0,0,NA,1
"1875",432,5,1,1,1,0,1,NA,2
"1876",432,11,1,1,1,0,1,NA,3
"1877",432,14,1,1,1,0,0,NA,4
"1878",432,16,1,1,1,0,0,NA,5
"1879",432,6,1,1,1,0,1,NA,6
"1880",432,9,1,1,1,0,1,NA,7
"1881",432,7,1,1,1,0,0,NA,8
"1882",432,8,1,1,1,0,0,NA,9
"1883",432,15,1,1,1,0,1,NA,10
"1884",432,4,1,1,1,0,0,NA,11
"1885",432,12,1,1,1,0,1,NA,12
"1886",432,13,1,1,1,0,0,NA,13
"1887",432,10,1,1,1,0,1,NA,14
"1888",432,3,1,1,1,0,0,NA,15
"1889",427,1,1,1,1,0,1,NA,0
"1890",427,7,1,1,1,0,0,NA,1
"1891",427,5,1,1,1,0,1,NA,2
"1892",427,3,1,1,1,0,0,NA,3
"1893",427,12,1,1,1,0,1,NA,4
"1894",427,13,1,1,1,0,0,NA,5
"1895",427,8,1,1,1,0,0,NA,6
"1896",427,11,1,1,1,0,1,NA,7
"1897",427,10,1,1,1,0,1,NA,8
"1898",427,2,1,1,1,0,0,NA,9
"1899",427,6,1,1,1,0,1,NA,10
"1900",427,15,1,1,1,0,1,NA,11
"1901",427,4,1,1,1,0,0,NA,12
"1902",427,16,1,1,1,0,0,NA,13
"1903",427,14,1,1,1,0,0,NA,14
"1904",427,9,1,1,1,0,1,NA,15
"1905",420,10,1,1,1,0,1,NA,0
"1906",420,12,1,1,1,0,1,NA,1
"1907",420,15,1,1,1,63,1,NA,2
"1908",420,14,1,1,1,0,0,NA,3
"1909",420,13,1,1,1,0,0,NA,4
"1910",420,4,1,1,1,0,0,NA,5
"1911",420,7,1,1,1,0,0,NA,6
"1912",420,2,1,1,1,0,0,NA,7
"1913",420,11,1,1,1,0,1,NA,8
"1914",420,6,1,1,1,0,1,NA,9
"1915",420,16,1,1,1,66,0,NA,10
"1916",420,9,1,1,1,0,1,NA,11
"1917",420,3,1,1,1,0,0,NA,12
"1918",420,5,1,1,1,66,1,NA,13
"1919",420,1,1,1,1,0,1,NA,14
"1920",420,8,1,1,1,0,0,NA,15
"1921",418,5,1,1,1,0,1,NA,0
"1922",418,4,1,1,1,0,0,NA,1
"1923",418,9,1,1,1,0,1,NA,2
"1924",418,14,1,1,1,0,0,NA,3
"1925",418,7,1,1,1,0,0,NA,4
"1926",418,13,1,1,1,0,0,NA,5
"1927",418,1,1,1,1,0,1,NA,6
"1928",418,12,1,1,1,0,1,NA,7
"1929",418,2,1,1,1,0,0,NA,8
"1930",418,10,1,1,1,0,1,NA,9
"1931",418,11,1,1,1,0,1,NA,10
"1932",418,16,1,1,1,0,0,NA,11
"1933",418,15,1,1,1,0,1,NA,12
"1934",418,3,1,1,1,0,0,NA,13
"1935",418,6,1,1,1,0,1,NA,14
"1936",418,8,1,1,1,0,0,NA,15
"1937",417,10,1,1,1,0,1,NA,0
"1938",417,1,1,1,1,0,1,NA,1
"1939",417,11,1,1,1,0,1,NA,2
"1940",417,13,1,1,1,0,0,NA,3
"1941",417,6,1,1,1,0,1,NA,4
"1942",417,16,1,1,1,13,0,NA,5
"1943",417,12,1,1,1,50,1,NA,6
"1944",417,2,1,1,1,26,0,NA,7
"1945",417,14,1,1,1,0,0,NA,8
"1946",417,5,1,1,1,20,1,NA,9
"1947",417,7,1,1,1,28,0,NA,10
"1948",417,4,1,1,1,0,0,NA,11
"1949",417,15,1,1,1,25,1,NA,12
"1950",417,9,1,1,1,0,1,NA,13
"1951",417,3,1,1,1,0,0,NA,14
"1952",417,8,1,1,1,0,0,NA,15
"1953",416,7,1,1,1,0,0,NA,0
"1954",416,8,1,1,1,0,0,NA,1
"1955",416,13,1,1,1,0,0,NA,2
"1956",416,2,1,1,1,25,0,NA,3
"1957",416,11,1,1,1,25,1,NA,4
"1958",416,3,1,1,1,5,0,NA,5
"1959",416,4,1,1,1,0,0,NA,6
"1960",416,15,1,1,1,50,1,NA,7
"1961",416,1,1,1,1,0,1,NA,8
"1962",416,6,1,1,1,0,1,NA,9
"1963",416,14,1,1,1,0,0,NA,10
"1964",416,10,1,1,1,0,1,NA,11
"1965",416,5,1,1,1,20,1,NA,12
"1966",416,16,1,1,1,64,0,NA,13
"1967",416,9,1,1,1,0,1,NA,14
"1968",416,12,1,1,1,0,1,NA,15
"1969",415,10,1,1,1,0,1,NA,0
"1970",415,6,1,1,1,0,1,NA,1
"1971",415,8,1,1,1,0,0,NA,2
"1972",415,9,1,1,1,0,1,NA,3
"1973",415,14,1,1,1,0,0,NA,4
"1974",415,16,1,1,1,52,0,NA,5
"1975",415,3,1,1,1,0,0,NA,6
"1976",415,2,1,1,1,11,0,NA,7
"1977",415,5,1,1,1,3,1,NA,8
"1978",415,11,1,1,1,0,1,NA,9
"1979",415,7,1,1,1,0,0,NA,10
"1980",415,4,1,1,1,0,0,NA,11
"1981",415,13,1,1,1,0,0,NA,12
"1982",415,12,1,1,1,0,1,NA,13
"1983",415,15,1,1,1,0,1,NA,14
"1984",415,1,1,1,1,0,1,NA,15
"1985",404,7,1,1,1,0,0,NA,0
"1986",404,10,1,1,1,0,1,NA,1
"1987",404,9,1,1,1,0,1,NA,2
"1988",404,6,1,1,1,0,1,NA,3
"1989",404,11,1,1,1,0,1,NA,4
"1990",404,2,1,1,1,0,0,NA,5
"1991",404,4,1,1,1,0,0,NA,6
"1992",404,12,1,1,1,0,1,NA,7
"1993",404,1,1,1,1,0,1,NA,8
"1994",404,5,1,1,1,0,1,NA,9
"1995",404,16,1,1,1,0,0,NA,10
"1996",404,8,1,1,1,0,0,NA,11
"1997",404,14,1,1,1,0,0,NA,12
"1998",404,3,1,1,1,0,0,NA,13
"1999",404,15,1,1,1,0,1,NA,14
"2000",404,13,1,1,1,0,0,NA,15
"2001",396,4,1,1,1,0,0,NA,0
"2002",396,8,1,1,1,0,0,NA,1
"2003",396,12,1,1,1,0,1,NA,2
"2004",396,3,1,1,1,0,0,NA,3
"2005",396,13,1,1,1,0,0,NA,4
"2006",396,5,1,1,1,30,1,NA,5
"2007",396,2,1,1,1,0,0,NA,6
"2008",396,9,1,1,1,0,1,NA,7
"2009",396,1,1,1,1,0,1,NA,8
"2010",396,7,1,1,1,0,0,NA,9
"2011",396,6,1,1,1,0,1,NA,10
"2012",396,15,1,1,1,0,1,NA,11
"2013",396,14,1,1,1,0,0,NA,12
"2014",396,11,1,1,1,0,1,NA,13
"2015",396,16,1,1,1,0,0,NA,14
"2016",396,10,1,1,1,0,1,NA,15
"2017",395,9,1,1,1,0,1,NA,0
"2018",395,10,1,1,1,1,1,NA,1
"2019",395,3,1,1,1,0,0,NA,2
"2020",395,14,1,1,1,0,0,NA,3
"2021",395,12,1,1,1,0,1,NA,4
"2022",395,1,1,1,1,0,1,NA,5
"2023",395,11,1,1,1,45,1,NA,6
"2024",395,7,1,1,1,48,0,NA,7
"2025",395,13,1,1,1,0,0,NA,8
"2026",395,4,1,1,1,0,0,NA,9
"2027",395,5,1,1,1,0,1,NA,10
"2028",395,16,1,1,1,84,0,NA,11
"2029",395,6,1,1,1,0,1,NA,12
"2030",395,8,1,1,1,0,0,NA,13
"2031",395,2,1,1,1,0,0,NA,14
"2032",395,15,1,1,1,9,1,NA,15
"2033",394,11,1,1,1,2,1,NA,0
"2034",394,14,1,1,1,0,0,NA,1
"2035",394,2,1,1,1,0,0,NA,2
"2036",394,15,1,1,1,0,1,NA,3
"2037",394,8,1,1,1,9,0,NA,4
"2038",394,1,1,1,1,0,1,NA,5
"2039",394,9,1,1,1,0,1,NA,6
"2040",394,10,1,1,1,0,1,NA,7
"2041",394,3,1,1,1,0,0,NA,8
"2042",394,4,1,1,1,0,0,NA,9
"2043",394,6,1,1,1,0,1,NA,10
"2044",394,12,1,1,1,0,1,NA,11
"2045",394,5,1,1,1,25,1,NA,12
"2046",394,16,1,1,1,40,0,NA,13
"2047",394,13,1,1,1,0,0,NA,14
"2048",394,7,1,1,1,6,0,NA,15
"2049",393,12,1,1,1,100,1,NA,0
"2050",393,8,1,1,1,35,0,NA,1
"2051",393,7,1,1,1,54,0,NA,2
"2052",393,3,1,1,1,0,0,NA,3
"2053",393,10,1,1,1,0,1,NA,4
"2054",393,14,1,1,1,0,0,NA,5
"2055",393,4,1,1,1,44,0,NA,6
"2056",393,5,1,1,1,36,1,NA,7
"2057",393,9,1,1,1,0,1,NA,8
"2058",393,16,1,1,1,0,0,NA,9
"2059",393,2,1,1,1,0,0,NA,10
"2060",393,1,1,1,1,0,1,NA,11
"2061",393,15,1,1,1,0,1,NA,12
"2062",393,6,1,1,1,0,1,NA,13
"2063",393,11,1,1,1,0,1,NA,14
"2064",393,13,1,1,1,17,0,NA,15
"2065",392,14,1,1,1,0,0,NA,0
"2066",392,2,1,1,1,0,0,NA,1
"2067",392,3,1,1,1,0,0,NA,2
"2068",392,7,1,1,1,0,0,NA,3
"2069",392,10,1,1,1,0,1,NA,4
"2070",392,4,1,1,1,0,0,NA,5
"2071",392,5,1,1,1,30,1,NA,6
"2072",392,12,1,1,1,80,1,NA,7
"2073",392,16,1,1,1,10,0,NA,8
"2074",392,11,1,1,1,0,1,NA,9
"2075",392,13,1,1,1,0,0,NA,10
"2076",392,1,1,1,1,0,1,NA,11
"2077",392,9,1,1,1,0,1,NA,12
"2078",392,6,1,1,1,0,1,NA,13
"2079",392,8,1,1,1,0,0,NA,14
"2080",392,15,1,1,1,0,1,NA,15
"2081",391,12,1,1,1,0,1,NA,0
"2082",391,10,1,1,1,0,1,NA,1
"2083",391,11,1,1,1,0,1,NA,2
"2084",391,9,1,1,1,11,1,NA,3
"2085",391,8,1,1,1,0,0,NA,4
"2086",391,14,1,1,1,0,0,NA,5
"2087",391,4,1,1,1,0,0,NA,6
"2088",391,3,1,1,1,0,0,NA,7
"2089",391,15,1,1,1,0,1,NA,8
"2090",391,6,1,1,1,8,1,NA,9
"2091",391,5,1,1,1,25,1,NA,10
"2092",391,2,1,1,1,0,0,NA,11
"2093",391,7,1,1,1,41,0,NA,12
"2094",391,16,1,1,1,60,0,NA,13
"2095",391,13,1,1,1,10,0,NA,14
"2096",391,1,1,1,1,0,1,NA,15
"2097",390,4,1,1,1,0,0,NA,0
"2098",390,14,1,1,1,0,0,NA,1
"2099",390,1,1,1,1,0,1,NA,2
"2100",390,6,1,1,1,0,1,NA,3
"2101",390,13,1,1,1,0,0,NA,4
"2102",390,15,1,1,1,80,1,NA,5
"2103",390,8,1,1,1,0,0,NA,6
"2104",390,12,1,1,1,0,1,NA,7
"2105",390,5,1,1,1,50,1,NA,8
"2106",390,9,1,1,1,0,1,NA,9
"2107",390,11,1,1,1,0,1,NA,10
"2108",390,7,1,1,1,0,0,NA,11
"2109",390,10,1,1,1,0,1,NA,12
"2110",390,2,1,1,1,0,0,NA,13
"2111",390,16,1,1,1,83,0,NA,14
"2112",390,3,1,1,1,0,0,NA,15
"2113",388,15,1,1,1,100,1,NA,0
"2114",388,16,1,1,1,100,0,NA,1
"2115",388,2,1,1,1,0,0,NA,2
"2116",388,4,1,1,1,0,0,NA,3
"2117",388,10,1,1,1,0,1,NA,4
"2118",388,11,1,1,1,0,1,NA,5
"2119",388,3,1,1,1,0,0,NA,6
"2120",388,14,1,1,1,0,0,NA,7
"2121",388,6,1,1,1,0,1,NA,8
"2122",388,5,1,1,1,89,1,NA,9
"2123",388,9,1,1,1,0,1,NA,10
"2124",388,1,1,1,1,0,1,NA,11
"2125",388,7,1,1,1,0,0,NA,12
"2126",388,12,1,1,1,6,1,NA,13
"2127",388,13,1,1,1,0,0,NA,14
"2128",388,8,1,1,1,0,0,NA,15
"2129",386,13,1,1,1,6,0,NA,0
"2130",386,11,1,1,1,16,1,NA,1
"2131",386,9,1,1,1,0,1,NA,2
"2132",386,15,1,1,1,89,1,NA,3
"2133",386,10,1,1,1,0,1,NA,4
"2134",386,16,1,1,1,38,0,NA,5
"2135",386,7,1,1,1,18,0,NA,6
"2136",386,12,1,1,1,75,1,NA,7
"2137",386,8,1,1,1,11,0,NA,8
"2138",386,14,1,1,1,0,0,NA,9
"2139",386,3,1,1,1,0,0,NA,10
"2140",386,6,1,1,1,14,1,NA,11
"2141",386,4,1,1,1,4,0,NA,12
"2142",386,1,1,1,1,0,1,NA,13
"2143",386,5,1,1,1,14,1,NA,14
"2144",386,2,1,1,1,23,0,NA,15
"2145",384,5,1,1,1,0,1,NA,0
"2146",384,10,1,1,1,0,1,NA,1
"2147",384,12,1,1,1,0,1,NA,2
"2148",384,6,1,1,1,5,1,NA,3
"2149",384,11,1,1,1,0,1,NA,4
"2150",384,3,1,1,1,0,0,NA,5
"2151",384,14,1,1,1,0,0,NA,6
"2152",384,4,1,1,1,0,0,NA,7
"2153",384,1,1,1,1,0,1,NA,8
"2154",384,8,1,1,1,0,0,NA,9
"2155",384,7,1,1,1,0,0,NA,10
"2156",384,9,1,1,1,0,1,NA,11
"2157",384,2,1,1,1,0,0,NA,12
"2158",384,13,1,1,1,0,0,NA,13
"2159",384,15,1,1,1,0,1,NA,14
"2160",384,16,1,1,1,0,0,NA,15
"2161",383,14,1,1,1,0,0,NA,0
"2162",383,12,1,1,1,81,1,NA,1
"2163",383,11,1,1,1,0,1,NA,2
"2164",383,6,1,1,1,13,1,NA,3
"2165",383,9,1,1,1,0,1,NA,4
"2166",383,10,1,1,1,0,1,NA,5
"2167",383,5,1,1,1,19,1,NA,6
"2168",383,7,1,1,1,0,0,NA,7
"2169",383,8,1,1,1,0,0,NA,8
"2170",383,15,1,1,1,0,1,NA,9
"2171",383,16,1,1,1,22,0,NA,10
"2172",383,3,1,1,1,0,0,NA,11
"2173",383,1,1,1,1,0,1,NA,12
"2174",383,4,1,1,1,0,0,NA,13
"2175",383,13,1,1,1,8,0,NA,14
"2176",383,2,1,1,1,42,0,NA,15
"2177",379,5,1,1,1,0,1,NA,0
"2178",379,8,1,1,1,0,0,NA,1
"2179",379,13,1,1,1,0,0,NA,2
"2180",379,6,1,1,1,0,1,NA,3
"2181",379,7,1,1,1,0,0,NA,4
"2182",379,2,1,1,1,0,0,NA,5
"2183",379,14,1,1,1,0,0,NA,6
"2184",379,9,1,1,1,0,1,NA,7
"2185",379,11,1,1,1,0,1,NA,8
"2186",379,16,1,1,1,0,0,NA,9
"2187",379,12,1,1,1,0,1,NA,10
"2188",379,3,1,1,1,0,0,NA,11
"2189",379,10,1,1,1,0,1,NA,12
"2190",379,1,1,1,1,0,1,NA,13
"2191",379,4,1,1,1,0,0,NA,14
"2192",379,15,1,1,1,0,1,NA,15
"2193",378,6,1,1,1,0,1,NA,0
"2194",378,1,1,1,1,0,1,NA,1
"2195",378,13,1,1,1,0,0,NA,2
"2196",378,8,1,1,1,7,0,NA,3
"2197",378,7,1,1,1,4,0,NA,4
"2198",378,12,1,1,1,0,1,NA,5
"2199",378,3,1,1,1,0,0,NA,6
"2200",378,9,1,1,1,0,1,NA,7
"2201",378,14,1,1,1,0,0,NA,8
"2202",378,2,1,1,1,0,0,NA,9
"2203",378,16,1,1,1,24,0,NA,10
"2204",378,10,1,1,1,0,1,NA,11
"2205",378,5,1,1,1,12,1,NA,12
"2206",378,4,1,1,1,0,0,NA,13
"2207",378,11,1,1,1,0,1,NA,14
"2208",378,15,1,1,1,10,1,NA,15
"2209",377,3,1,1,1,0,0,NA,0
"2210",377,7,1,1,1,0,0,NA,1
"2211",377,11,1,1,1,0,1,NA,2
"2212",377,6,1,1,1,0,1,NA,3
"2213",377,4,1,1,1,0,0,NA,4
"2214",377,14,1,1,1,0,0,NA,5
"2215",377,16,1,1,1,0,0,NA,6
"2216",377,13,1,1,1,0,0,NA,7
"2217",377,10,1,1,1,0,1,NA,8
"2218",377,8,1,1,1,0,0,NA,9
"2219",377,15,1,1,1,0,1,NA,10
"2220",377,9,1,1,1,0,1,NA,11
"2221",377,1,1,1,1,0,1,NA,12
"2222",377,12,1,1,1,0,1,NA,13
"2223",377,2,1,1,1,0,0,NA,14
"2224",377,5,1,1,1,2,1,NA,15
"2225",375,12,1,1,1,0,1,NA,0
"2226",375,1,1,1,1,0,1,NA,1
"2227",375,11,1,1,1,0,1,NA,2
"2228",375,7,1,1,1,0,0,NA,3
"2229",375,10,1,1,1,6,1,NA,4
"2230",375,4,1,1,1,0,0,NA,5
"2231",375,3,1,1,1,0,0,NA,6
"2232",375,16,1,1,1,0,0,NA,7
"2233",375,2,1,1,1,17,0,NA,8
"2234",375,5,1,1,1,10,1,NA,9
"2235",375,9,1,1,1,0,1,NA,10
"2236",375,14,1,1,1,0,0,NA,11
"2237",375,8,1,1,1,0,0,NA,12
"2238",375,13,1,1,1,0,0,NA,13
"2239",375,6,1,1,1,0,1,NA,14
"2240",375,15,1,1,1,0,1,NA,15
"2241",372,7,1,1,1,0,0,NA,0
"2242",372,4,1,1,1,0,0,NA,1
"2243",372,14,1,1,1,0,0,NA,2
"2244",372,12,1,1,1,0,1,NA,3
"2245",372,11,1,1,1,0,1,NA,4
"2246",372,15,1,1,1,0,1,NA,5
"2247",372,1,1,1,1,0,1,NA,6
"2248",372,6,1,1,1,0,1,NA,7
"2249",372,13,1,1,1,0,0,NA,8
"2250",372,2,1,1,1,0,0,NA,9
"2251",372,8,1,1,1,0,0,NA,10
"2252",372,9,1,1,1,0,1,NA,11
"2253",372,3,1,1,1,0,0,NA,12
"2254",372,16,1,1,1,0,0,NA,13
"2255",372,10,1,1,1,0,1,NA,14
"2256",372,5,1,1,1,0,1,NA,15
"2257",371,1,1,1,1,0,1,NA,0
"2258",371,10,1,1,1,0,1,NA,1
"2259",371,6,1,1,1,62,1,NA,2
"2260",371,4,1,1,1,0,0,NA,3
"2261",371,7,1,1,1,26,0,NA,4
"2262",371,14,1,1,1,23,0,NA,5
"2263",371,9,1,1,1,0,1,NA,6
"2264",371,12,1,1,1,50,1,NA,7
"2265",371,3,1,1,1,0,0,NA,8
"2266",371,5,1,1,1,50,1,NA,9
"2267",371,8,1,1,1,50,0,NA,10
"2268",371,15,1,1,1,50,1,NA,11
"2269",371,2,1,1,1,0,0,NA,12
"2270",371,11,1,1,1,0,1,NA,13
"2271",371,13,1,1,1,0,0,NA,14
"2272",371,16,1,1,1,50,0,NA,15
"2273",368,12,1,1,1,0,1,NA,0
"2274",368,4,1,1,1,0,0,NA,1
"2275",368,6,1,1,1,0,1,NA,2
"2276",368,3,1,1,1,0,0,NA,3
"2277",368,7,1,1,1,34,0,NA,4
"2278",368,11,1,1,1,0,1,NA,5
"2279",368,8,1,1,1,0,0,NA,6
"2280",368,13,1,1,1,0,0,NA,7
"2281",368,14,1,1,1,0,0,NA,8
"2282",368,1,1,1,1,0,1,NA,9
"2283",368,15,1,1,1,0,1,NA,10
"2284",368,2,1,1,1,0,0,NA,11
"2285",368,16,1,1,1,54,0,NA,12
"2286",368,9,1,1,1,0,1,NA,13
"2287",368,5,1,1,1,26,1,NA,14
"2288",368,10,1,1,1,0,1,NA,15
"2289",365,4,1,1,1,0,0,NA,0
"2290",365,3,1,1,1,0,0,NA,1
"2291",365,16,1,1,1,0,0,NA,2
"2292",365,11,1,1,1,0,1,NA,3
"2293",365,14,1,1,1,0,0,NA,4
"2294",365,12,1,1,1,0,1,NA,5
"2295",365,9,1,1,1,0,1,NA,6
"2296",365,1,1,1,1,0,1,NA,7
"2297",365,5,1,1,1,0,1,NA,8
"2298",365,6,1,1,1,0,1,NA,9
"2299",365,8,1,1,1,10,0,NA,10
"2300",365,13,1,1,1,0,0,NA,11
"2301",365,7,1,1,1,0,0,NA,12
"2302",365,10,1,1,1,0,1,NA,13
"2303",365,15,1,1,1,10,1,NA,14
"2304",365,2,1,1,1,0,0,NA,15
"2305",364,16,1,1,1,5,0,NA,0
"2306",364,3,1,1,1,0,0,NA,1
"2307",364,6,1,1,1,3,1,NA,2
"2308",364,11,1,1,1,30,1,NA,3
"2309",364,4,1,1,1,5,0,NA,4
"2310",364,13,1,1,1,5,0,NA,5
"2311",364,7,1,1,1,2,0,NA,6
"2312",364,14,1,1,1,0,0,NA,7
"2313",364,9,1,1,1,0,1,NA,8
"2314",364,2,1,1,1,5,0,NA,9
"2315",364,1,1,1,1,0,1,NA,10
"2316",364,8,1,1,1,5,0,NA,11
"2317",364,15,1,1,1,35,1,NA,12
"2318",364,12,1,1,1,0,1,NA,13
"2319",364,10,1,1,1,5,1,NA,14
"2320",364,5,1,1,1,30,1,NA,15
"2321",363,3,1,1,1,0,0,NA,0
"2322",363,15,1,1,1,0,1,NA,1
"2323",363,2,1,1,1,0,0,NA,2
"2324",363,14,1,1,1,0,0,NA,3
"2325",363,4,1,1,1,0,0,NA,4
"2326",363,13,1,1,1,0,0,NA,5
"2327",363,5,1,1,1,59,1,NA,6
"2328",363,6,1,1,1,0,1,NA,7
"2329",363,8,1,1,1,0,0,NA,8
"2330",363,16,1,1,1,40,0,NA,9
"2331",363,1,1,1,1,0,1,NA,10
"2332",363,9,1,1,1,0,1,NA,11
"2333",363,10,1,1,1,0,1,NA,12
"2334",363,12,1,1,1,0,1,NA,13
"2335",363,11,1,1,1,0,1,NA,14
"2336",363,7,1,1,1,0,0,NA,15
"2337",361,1,1,1,1,0,1,NA,0
"2338",361,14,1,1,1,0,0,NA,1
"2339",361,16,1,1,1,0,0,NA,2
"2340",361,10,1,1,1,0,1,NA,3
"2341",361,3,1,1,1,0,0,NA,4
"2342",361,15,1,1,1,0,1,NA,5
"2343",361,11,1,1,1,0,1,NA,6
"2344",361,8,1,1,1,0,0,NA,7
"2345",361,4,1,1,1,0,0,NA,8
"2346",361,2,1,1,1,0,0,NA,9
"2347",361,5,1,1,1,0,1,NA,10
"2348",361,12,1,1,1,0,1,NA,11
"2349",361,9,1,1,1,0,1,NA,12
"2350",361,7,1,1,1,0,0,NA,13
"2351",361,13,1,1,1,0,0,NA,14
"2352",361,6,1,1,1,0,1,NA,15
"2353",360,11,1,1,1,0,1,NA,0
"2354",360,8,1,1,1,0,0,NA,1
"2355",360,10,1,1,1,0,1,NA,2
"2356",360,5,1,1,1,50,1,NA,3
"2357",360,13,1,1,1,0,0,NA,4
"2358",360,9,1,1,1,0,1,NA,5
"2359",360,15,1,1,1,17,1,NA,6
"2360",360,16,1,1,1,0,0,NA,7
"2361",360,4,1,1,1,5,0,NA,8
"2362",360,14,1,1,1,0,0,NA,9
"2363",360,2,1,1,1,0,0,NA,10
"2364",360,7,1,1,1,25,0,NA,11
"2365",360,3,1,1,1,0,0,NA,12
"2366",360,6,1,1,1,0,1,NA,13
"2367",360,1,1,1,1,0,1,NA,14
"2368",360,12,1,1,1,6,1,NA,15
"2369",356,8,1,1,1,0,0,NA,0
"2370",356,11,1,1,1,0,1,NA,1
"2371",356,12,1,1,1,89,1,NA,2
"2372",356,5,1,1,1,0,1,NA,3
"2373",356,4,1,1,1,0,0,NA,4
"2374",356,1,1,1,1,0,1,NA,5
"2375",356,2,1,1,1,0,0,NA,6
"2376",356,16,1,1,1,0,0,NA,7
"2377",356,7,1,1,1,0,0,NA,8
"2378",356,10,1,1,1,0,1,NA,9
"2379",356,13,1,1,1,0,0,NA,10
"2380",356,9,1,1,1,0,1,NA,11
"2381",356,15,1,1,1,0,1,NA,12
"2382",356,14,1,1,1,0,0,NA,13
"2383",356,6,1,1,1,0,1,NA,14
"2384",356,3,1,1,1,0,0,NA,15
"2385",354,16,1,1,1,92,0,NA,0
"2386",354,12,1,1,1,0,1,NA,1
"2387",354,7,1,1,1,0,0,NA,2
"2388",354,2,1,1,1,0,0,NA,3
"2389",354,11,1,1,1,0,1,NA,4
"2390",354,4,1,1,1,0,0,NA,5
"2391",354,9,1,1,1,0,1,NA,6
"2392",354,10,1,1,1,0,1,NA,7
"2393",354,3,1,1,1,0,0,NA,8
"2394",354,14,1,1,1,0,0,NA,9
"2395",354,13,1,1,1,0,0,NA,10
"2396",354,5,1,1,1,0,1,NA,11
"2397",354,8,1,1,1,0,0,NA,12
"2398",354,15,1,1,1,0,1,NA,13
"2399",354,6,1,1,1,0,1,NA,14
"2400",354,1,1,1,1,0,1,NA,15
"2401",351,6,1,1,1,0,1,NA,0
"2402",351,8,1,1,1,0,0,NA,1
"2403",351,9,1,1,1,0,1,NA,2
"2404",351,2,1,1,1,0,0,NA,3
"2405",351,12,1,1,1,0,1,NA,4
"2406",351,7,1,1,1,0,0,NA,5
"2407",351,1,1,1,1,0,1,NA,6
"2408",351,11,1,1,1,0,1,NA,7
"2409",351,14,1,1,1,0,0,NA,8
"2410",351,13,1,1,1,0,0,NA,9
"2411",351,10,1,1,1,0,1,NA,10
"2412",351,3,1,1,1,0,0,NA,11
"2413",351,15,1,1,1,19,1,NA,12
"2414",351,5,1,1,1,70,1,NA,13
"2415",351,16,1,1,1,16,0,NA,14
"2416",351,4,1,1,1,0,0,NA,15
"2417",349,5,1,1,1,4,1,NA,0
"2418",349,7,1,1,1,1,0,NA,1
"2419",349,2,1,1,1,2,0,NA,2
"2420",349,3,1,1,1,0,0,NA,3
"2421",349,12,1,1,1,83,1,NA,4
"2422",349,11,1,1,1,0,1,NA,5
"2423",349,9,1,1,1,0,1,NA,6
"2424",349,1,1,1,1,0,1,NA,7
"2425",349,8,1,1,1,0,0,NA,8
"2426",349,16,1,1,1,12,0,NA,9
"2427",349,13,1,1,1,0,0,NA,10
"2428",349,14,1,1,1,0,0,NA,11
"2429",349,10,1,1,1,0,1,NA,12
"2430",349,6,1,1,1,0,1,NA,13
"2431",349,4,1,1,1,0,0,NA,14
"2432",349,15,1,1,1,0,1,NA,15
"2433",348,4,1,1,1,0,0,NA,0
"2434",348,13,1,1,1,0,0,NA,1
"2435",348,14,1,1,1,0,0,NA,2
"2436",348,1,1,1,1,0,1,NA,3
"2437",348,6,1,1,1,0,1,NA,4
"2438",348,16,1,1,1,0,0,NA,5
"2439",348,11,1,1,1,0,1,NA,6
"2440",348,8,1,1,1,4,0,NA,7
"2441",348,9,1,1,1,0,1,NA,8
"2442",348,2,1,1,1,0,0,NA,9
"2443",348,5,1,1,1,11,1,NA,10
"2444",348,12,1,1,1,27,1,NA,11
"2445",348,15,1,1,1,0,1,NA,12
"2446",348,3,1,1,1,0,0,NA,13
"2447",348,7,1,1,1,0,0,NA,14
"2448",348,10,1,1,1,0,1,NA,15
"2449",345,14,1,1,1,0,0,NA,0
"2450",345,4,1,1,1,9,0,NA,1
"2451",345,8,1,1,1,0,0,NA,2
"2452",345,3,1,1,1,0,0,NA,3
"2453",345,6,1,1,1,19,1,NA,4
"2454",345,10,1,1,1,0,1,NA,5
"2455",345,11,1,1,1,5,1,NA,6
"2456",345,2,1,1,1,9,0,NA,7
"2457",345,9,1,1,1,0,1,NA,8
"2458",345,7,1,1,1,35,0,NA,9
"2459",345,12,1,1,1,0,1,NA,10
"2460",345,5,1,1,1,28,1,NA,11
"2461",345,13,1,1,1,0,0,NA,12
"2462",345,1,1,1,1,30,1,NA,13
"2463",345,16,1,1,1,65,0,NA,14
"2464",345,15,1,1,1,62,1,NA,15
"2465",344,14,1,1,1,0,0,NA,0
"2466",344,9,1,1,1,0,1,NA,1
"2467",344,3,1,1,1,0,0,NA,2
"2468",344,4,1,1,1,0,0,NA,3
"2469",344,6,1,1,1,0,1,NA,4
"2470",344,2,1,1,1,23,0,NA,5
"2471",344,16,1,1,1,12,0,NA,6
"2472",344,11,1,1,1,23,1,NA,7
"2473",344,12,1,1,1,90,1,NA,8
"2474",344,8,1,1,1,0,0,NA,9
"2475",344,7,1,1,1,0,0,NA,10
"2476",344,1,1,1,1,13,1,NA,11
"2477",344,5,1,1,1,30,1,NA,12
"2478",344,13,1,1,1,0,0,NA,13
"2479",344,10,1,1,1,1,1,NA,14
"2480",344,15,1,1,1,50,1,NA,15
"2481",343,11,1,1,1,0,1,NA,0
"2482",343,16,1,1,1,70,0,NA,1
"2483",343,14,1,1,1,0,0,NA,2
"2484",343,13,1,1,1,0,0,NA,3
"2485",343,2,1,1,1,0,0,NA,4
"2486",343,15,1,1,1,88,1,NA,5
"2487",343,5,1,1,1,0,1,NA,6
"2488",343,7,1,1,1,0,0,NA,7
"2489",343,9,1,1,1,0,1,NA,8
"2490",343,1,1,1,1,0,1,NA,9
"2491",343,4,1,1,1,0,0,NA,10
"2492",343,6,1,1,1,55,1,NA,11
"2493",343,8,1,1,1,0,0,NA,12
"2494",343,10,1,1,1,0,1,NA,13
"2495",343,12,1,1,1,0,1,NA,14
"2496",343,3,1,1,1,0,0,NA,15
"2497",340,6,1,1,1,16,1,NA,0
"2498",340,4,1,1,1,0,0,NA,1
"2499",340,16,1,1,1,3,0,NA,2
"2500",340,5,1,1,1,56,1,NA,3
"2501",340,3,1,1,1,0,0,NA,4
"2502",340,15,1,1,1,35,1,NA,5
"2503",340,1,1,1,1,0,1,NA,6
"2504",340,14,1,1,1,0,0,NA,7
"2505",340,8,1,1,1,0,0,NA,8
"2506",340,11,1,1,1,16,1,NA,9
"2507",340,2,1,1,1,0,0,NA,10
"2508",340,9,1,1,1,3,1,NA,11
"2509",340,12,1,1,1,8,1,NA,12
"2510",340,10,1,1,1,6,1,NA,13
"2511",340,13,1,1,1,10,0,NA,14
"2512",340,7,1,1,1,0,0,NA,15
"2513",339,5,1,1,1,0,1,NA,0
"2514",339,12,1,1,1,0,1,NA,1
"2515",339,9,1,1,1,0,1,NA,2
"2516",339,13,1,1,1,0,0,NA,3
"2517",339,3,1,1,1,0,0,NA,4
"2518",339,8,1,1,1,0,0,NA,5
"2519",339,7,1,1,1,0,0,NA,6
"2520",339,11,1,1,1,0,1,NA,7
"2521",339,10,1,1,1,0,1,NA,8
"2522",339,15,1,1,1,0,1,NA,9
"2523",339,1,1,1,1,0,1,NA,10
"2524",339,4,1,1,1,0,0,NA,11
"2525",339,6,1,1,1,0,1,NA,12
"2526",339,2,1,1,1,0,0,NA,13
"2527",339,14,1,1,1,0,0,NA,14
"2528",339,16,1,1,1,0,0,NA,15
"2529",336,7,1,1,1,31,0,NA,0
"2530",336,2,1,1,1,0,0,NA,1
"2531",336,9,1,1,1,0,1,NA,2
"2532",336,14,1,1,1,0,0,NA,3
"2533",336,11,1,1,1,0,1,NA,4
"2534",336,4,1,1,1,0,0,NA,5
"2535",336,5,1,1,1,50,1,NA,6
"2536",336,8,1,1,1,0,0,NA,7
"2537",336,16,1,1,1,0,0,NA,8
"2538",336,6,1,1,1,0,1,NA,9
"2539",336,15,1,1,1,0,1,NA,10
"2540",336,13,1,1,1,0,0,NA,11
"2541",336,10,1,1,1,0,1,NA,12
"2542",336,3,1,1,1,0,0,NA,13
"2543",336,12,1,1,1,0,1,NA,14
"2544",336,1,1,1,1,0,1,NA,15
"2545",335,16,1,1,1,0,0,NA,0
"2546",335,12,1,1,1,0,1,NA,1
"2547",335,1,1,1,1,0,1,NA,2
"2548",335,8,1,1,1,0,0,NA,3
"2549",335,2,1,1,1,0,0,NA,4
"2550",335,11,1,1,1,0,1,NA,5
"2551",335,14,1,1,1,0,0,NA,6
"2552",335,3,1,1,1,0,0,NA,7
"2553",335,13,1,1,1,0,0,NA,8
"2554",335,10,1,1,1,0,1,NA,9
"2555",335,5,1,1,1,0,1,NA,10
"2556",335,9,1,1,1,0,1,NA,11
"2557",335,6,1,1,1,0,1,NA,12
"2558",335,4,1,1,1,0,0,NA,13
"2559",335,7,1,1,1,0,0,NA,14
"2560",335,15,1,1,1,0,1,NA,15
"2561",330,16,1,1,1,74,0,NA,0
"2562",330,2,1,1,1,0,0,NA,1
"2563",330,1,1,1,1,0,1,NA,2
"2564",330,7,1,1,1,0,0,NA,3
"2565",330,13,1,1,1,0,0,NA,4
"2566",330,9,1,1,1,0,1,NA,5
"2567",330,14,1,1,1,0,0,NA,6
"2568",330,10,1,1,1,0,1,NA,7
"2569",330,15,1,1,1,0,1,NA,8
"2570",330,3,1,1,1,0,0,NA,9
"2571",330,11,1,1,1,0,1,NA,10
"2572",330,8,1,1,1,20,0,NA,11
"2573",330,5,1,1,1,0,1,NA,12
"2574",330,4,1,1,1,0,0,NA,13
"2575",330,6,1,1,1,0,1,NA,14
"2576",330,12,1,1,1,0,1,NA,15
"2577",328,12,1,1,1,0,1,NA,0
"2578",328,14,1,1,1,0,0,NA,1
"2579",328,15,1,1,1,0,1,NA,2
"2580",328,1,1,1,1,0,1,NA,3
"2581",328,10,1,1,1,3,1,NA,4
"2582",328,3,1,1,1,0,0,NA,5
"2583",328,13,1,1,1,0,0,NA,6
"2584",328,16,1,1,1,1,0,NA,7
"2585",328,2,1,1,1,0,0,NA,8
"2586",328,6,1,1,1,0,1,NA,9
"2587",328,9,1,1,1,3,1,NA,10
"2588",328,5,1,1,1,14,1,NA,11
"2589",328,4,1,1,1,7,0,NA,12
"2590",328,7,1,1,1,4,0,NA,13
"2591",328,11,1,1,1,7,1,NA,14
"2592",328,8,1,1,1,4,0,NA,15
"2593",323,13,1,1,1,0,0,NA,0
"2594",323,1,1,1,1,0,1,NA,1
"2595",323,2,1,1,1,0,0,NA,2
"2596",323,12,1,1,1,0,1,NA,3
"2597",323,10,1,1,1,0,1,NA,4
"2598",323,5,1,1,1,19,1,NA,5
"2599",323,3,1,1,1,0,0,NA,6
"2600",323,14,1,1,1,0,0,NA,7
"2601",323,7,1,1,1,0,0,NA,8
"2602",323,8,1,1,1,0,0,NA,9
"2603",323,4,1,1,1,0,0,NA,10
"2604",323,15,1,1,1,0,1,NA,11
"2605",323,11,1,1,1,0,1,NA,12
"2606",323,16,1,1,1,0,0,NA,13
"2607",323,9,1,1,1,0,1,NA,14
"2608",323,6,1,1,1,0,1,NA,15
"2609",319,11,1,1,1,89,1,NA,0
"2610",319,6,1,1,1,0,1,NA,1
"2611",319,16,1,1,1,0,0,NA,2
"2612",319,4,1,1,1,0,0,NA,3
"2613",319,5,1,1,1,11,1,NA,4
"2614",319,15,1,1,1,26,1,NA,5
"2615",319,13,1,1,1,0,0,NA,6
"2616",319,10,1,1,1,0,1,NA,7
"2617",319,9,1,1,1,0,1,NA,8
"2618",319,2,1,1,1,0,0,NA,9
"2619",319,3,1,1,1,0,0,NA,10
"2620",319,1,1,1,1,0,1,NA,11
"2621",319,7,1,1,1,0,0,NA,12
"2622",319,14,1,1,1,0,0,NA,13
"2623",319,8,1,1,1,0,0,NA,14
"2624",319,12,1,1,1,47,1,NA,15
"2625",315,9,1,1,1,0,1,NA,0
"2626",315,6,1,1,1,10,1,NA,1
"2627",315,4,1,1,1,0,0,NA,2
"2628",315,14,1,1,1,30,0,NA,3
"2629",315,3,1,1,1,0,0,NA,4
"2630",315,8,1,1,1,0,0,NA,5
"2631",315,7,1,1,1,8,0,NA,6
"2632",315,10,1,1,1,0,1,NA,7
"2633",315,15,1,1,1,92,1,NA,8
"2634",315,16,1,1,1,26,0,NA,9
"2635",315,12,1,1,1,0,1,NA,10
"2636",315,5,1,1,1,8,1,NA,11
"2637",315,1,1,1,1,0,1,NA,12
"2638",315,2,1,1,1,0,0,NA,13
"2639",315,13,1,1,1,0,0,NA,14
"2640",315,11,1,1,1,0,1,NA,15
"2641",314,3,1,1,1,0,0,NA,0
"2642",314,6,1,1,1,0,1,NA,1
"2643",314,9,1,1,1,0,1,NA,2
"2644",314,5,1,1,1,0,1,NA,3
"2645",314,7,1,1,1,0,0,NA,4
"2646",314,2,1,1,1,0,0,NA,5
"2647",314,14,1,1,1,0,0,NA,6
"2648",314,15,1,1,1,0,1,NA,7
"2649",314,8,1,1,1,0,0,NA,8
"2650",314,16,1,1,1,0,0,NA,9
"2651",314,13,1,1,1,0,0,NA,10
"2652",314,4,1,1,1,0,0,NA,11
"2653",314,10,1,1,1,0,1,NA,12
"2654",314,1,1,1,1,0,1,NA,13
"2655",314,11,1,1,1,0,1,NA,14
"2656",314,12,1,1,1,0,1,NA,15
"2657",312,6,1,1,1,0,1,NA,0
"2658",312,15,1,1,1,0,1,NA,1
"2659",312,10,1,1,1,0,1,NA,2
"2660",312,3,1,1,1,0,0,NA,3
"2661",312,13,1,1,1,0,0,NA,4
"2662",312,11,1,1,1,75,1,NA,5
"2663",312,9,1,1,1,0,1,NA,6
"2664",312,1,1,1,1,0,1,NA,7
"2665",312,16,1,1,1,0,0,NA,8
"2666",312,7,1,1,1,70,0,NA,9
"2667",312,5,1,1,1,70,1,NA,10
"2668",312,12,1,1,1,0,1,NA,11
"2669",312,2,1,1,1,0,0,NA,12
"2670",312,4,1,1,1,0,0,NA,13
"2671",312,14,1,1,1,0,0,NA,14
"2672",312,8,1,1,1,0,0,NA,15
"2673",309,15,1,1,1,50,1,NA,0
"2674",309,10,1,1,1,0,1,NA,1
"2675",309,5,1,1,1,10,1,NA,2
"2676",309,4,1,1,1,0,0,NA,3
"2677",309,3,1,1,1,0,0,NA,4
"2678",309,2,1,1,1,0,0,NA,5
"2679",309,16,1,1,1,0,0,NA,6
"2680",309,7,1,1,1,0,0,NA,7
"2681",309,8,1,1,1,0,0,NA,8
"2682",309,14,1,1,1,0,0,NA,9
"2683",309,11,1,1,1,0,1,NA,10
"2684",309,6,1,1,1,0,1,NA,11
"2685",309,12,1,1,1,0,1,NA,12
"2686",309,9,1,1,1,0,1,NA,13
"2687",309,13,1,1,1,0,0,NA,14
"2688",309,1,1,1,1,0,1,NA,15
"2689",308,9,1,1,1,0,1,NA,0
"2690",308,15,1,1,1,0,1,NA,1
"2691",308,12,1,1,1,0,1,NA,2
"2692",308,11,1,1,1,0,1,NA,3
"2693",308,1,1,1,1,0,1,NA,4
"2694",308,3,1,1,1,0,0,NA,5
"2695",308,4,1,1,1,0,0,NA,6
"2696",308,14,1,1,1,0,0,NA,7
"2697",308,5,1,1,1,0,1,NA,8
"2698",308,6,1,1,1,0,1,NA,9
"2699",308,2,1,1,1,0,0,NA,10
"2700",308,7,1,1,1,0,0,NA,11
"2701",308,16,1,1,1,0,0,NA,12
"2702",308,10,1,1,1,0,1,NA,13
"2703",308,13,1,1,1,0,0,NA,14
"2704",308,8,1,1,1,0,0,NA,15
"2705",305,12,1,1,1,1,1,NA,0
"2706",305,11,1,1,1,0,1,NA,1
"2707",305,4,1,1,1,0,0,NA,2
"2708",305,5,1,1,1,30,1,NA,3
"2709",305,6,1,1,1,29,1,NA,4
"2710",305,8,1,1,1,32,0,NA,5
"2711",305,13,1,1,1,29,0,NA,6
"2712",305,9,1,1,1,0,1,NA,7
"2713",305,3,1,1,1,0,0,NA,8
"2714",305,2,1,1,1,2,0,NA,9
"2715",305,1,1,1,1,0,1,NA,10
"2716",305,16,1,1,1,45,0,NA,11
"2717",305,7,1,1,1,49,0,NA,12
"2718",305,10,1,1,1,10,1,NA,13
"2719",305,15,1,1,1,49,1,NA,14
"2720",305,14,1,1,1,0,0,NA,15
"2721",304,9,1,1,1,0,1,NA,0
"2722",304,8,1,1,1,11,0,NA,1
"2723",304,3,1,1,1,0,0,NA,2
"2724",304,2,1,1,1,0,0,NA,3
"2725",304,7,1,1,1,11,0,NA,4
"2726",304,10,1,1,1,0,1,NA,5
"2727",304,15,1,1,1,0,1,NA,6
"2728",304,11,1,1,1,8,1,NA,7
"2729",304,12,1,1,1,0,1,NA,8
"2730",304,1,1,1,1,0,1,NA,9
"2731",304,13,1,1,1,6,0,NA,10
"2732",304,14,1,1,1,0,0,NA,11
"2733",304,6,1,1,1,16,1,NA,12
"2734",304,5,1,1,1,21,1,NA,13
"2735",304,16,1,1,1,0,0,NA,14
"2736",304,4,1,1,1,0,0,NA,15
"2737",303,12,1,1,1,93,1,NA,0
"2738",303,16,1,1,1,6,0,NA,1
"2739",303,1,1,1,1,0,1,NA,2
"2740",303,2,1,1,1,6,0,NA,3
"2741",303,5,1,1,1,40,1,NA,4
"2742",303,6,1,1,1,15,1,NA,5
"2743",303,4,1,1,1,0,0,NA,6
"2744",303,14,1,1,1,0,0,NA,7
"2745",303,13,1,1,1,1,0,NA,8
"2746",303,11,1,1,1,40,1,NA,9
"2747",303,9,1,1,1,10,1,NA,10
"2748",303,3,1,1,1,0,0,NA,11
"2749",303,7,1,1,1,8,0,NA,12
"2750",303,10,1,1,1,0,1,NA,13
"2751",303,8,1,1,1,2,0,NA,14
"2752",303,15,1,1,1,50,1,NA,15
"2753",300,15,1,1,1,0,1,NA,0
"2754",300,3,1,1,1,0,0,NA,1
"2755",300,8,1,1,1,9,0,NA,2
"2756",300,11,1,1,1,0,1,NA,3
"2757",300,14,1,1,1,0,0,NA,4
"2758",300,4,1,1,1,3,0,NA,5
"2759",300,7,1,1,1,3,0,NA,6
"2760",300,10,1,1,1,0,1,NA,7
"2761",300,12,1,1,1,10,1,NA,8
"2762",300,13,1,1,1,0,0,NA,9
"2763",300,6,1,1,1,0,1,NA,10
"2764",300,5,1,1,1,11,1,NA,11
"2765",300,9,1,1,1,0,1,NA,12
"2766",300,1,1,1,1,0,1,NA,13
"2767",300,16,1,1,1,0,0,NA,14
"2768",300,2,1,1,1,0,0,NA,15
"2769",297,7,1,1,1,22,0,NA,0
"2770",297,6,1,1,1,0,1,NA,1
"2771",297,4,1,1,1,0,0,NA,2
"2772",297,13,1,1,1,0,0,NA,3
"2773",297,1,1,1,1,75,1,NA,4
"2774",297,14,1,1,1,0,0,NA,5
"2775",297,12,1,1,1,94,1,NA,6
"2776",297,9,1,1,1,0,1,NA,7
"2777",297,3,1,1,1,0,0,NA,8
"2778",297,15,1,1,1,0,1,NA,9
"2779",297,5,1,1,1,26,1,NA,10
"2780",297,2,1,1,1,0,0,NA,11
"2781",297,16,1,1,1,73,0,NA,12
"2782",297,10,1,1,1,0,1,NA,13
"2783",297,11,1,1,1,0,1,NA,14
"2784",297,8,1,1,1,0,0,NA,15
"2785",294,7,1,1,1,22,0,NA,0
"2786",294,2,1,1,1,0,0,NA,1
"2787",294,9,1,1,1,0,1,NA,2
"2788",294,3,1,1,1,0,0,NA,3
"2789",294,11,1,1,1,55,1,NA,4
"2790",294,12,1,1,1,0,1,NA,5
"2791",294,14,1,1,1,0,0,NA,6
"2792",294,4,1,1,1,0,0,NA,7
"2793",294,1,1,1,1,0,1,NA,8
"2794",294,6,1,1,1,0,1,NA,9
"2795",294,15,1,1,1,42,1,NA,10
"2796",294,8,1,1,1,0,0,NA,11
"2797",294,10,1,1,1,0,1,NA,12
"2798",294,16,1,1,1,0,0,NA,13
"2799",294,5,1,1,1,3,1,NA,14
"2800",294,13,1,1,1,0,0,NA,15
"2801",293,4,1,1,1,0,0,NA,0
"2802",293,12,1,1,1,0,1,NA,1
"2803",293,11,1,1,1,0,1,NA,2
"2804",293,5,1,1,1,50,1,NA,3
"2805",293,6,1,1,1,0,1,NA,4
"2806",293,10,1,1,1,0,1,NA,5
"2807",293,9,1,1,1,0,1,NA,6
"2808",293,7,1,1,1,0,0,NA,7
"2809",293,14,1,1,1,0,0,NA,8
"2810",293,2,1,1,1,0,0,NA,9
"2811",293,3,1,1,1,0,0,NA,10
"2812",293,16,1,1,1,0,0,NA,11
"2813",293,8,1,1,1,0,0,NA,12
"2814",293,13,1,1,1,0,0,NA,13
"2815",293,1,1,1,1,0,1,NA,14
"2816",293,15,1,1,1,0,1,NA,15
"2817",290,3,1,1,1,0,0,NA,0
"2818",290,15,1,1,1,0,1,NA,1
"2819",290,12,1,1,1,100,1,NA,2
"2820",290,10,1,1,1,0,1,NA,3
"2821",290,6,1,1,1,0,1,NA,4
"2822",290,11,1,1,1,0,1,NA,5
"2823",290,13,1,1,1,0,0,NA,6
"2824",290,16,1,1,1,0,0,NA,7
"2825",290,5,1,1,1,0,1,NA,8
"2826",290,1,1,1,1,0,1,NA,9
"2827",290,8,1,1,1,0,0,NA,10
"2828",290,7,1,1,1,0,0,NA,11
"2829",290,2,1,1,1,0,0,NA,12
"2830",290,9,1,1,1,0,1,NA,13
"2831",290,14,1,1,1,0,0,NA,14
"2832",290,4,1,1,1,0,0,NA,15
"2833",288,13,1,1,1,0,0,NA,0
"2834",288,1,1,1,1,0,1,NA,1
"2835",288,7,1,1,1,25,0,NA,2
"2836",288,3,1,1,1,0,0,NA,3
"2837",288,10,1,1,1,0,1,NA,4
"2838",288,11,1,1,1,0,1,NA,5
"2839",288,5,1,1,1,0,1,NA,6
"2840",288,2,1,1,1,0,0,NA,7
"2841",288,8,1,1,1,0,0,NA,8
"2842",288,6,1,1,1,0,1,NA,9
"2843",288,4,1,1,1,0,0,NA,10
"2844",288,16,1,1,1,0,0,NA,11
"2845",288,14,1,1,1,0,0,NA,12
"2846",288,9,1,1,1,0,1,NA,13
"2847",288,12,1,1,1,0,1,NA,14
"2848",288,15,1,1,1,0,1,NA,15
"2849",285,11,1,1,1,0,1,NA,0
"2850",285,4,1,1,1,0,0,NA,1
"2851",285,3,1,1,1,0,0,NA,2
"2852",285,13,1,1,1,0,0,NA,3
"2853",285,10,1,1,1,0,1,NA,4
"2854",285,15,1,1,1,0,1,NA,5
"2855",285,8,1,1,1,0,0,NA,6
"2856",285,12,1,1,1,6,1,NA,7
"2857",285,1,1,1,1,0,1,NA,8
"2858",285,9,1,1,1,0,1,NA,9
"2859",285,5,1,1,1,17,1,NA,10
"2860",285,16,1,1,1,5,0,NA,11
"2861",285,6,1,1,1,0,1,NA,12
"2862",285,7,1,1,1,7,0,NA,13
"2863",285,14,1,1,1,0,0,NA,14
"2864",285,2,1,1,1,0,0,NA,15
"2865",280,13,1,1,1,0,0,NA,0
"2866",280,7,1,1,1,0,0,NA,1
"2867",280,3,1,1,1,0,0,NA,2
"2868",280,12,1,1,1,77,1,NA,3
"2869",280,14,1,1,1,0,0,NA,4
"2870",280,1,1,1,1,0,1,NA,5
"2871",280,9,1,1,1,0,1,NA,6
"2872",280,2,1,1,1,0,0,NA,7
"2873",280,4,1,1,1,0,0,NA,8
"2874",280,5,1,1,1,64,1,NA,9
"2875",280,11,1,1,1,0,1,NA,10
"2876",280,8,1,1,1,0,0,NA,11
"2877",280,10,1,1,1,0,1,NA,12
"2878",280,6,1,1,1,0,1,NA,13
"2879",280,15,1,1,1,0,1,NA,14
"2880",280,16,1,1,1,76,0,NA,15
"2881",279,6,1,1,1,0,1,NA,0
"2882",279,16,1,1,1,92,0,NA,1
"2883",279,3,1,1,1,0,0,NA,2
"2884",279,1,1,1,1,100,1,NA,3
"2885",279,14,1,1,1,0,0,NA,4
"2886",279,11,1,1,1,25,1,NA,5
"2887",279,4,1,1,1,42,0,NA,6
"2888",279,13,1,1,1,0,0,NA,7
"2889",279,7,1,1,1,13,0,NA,8
"2890",279,5,1,1,1,82,1,NA,9
"2891",279,2,1,1,1,0,0,NA,10
"2892",279,10,1,1,1,0,1,NA,11
"2893",279,8,1,1,1,0,0,NA,12
"2894",279,12,1,1,1,33,1,NA,13
"2895",279,9,1,1,1,0,1,NA,14
"2896",279,15,1,1,1,74,1,NA,15
"2897",277,2,1,1,1,0,0,NA,0
"2898",277,5,1,1,1,0,1,NA,1
"2899",277,8,1,1,1,0,0,NA,2
"2900",277,16,1,1,1,0,0,NA,3
"2901",277,14,1,1,1,0,0,NA,4
"2902",277,15,1,1,1,0,1,NA,5
"2903",277,3,1,1,1,0,0,NA,6
"2904",277,11,1,1,1,0,1,NA,7
"2905",277,7,1,1,1,0,0,NA,8
"2906",277,13,1,1,1,0,0,NA,9
"2907",277,9,1,1,1,0,1,NA,10
"2908",277,6,1,1,1,0,1,NA,11
"2909",277,1,1,1,1,0,1,NA,12
"2910",277,12,1,1,1,0,1,NA,13
"2911",277,10,1,1,1,0,1,NA,14
"2912",277,4,1,1,1,0,0,NA,15
"2913",276,11,1,1,1,0,1,NA,0
"2914",276,13,1,1,1,0,0,NA,1
"2915",276,4,1,1,1,0,0,NA,2
"2916",276,1,1,1,1,0,1,NA,3
"2917",276,15,1,1,1,0,1,NA,4
"2918",276,14,1,1,1,0,0,NA,5
"2919",276,8,1,1,1,0,0,NA,6
"2920",276,9,1,1,1,0,1,NA,7
"2921",276,16,1,1,1,0,0,NA,8
"2922",276,7,1,1,1,0,0,NA,9
"2923",276,10,1,1,1,0,1,NA,10
"2924",276,5,1,1,1,0,1,NA,11
"2925",276,12,1,1,1,0,1,NA,12
"2926",276,3,1,1,1,0,0,NA,13
"2927",276,6,1,1,1,0,1,NA,14
"2928",276,2,1,1,1,0,0,NA,15
"2929",275,3,1,1,1,0,0,NA,0
"2930",275,14,1,1,1,0,0,NA,1
"2931",275,6,1,1,1,0,1,NA,2
"2932",275,11,1,1,1,0,1,NA,3
"2933",275,1,1,1,1,0,1,NA,4
"2934",275,9,1,1,1,0,1,NA,5
"2935",275,10,1,1,1,0,1,NA,6
"2936",275,4,1,1,1,0,0,NA,7
"2937",275,5,1,1,1,11,1,NA,8
"2938",275,13,1,1,1,29,0,NA,9
"2939",275,12,1,1,1,16,1,NA,10
"2940",275,2,1,1,1,0,0,NA,11
"2941",275,15,1,1,1,0,1,NA,12
"2942",275,8,1,1,1,0,0,NA,13
"2943",275,7,1,1,1,41,0,NA,14
"2944",275,16,1,1,1,60,0,NA,15
"2945",274,6,1,1,1,0,1,NA,0
"2946",274,4,1,1,1,0,0,NA,1
"2947",274,5,1,1,1,0,1,NA,2
"2948",274,1,1,1,1,0,1,NA,3
"2949",274,15,1,1,1,0,1,NA,4
"2950",274,11,1,1,1,50,1,NA,5
"2951",274,10,1,1,1,0,1,NA,6
"2952",274,12,1,1,1,0,1,NA,7
"2953",274,8,1,1,1,0,0,NA,8
"2954",274,3,1,1,1,0,0,NA,9
"2955",274,9,1,1,1,0,1,NA,10
"2956",274,14,1,1,1,0,0,NA,11
"2957",274,7,1,1,1,0,0,NA,12
"2958",274,16,1,1,1,0,0,NA,13
"2959",274,2,1,1,1,0,0,NA,14
"2960",274,13,1,1,1,0,0,NA,15
"2961",273,2,1,1,1,0,0,NA,0
"2962",273,15,1,1,1,6,1,NA,1
"2963",273,6,1,1,1,0,1,NA,2
"2964",273,12,1,1,1,0,1,NA,3
"2965",273,14,1,1,1,0,0,NA,4
"2966",273,9,1,1,1,0,1,NA,5
"2967",273,7,1,1,1,0,0,NA,6
"2968",273,4,1,1,1,0,0,NA,7
"2969",273,5,1,1,1,43,1,NA,8
"2970",273,1,1,1,1,0,1,NA,9
"2971",273,8,1,1,1,0,0,NA,10
"2972",273,13,1,1,1,0,0,NA,11
"2973",273,11,1,1,1,0,1,NA,12
"2974",273,3,1,1,1,0,0,NA,13
"2975",273,16,1,1,1,0,0,NA,14
"2976",273,10,1,1,1,0,1,NA,15
"2977",269,10,1,1,1,0,1,NA,0
"2978",269,9,1,1,1,0,1,NA,1
"2979",269,4,1,1,1,0,0,NA,2
"2980",269,7,1,1,1,0,0,NA,3
"2981",269,5,1,1,1,25,1,NA,4
"2982",269,3,1,1,1,0,0,NA,5
"2983",269,13,1,1,1,0,0,NA,6
"2984",269,8,1,1,1,0,0,NA,7
"2985",269,16,1,1,1,0,0,NA,8
"2986",269,12,1,1,1,0,1,NA,9
"2987",269,1,1,1,1,0,1,NA,10
"2988",269,15,1,1,1,0,1,NA,11
"2989",269,2,1,1,1,0,0,NA,12
"2990",269,6,1,1,1,0,1,NA,13
"2991",269,11,1,1,1,15,1,NA,14
"2992",269,14,1,1,1,0,0,NA,15
"2993",268,11,1,1,1,0,1,NA,0
"2994",268,3,1,1,1,0,0,NA,1
"2995",268,10,1,1,1,0,1,NA,2
"2996",268,2,1,1,1,0,0,NA,3
"2997",268,6,1,1,1,0,1,NA,4
"2998",268,9,1,1,1,0,1,NA,5
"2999",268,13,1,1,1,40,0,NA,6
"3000",268,4,1,1,1,0,0,NA,7
"3001",268,5,1,1,1,39,1,NA,8
"3002",268,1,1,1,1,0,1,NA,9
"3003",268,12,1,1,1,0,1,NA,10
"3004",268,8,1,1,1,49,0,NA,11
"3005",268,7,1,1,1,27,0,NA,12
"3006",268,14,1,1,1,0,0,NA,13
"3007",268,16,1,1,1,0,0,NA,14
"3008",268,15,1,1,1,0,1,NA,15
"3009",267,13,1,1,1,0,0,NA,0
"3010",267,3,1,1,1,0,0,NA,1
"3011",267,15,1,1,1,74,1,NA,2
"3012",267,16,1,1,1,57,0,NA,3
"3013",267,4,1,1,1,0,0,NA,4
"3014",267,14,1,1,1,0,0,NA,5
"3015",267,2,1,1,1,0,0,NA,6
"3016",267,1,1,1,1,0,1,NA,7
"3017",267,5,1,1,1,55,1,NA,8
"3018",267,9,1,1,1,0,1,NA,9
"3019",267,12,1,1,1,30,1,NA,10
"3020",267,6,1,1,1,0,1,NA,11
"3021",267,10,1,1,1,0,1,NA,12
"3022",267,8,1,1,1,47,0,NA,13
"3023",267,11,1,1,1,0,1,NA,14
"3024",267,7,1,1,1,21,0,NA,15
"3025",263,6,1,1,1,0,1,NA,0
"3026",263,11,1,1,1,0,1,NA,1
"3027",263,10,1,1,1,0,1,NA,2
"3028",263,4,1,1,1,0,0,NA,3
"3029",263,15,1,1,1,0,1,NA,4
"3030",263,1,1,1,1,0,1,NA,5
"3031",263,7,1,1,1,0,0,NA,6
"3032",263,16,1,1,1,0,0,NA,7
"3033",263,2,1,1,1,0,0,NA,8
"3034",263,12,1,1,1,0,1,NA,9
"3035",263,13,1,1,1,0,0,NA,10
"3036",263,14,1,1,1,0,0,NA,11
"3037",263,8,1,1,1,0,0,NA,12
"3038",263,9,1,1,1,0,1,NA,13
"3039",263,3,1,1,1,0,0,NA,14
"3040",263,5,1,1,1,0,1,NA,15
"3041",260,1,1,1,1,0,1,NA,0
"3042",260,10,1,1,1,0,1,NA,1
"3043",260,11,1,1,1,12,1,NA,2
"3044",260,2,1,1,1,0,0,NA,3
"3045",260,13,1,1,1,0,0,NA,4
"3046",260,14,1,1,1,0,0,NA,5
"3047",260,3,1,1,1,0,0,NA,6
"3048",260,16,1,1,1,70,0,NA,7
"3049",260,8,1,1,1,0,0,NA,8
"3050",260,4,1,1,1,0,0,NA,9
"3051",260,15,1,1,1,5,1,NA,10
"3052",260,5,1,1,1,5,1,NA,11
"3053",260,9,1,1,1,0,1,NA,12
"3054",260,7,1,1,1,0,0,NA,13
"3055",260,12,1,1,1,0,1,NA,14
"3056",260,6,1,1,1,0,1,NA,15
"3057",259,8,1,1,1,5,0,NA,0
"3058",259,3,1,1,1,0,0,NA,1
"3059",259,10,1,1,1,4,1,NA,2
"3060",259,12,1,1,1,7,1,NA,3
"3061",259,11,1,1,1,4,1,NA,4
"3062",259,13,1,1,1,1,0,NA,5
"3063",259,7,1,1,1,2,0,NA,6
"3064",259,6,1,1,1,12,1,NA,7
"3065",259,2,1,1,1,3,0,NA,8
"3066",259,9,1,1,1,0,1,NA,9
"3067",259,5,1,1,1,14,1,NA,10
"3068",259,4,1,1,1,9,0,NA,11
"3069",259,15,1,1,1,50,1,NA,12
"3070",259,16,1,1,1,50,0,NA,13
"3071",259,1,1,1,1,14,1,NA,14
"3072",259,14,1,1,1,2,0,NA,15
"3073",256,12,1,1,1,0,1,NA,0
"3074",256,16,1,1,1,66,0,NA,1
"3075",256,1,1,1,1,77,1,NA,2
"3076",256,15,1,1,1,40,1,NA,3
"3077",256,7,1,1,1,16,0,NA,4
"3078",256,13,1,1,1,23,0,NA,5
"3079",256,4,1,1,1,18,0,NA,6
"3080",256,9,1,1,1,0,1,NA,7
"3081",256,11,1,1,1,64,1,NA,8
"3082",256,3,1,1,1,0,0,NA,9
"3083",256,10,1,1,1,0,1,NA,10
"3084",256,2,1,1,1,10,0,NA,11
"3085",256,6,1,1,1,17,1,NA,12
"3086",256,8,1,1,1,60,0,NA,13
"3087",256,14,1,1,1,30,0,NA,14
"3088",256,5,1,1,1,73,1,NA,15
"3089",253,9,1,1,1,0,1,NA,0
"3090",253,3,1,1,1,0,0,NA,1
"3091",253,11,1,1,1,0,1,NA,2
"3092",253,10,1,1,1,0,1,NA,3
"3093",253,8,1,1,1,0,0,NA,4
"3094",253,1,1,1,1,83,1,NA,5
"3095",253,4,1,1,1,0,0,NA,6
"3096",253,6,1,1,1,0,1,NA,7
"3097",253,7,1,1,1,19,0,NA,8
"3098",253,15,1,1,1,81,1,NA,9
"3099",253,12,1,1,1,0,1,NA,10
"3100",253,14,1,1,1,0,0,NA,11
"3101",253,5,1,1,1,0,1,NA,12
"3102",253,2,1,1,1,0,0,NA,13
"3103",253,13,1,1,1,0,0,NA,14
"3104",253,16,1,1,1,88,0,NA,15
"3105",251,6,1,1,1,26,1,NA,0
"3106",251,8,1,1,1,4,0,NA,1
"3107",251,1,1,1,1,0,1,NA,2
"3108",251,7,1,1,1,18,0,NA,3
"3109",251,16,1,1,1,1,0,NA,4
"3110",251,2,1,1,1,0,0,NA,5
"3111",251,14,1,1,1,0,0,NA,6
"3112",251,11,1,1,1,0,1,NA,7
"3113",251,4,1,1,1,0,0,NA,8
"3114",251,10,1,1,1,24,1,NA,9
"3115",251,5,1,1,1,18,1,NA,10
"3116",251,3,1,1,1,0,0,NA,11
"3117",251,9,1,1,1,0,1,NA,12
"3118",251,15,1,1,1,0,1,NA,13
"3119",251,13,1,1,1,0,0,NA,14
"3120",251,12,1,1,1,100,1,NA,15
"3121",250,16,1,1,1,0,0,NA,0
"3122",250,14,1,1,1,0,0,NA,1
"3123",250,4,1,1,1,0,0,NA,2
"3124",250,1,1,1,1,0,1,NA,3
"3125",250,12,1,1,1,0,1,NA,4
"3126",250,10,1,1,1,0,1,NA,5
"3127",250,7,1,1,1,0,0,NA,6
"3128",250,13,1,1,1,0,0,NA,7
"3129",250,6,1,1,1,0,1,NA,8
"3130",250,3,1,1,1,0,0,NA,9
"3131",250,5,1,1,1,0,1,NA,10
"3132",250,9,1,1,1,0,1,NA,11
"3133",250,11,1,1,1,0,1,NA,12
"3134",250,2,1,1,1,0,0,NA,13
"3135",250,8,1,1,1,0,0,NA,14
"3136",250,15,1,1,1,0,1,NA,15
"3137",248,14,1,1,1,0,0,NA,0
"3138",248,6,1,1,1,0,1,NA,1
"3139",248,7,1,1,1,0,0,NA,2
"3140",248,8,1,1,1,0,0,NA,3
"3141",248,16,1,1,1,0,0,NA,4
"3142",248,1,1,1,1,0,1,NA,5
"3143",248,15,1,1,1,0,1,NA,6
"3144",248,9,1,1,1,0,1,NA,7
"3145",248,2,1,1,1,0,0,NA,8
"3146",248,12,1,1,1,0,1,NA,9
"3147",248,10,1,1,1,0,1,NA,10
"3148",248,5,1,1,1,0,1,NA,11
"3149",248,13,1,1,1,0,0,NA,12
"3150",248,3,1,1,1,0,0,NA,13
"3151",248,11,1,1,1,0,1,NA,14
"3152",248,4,1,1,1,0,0,NA,15
"3153",245,3,1,1,1,0,0,NA,0
"3154",245,4,1,1,1,0,0,NA,1
"3155",245,8,1,1,1,0,0,NA,2
"3156",245,13,1,1,1,0,0,NA,3
"3157",245,16,1,1,1,0,0,NA,4
"3158",245,12,1,1,1,0,1,NA,5
"3159",245,15,1,1,1,0,1,NA,6
"3160",245,7,1,1,1,0,0,NA,7
"3161",245,2,1,1,1,0,0,NA,8
"3162",245,1,1,1,1,0,1,NA,9
"3163",245,14,1,1,1,0,0,NA,10
"3164",245,5,1,1,1,10,1,NA,11
"3165",245,6,1,1,1,0,1,NA,12
"3166",245,10,1,1,1,0,1,NA,13
"3167",245,9,1,1,1,0,1,NA,14
"3168",245,11,1,1,1,0,1,NA,15
"3169",243,12,1,1,1,50,1,NA,0
"3170",243,4,1,1,1,0,0,NA,1
"3171",243,1,1,1,1,0,1,NA,2
"3172",243,16,1,1,1,60,0,NA,3
"3173",243,11,1,1,1,10,1,NA,4
"3174",243,2,1,1,1,0,0,NA,5
"3175",243,10,1,1,1,0,1,NA,6
"3176",243,7,1,1,1,0,0,NA,7
"3177",243,3,1,1,1,0,0,NA,8
"3178",243,6,1,1,1,0,1,NA,9
"3179",243,14,1,1,1,0,0,NA,10
"3180",243,9,1,1,1,0,1,NA,11
"3181",243,8,1,1,1,0,0,NA,12
"3182",243,15,1,1,1,0,1,NA,13
"3183",243,5,1,1,1,0,1,NA,14
"3184",243,13,1,1,1,0,0,NA,15
"3185",241,3,1,1,1,0,0,NA,0
"3186",241,10,1,1,1,0,1,NA,1
"3187",241,12,1,1,1,9,1,NA,2
"3188",241,16,1,1,1,51,0,NA,3
"3189",241,5,1,1,1,51,1,NA,4
"3190",241,9,1,1,1,0,1,NA,5
"3191",241,7,1,1,1,2,0,NA,6
"3192",241,8,1,1,1,4,0,NA,7
"3193",241,15,1,1,1,0,1,NA,8
"3194",241,13,1,1,1,0,0,NA,9
"3195",241,1,1,1,1,0,1,NA,10
"3196",241,2,1,1,1,0,0,NA,11
"3197",241,11,1,1,1,0,1,NA,12
"3198",241,6,1,1,1,0,1,NA,13
"3199",241,4,1,1,1,0,0,NA,14
"3200",241,14,1,1,1,0,0,NA,15
"3201",240,2,1,1,1,0,0,NA,0
"3202",240,6,1,1,1,0,1,NA,1
"3203",240,15,1,1,1,0,1,NA,2
"3204",240,14,1,1,1,0,0,NA,3
"3205",240,8,1,1,1,0,0,NA,4
"3206",240,16,1,1,1,0,0,NA,5
"3207",240,11,1,1,1,0,1,NA,6
"3208",240,13,1,1,1,0,0,NA,7
"3209",240,4,1,1,1,0,0,NA,8
"3210",240,9,1,1,1,0,1,NA,9
"3211",240,5,1,1,1,0,1,NA,10
"3212",240,7,1,1,1,0,0,NA,11
"3213",240,10,1,1,1,0,1,NA,12
"3214",240,1,1,1,1,0,1,NA,13
"3215",240,12,1,1,1,0,1,NA,14
"3216",240,3,1,1,1,0,0,NA,15
"3217",239,8,1,1,1,37,0,NA,0
"3218",239,2,1,1,1,0,0,NA,1
"3219",239,14,1,1,1,9,0,NA,2
"3220",239,1,1,1,1,0,1,NA,3
"3221",239,9,1,1,1,0,1,NA,4
"3222",239,3,1,1,1,5,0,NA,5
"3223",239,11,1,1,1,20,1,NA,6
"3224",239,6,1,1,1,0,1,NA,7
"3225",239,7,1,1,1,26,0,NA,8
"3226",239,15,1,1,1,0,1,NA,9
"3227",239,13,1,1,1,0,0,NA,10
"3228",239,5,1,1,1,45,1,NA,11
"3229",239,10,1,1,1,0,1,NA,12
"3230",239,16,1,1,1,54,0,NA,13
"3231",239,4,1,1,1,1,0,NA,14
"3232",239,12,1,1,1,21,1,NA,15
"3233",236,4,1,1,1,0,0,NA,0
"3234",236,15,1,1,1,5,1,NA,1
"3235",236,6,1,1,1,0,1,NA,2
"3236",236,1,1,1,1,0,1,NA,3
"3237",236,3,1,1,1,0,0,NA,4
"3238",236,9,1,1,1,0,1,NA,5
"3239",236,2,1,1,1,0,0,NA,6
"3240",236,10,1,1,1,0,1,NA,7
"3241",236,5,1,1,1,74,1,NA,8
"3242",236,12,1,1,1,50,1,NA,9
"3243",236,14,1,1,1,0,0,NA,10
"3244",236,8,1,1,1,0,0,NA,11
"3245",236,7,1,1,1,25,0,NA,12
"3246",236,13,1,1,1,40,0,NA,13
"3247",236,11,1,1,1,0,1,NA,14
"3248",236,16,1,1,1,76,0,NA,15
"3249",233,16,1,1,1,98,0,NA,0
"3250",233,10,1,1,1,0,1,NA,1
"3251",233,5,1,1,1,10,1,NA,2
"3252",233,3,1,1,1,0,0,NA,3
"3253",233,2,1,1,1,0,0,NA,4
"3254",233,12,1,1,1,0,1,NA,5
"3255",233,1,1,1,1,0,1,NA,6
"3256",233,9,1,1,1,0,1,NA,7
"3257",233,11,1,1,1,0,1,NA,8
"3258",233,13,1,1,1,0,0,NA,9
"3259",233,6,1,1,1,0,1,NA,10
"3260",233,8,1,1,1,0,0,NA,11
"3261",233,15,1,1,1,50,1,NA,12
"3262",233,4,1,1,1,0,0,NA,13
"3263",233,14,1,1,1,0,0,NA,14
"3264",233,7,1,1,1,0,0,NA,15
"3265",232,16,1,1,1,54,0,NA,0
"3266",232,9,1,1,1,0,1,NA,1
"3267",232,1,1,1,1,0,1,NA,2
"3268",232,2,1,1,1,5,0,NA,3
"3269",232,15,1,1,1,0,1,NA,4
"3270",232,5,1,1,1,31,1,NA,5
"3271",232,10,1,1,1,6,1,NA,6
"3272",232,14,1,1,1,1,0,NA,7
"3273",232,11,1,1,1,29,1,NA,8
"3274",232,3,1,1,1,0,0,NA,9
"3275",232,13,1,1,1,4,0,NA,10
"3276",232,6,1,1,1,1,1,NA,11
"3277",232,4,1,1,1,0,0,NA,12
"3278",232,7,1,1,1,6,0,NA,13
"3279",232,8,1,1,1,4,0,NA,14
"3280",232,12,1,1,1,3,1,NA,15
"3281",231,7,1,1,1,0,0,NA,0
"3282",231,4,1,1,1,0,0,NA,1
"3283",231,6,1,1,1,0,1,NA,2
"3284",231,5,1,1,1,0,1,NA,3
"3285",231,1,1,1,1,0,1,NA,4
"3286",231,15,1,1,1,0,1,NA,5
"3287",231,9,1,1,1,0,1,NA,6
"3288",231,16,1,1,1,0,0,NA,7
"3289",231,2,1,1,1,0,0,NA,8
"3290",231,3,1,1,1,0,0,NA,9
"3291",231,14,1,1,1,0,0,NA,10
"3292",231,11,1,1,1,0,1,NA,11
"3293",231,13,1,1,1,0,0,NA,12
"3294",231,12,1,1,1,0,1,NA,13
"3295",231,8,1,1,1,0,0,NA,14
"3296",231,10,1,1,1,0,1,NA,15
"3297",228,12,1,1,1,0,1,NA,0
"3298",228,3,1,1,1,0,0,NA,1
"3299",228,2,1,1,1,0,0,NA,2
"3300",228,7,1,1,1,0,0,NA,3
"3301",228,1,1,1,1,0,1,NA,4
"3302",228,15,1,1,1,0,1,NA,5
"3303",228,8,1,1,1,0,0,NA,6
"3304",228,14,1,1,1,0,0,NA,7
"3305",228,4,1,1,1,0,0,NA,8
"3306",228,5,1,1,1,0,1,NA,9
"3307",228,13,1,1,1,0,0,NA,10
"3308",228,6,1,1,1,0,1,NA,11
"3309",228,10,1,1,1,0,1,NA,12
"3310",228,11,1,1,1,0,1,NA,13
"3311",228,16,1,1,1,0,0,NA,14
"3312",228,9,1,1,1,0,1,NA,15
"3313",223,4,1,1,1,7,0,NA,0
"3314",223,11,1,1,1,4,1,NA,1
"3315",223,12,1,1,1,62,1,NA,2
"3316",223,5,1,1,1,34,1,NA,3
"3317",223,2,1,1,1,12,0,NA,4
"3318",223,3,1,1,1,86,0,NA,5
"3319",223,9,1,1,1,13,1,NA,6
"3320",223,14,1,1,1,21,0,NA,7
"3321",223,16,1,1,1,24,0,NA,8
"3322",223,15,1,1,1,36,1,NA,9
"3323",223,7,1,1,1,38,0,NA,10
"3324",223,6,1,1,1,22,1,NA,11
"3325",223,13,1,1,1,24,0,NA,12
"3326",223,8,1,1,1,14,0,NA,13
"3327",223,1,1,1,1,58,1,NA,14
"3328",223,10,1,1,1,5,1,NA,15
"3329",217,9,1,1,1,0,1,NA,0
"3330",217,1,1,1,1,71,1,NA,1
"3331",217,7,1,1,1,11,0,NA,2
"3332",217,8,1,1,1,14,0,NA,3
"3333",217,12,1,1,1,100,1,NA,4
"3334",217,11,1,1,1,0,1,NA,5
"3335",217,5,1,1,1,36,1,NA,6
"3336",217,6,1,1,1,0,1,NA,7
"3337",217,2,1,1,1,0,0,NA,8
"3338",217,15,1,1,1,11,1,NA,9
"3339",217,14,1,1,1,0,0,NA,10
"3340",217,16,1,1,1,0,0,NA,11
"3341",217,10,1,1,1,0,1,NA,12
"3342",217,3,1,1,1,0,0,NA,13
"3343",217,13,1,1,1,0,0,NA,14
"3344",217,4,1,1,1,0,0,NA,15
"3345",216,12,1,1,1,97,1,NA,0
"3346",216,9,1,1,1,0,1,NA,1
"3347",216,2,1,1,1,0,0,NA,2
"3348",216,8,1,1,1,2,0,NA,3
"3349",216,13,1,1,1,0,0,NA,4
"3350",216,14,1,1,1,0,0,NA,5
"3351",216,15,1,1,1,88,1,NA,6
"3352",216,1,1,1,1,0,1,NA,7
"3353",216,6,1,1,1,61,1,NA,8
"3354",216,7,1,1,1,46,0,NA,9
"3355",216,3,1,1,1,0,0,NA,10
"3356",216,11,1,1,1,9,1,NA,11
"3357",216,10,1,1,1,0,1,NA,12
"3358",216,4,1,1,1,0,0,NA,13
"3359",216,16,1,1,1,0,0,NA,14
"3360",216,5,1,1,1,82,1,NA,15
"3361",212,16,1,1,1,100,0,NA,0
"3362",212,13,1,1,1,0,0,NA,1
"3363",212,7,1,1,1,50,0,NA,2
"3364",212,12,1,1,1,0,1,NA,3
"3365",212,2,1,1,1,0,0,NA,4
"3366",212,4,1,1,1,0,0,NA,5
"3367",212,6,1,1,1,0,1,NA,6
"3368",212,9,1,1,1,0,1,NA,7
"3369",212,10,1,1,1,0,1,NA,8
"3370",212,15,1,1,1,0,1,NA,9
"3371",212,8,1,1,1,0,0,NA,10
"3372",212,3,1,1,1,0,0,NA,11
"3373",212,14,1,1,1,0,0,NA,12
"3374",212,1,1,1,1,0,1,NA,13
"3375",212,11,1,1,1,50,1,NA,14
"3376",212,5,1,1,1,50,1,NA,15
"3377",210,4,1,1,1,14,0,NA,0
"3378",210,2,1,1,1,0,0,NA,1
"3379",210,11,1,1,1,0,1,NA,2
"3380",210,10,1,1,1,10,1,NA,3
"3381",210,16,1,1,1,63,0,NA,4
"3382",210,1,1,1,1,0,1,NA,5
"3383",210,9,1,1,1,0,1,NA,6
"3384",210,6,1,1,1,0,1,NA,7
"3385",210,14,1,1,1,0,0,NA,8
"3386",210,7,1,1,1,0,0,NA,9
"3387",210,13,1,1,1,0,0,NA,10
"3388",210,3,1,1,1,0,0,NA,11
"3389",210,8,1,1,1,5,0,NA,12
"3390",210,15,1,1,1,7,1,NA,13
"3391",210,5,1,1,1,28,1,NA,14
"3392",210,12,1,1,1,5,1,NA,15
"3393",208,4,1,1,1,0,0,NA,0
"3394",208,15,1,1,1,0,1,NA,1
"3395",208,11,1,1,1,80,1,NA,2
"3396",208,16,1,1,1,94,0,NA,3
"3397",208,10,1,1,1,0,1,NA,4
"3398",208,14,1,1,1,0,0,NA,5
"3399",208,3,1,1,1,0,0,NA,6
"3400",208,1,1,1,1,0,1,NA,7
"3401",208,2,1,1,1,0,0,NA,8
"3402",208,12,1,1,1,0,1,NA,9
"3403",208,9,1,1,1,0,1,NA,10
"3404",208,7,1,1,1,74,0,NA,11
"3405",208,8,1,1,1,0,0,NA,12
"3406",208,13,1,1,1,0,0,NA,13
"3407",208,5,1,1,1,30,1,NA,14
"3408",208,6,1,1,1,0,1,NA,15
"3409",200,16,1,1,1,17,0,NA,0
"3410",200,9,1,1,1,0,1,NA,1
"3411",200,6,1,1,1,0,1,NA,2
"3412",200,10,1,1,1,13,1,NA,3
"3413",200,7,1,1,1,0,0,NA,4
"3414",200,1,1,1,1,0,1,NA,5
"3415",200,5,1,1,1,0,1,NA,6
"3416",200,4,1,1,1,0,0,NA,7
"3417",200,15,1,1,1,0,1,NA,8
"3418",200,8,1,1,1,0,0,NA,9
"3419",200,2,1,1,1,0,0,NA,10
"3420",200,11,1,1,1,0,1,NA,11
"3421",200,14,1,1,1,0,0,NA,12
"3422",200,12,1,1,1,0,1,NA,13
"3423",200,13,1,1,1,0,0,NA,14
"3424",200,3,1,1,1,0,0,NA,15
"3425",195,1,1,1,1,0,1,NA,0
"3426",195,12,1,1,1,0,1,NA,1
"3427",195,15,1,1,1,0,1,NA,2
"3428",195,7,1,1,1,0,0,NA,3
"3429",195,13,1,1,1,0,0,NA,4
"3430",195,8,1,1,1,0,0,NA,5
"3431",195,9,1,1,1,0,1,NA,6
"3432",195,5,1,1,1,59,1,NA,7
"3433",195,6,1,1,1,8,1,NA,8
"3434",195,10,1,1,1,0,1,NA,9
"3435",195,3,1,1,1,0,0,NA,10
"3436",195,11,1,1,1,0,1,NA,11
"3437",195,2,1,1,1,0,0,NA,12
"3438",195,16,1,1,1,61,0,NA,13
"3439",195,4,1,1,1,0,0,NA,14
"3440",195,14,1,1,1,0,0,NA,15
"3441",194,16,1,1,1,17,0,NA,0
"3442",194,1,1,1,1,0,1,NA,1
"3443",194,9,1,1,1,0,1,NA,2
"3444",194,2,1,1,1,0,0,NA,3
"3445",194,14,1,1,1,0,0,NA,4
"3446",194,15,1,1,1,0,1,NA,5
"3447",194,13,1,1,1,0,0,NA,6
"3448",194,12,1,1,1,0,1,NA,7
"3449",194,6,1,1,1,0,1,NA,8
"3450",194,8,1,1,1,0,0,NA,9
"3451",194,11,1,1,1,0,1,NA,10
"3452",194,10,1,1,1,0,1,NA,11
"3453",194,3,1,1,1,0,0,NA,12
"3454",194,7,1,1,1,0,0,NA,13
"3455",194,5,1,1,1,0,1,NA,14
"3456",194,4,1,1,1,0,0,NA,15
"3457",193,9,1,1,1,0,1,NA,0
"3458",193,5,1,1,1,22,1,NA,1
"3459",193,7,1,1,1,0,0,NA,2
"3460",193,8,1,1,1,0,0,NA,3
"3461",193,2,1,1,1,7,0,NA,4
"3462",193,3,1,1,1,0,0,NA,5
"3463",193,6,1,1,1,0,1,NA,6
"3464",193,13,1,1,1,1,0,NA,7
"3465",193,15,1,1,1,58,1,NA,8
"3466",193,14,1,1,1,0,0,NA,9
"3467",193,1,1,1,1,0,1,NA,10
"3468",193,4,1,1,1,0,0,NA,11
"3469",193,12,1,1,1,0,1,NA,12
"3470",193,10,1,1,1,0,1,NA,13
"3471",193,11,1,1,1,0,1,NA,14
"3472",193,16,1,1,1,84,0,NA,15
"3473",189,14,1,1,1,0,0,NA,0
"3474",189,15,1,1,1,0,1,NA,1
"3475",189,8,1,1,1,0,0,NA,2
"3476",189,7,1,1,1,0,0,NA,3
"3477",189,12,1,1,1,0,1,NA,4
"3478",189,2,1,1,1,0,0,NA,5
"3479",189,13,1,1,1,0,0,NA,6
"3480",189,3,1,1,1,0,0,NA,7
"3481",189,9,1,1,1,0,1,NA,8
"3482",189,16,1,1,1,0,0,NA,9
