"","subject","statement_identifier","procedure_identifier","within_identifier","between_identifier","response","repeated","rt","trial"
"1",461,1,1,1,1,2,0,NA,NA
"2",461,2,1,1,1,1,0,NA,NA
"3",461,3,1,1,1,1,0,NA,NA
"4",461,4,1,1,1,1,0,NA,NA
"5",461,5,1,1,1,2,1,NA,NA
"6",461,6,1,1,1,5,1,NA,NA
"7",461,7,1,1,1,1,1,NA,NA
"8",461,8,1,1,1,1,1,NA,NA
"9",461,9,1,1,1,2,0,NA,NA
"10",461,10,1,1,1,2,0,NA,NA
"11",461,11,1,1,1,2,0,NA,NA
"12",461,12,1,1,1,4,0,NA,NA
"13",461,13,1,1,1,4,0,NA,NA
"14",461,14,1,1,1,2,0,NA,NA
"15",461,15,1,1,1,5,0,NA,NA
"16",461,16,1,1,1,2,0,NA,NA
"17",461,17,1,1,1,5,0,NA,NA
"18",461,18,1,1,1,2,0,NA,NA
"19",461,19,1,1,1,1,0,NA,NA
"20",461,20,1,1,1,2,0,NA,NA
"21",461,21,1,1,1,5,0,NA,NA
"22",461,22,1,1,1,1,0,NA,NA
"23",461,23,1,1,1,3,1,NA,NA
"24",461,24,1,1,1,1,1,NA,NA
"25",461,25,1,1,1,5,1,NA,NA
"26",461,26,1,1,1,2,1,NA,NA
"27",461,27,1,1,1,4,1,NA,NA
"28",461,28,1,1,1,2,1,NA,NA
"29",461,29,1,1,1,5,1,NA,NA
"30",461,30,1,1,1,1,1,NA,NA
"31",461,31,1,1,1,5,1,NA,NA
"32",461,32,1,1,1,5,1,NA,NA
"33",461,33,1,1,1,4,1,NA,NA
"34",461,34,1,1,1,2,1,NA,NA
"35",461,35,1,1,1,4,1,NA,NA
"36",461,36,1,1,1,3,1,NA,NA
"37",461,37,1,1,1,5,0,NA,NA
"38",461,38,1,1,1,2,0,NA,NA
"39",461,39,1,1,1,5,0,NA,NA
"40",461,40,1,1,1,2,0,NA,NA
"41",461,41,1,1,1,4,0,NA,NA
"42",461,42,1,1,1,4,0,NA,NA
"43",461,43,1,1,1,1,0,NA,NA
"44",461,44,1,1,1,2,0,NA,NA
"45",461,45,1,1,1,2,0,NA,NA
"46",461,46,1,1,1,1,0,NA,NA
"47",461,47,1,1,1,4,1,NA,NA
"48",461,48,1,1,1,2,1,NA,NA
"49",461,49,1,1,1,5,1,NA,NA
"50",461,50,1,1,1,2,1,NA,NA
"51",461,51,1,1,1,4,1,NA,NA
"52",461,52,1,1,1,2,1,NA,NA
"53",461,53,1,1,1,5,1,NA,NA
"54",461,54,1,1,1,2,1,NA,NA
"55",461,55,1,1,1,2,1,NA,NA
"56",461,56,1,1,1,2,1,NA,NA
"57",461,57,1,1,1,4,0,NA,NA
"58",461,58,1,1,1,2,0,NA,NA
"59",461,59,1,1,1,4,0,NA,NA
"60",461,60,1,1,1,4,0,NA,NA
"61",461,61,1,1,1,2,0,NA,NA
"62",461,62,1,1,1,2,0,NA,NA
"63",461,63,1,1,1,1,0,NA,NA
"64",461,64,1,1,1,2,0,NA,NA
"65",461,65,1,1,1,1,0,NA,NA
"66",461,66,1,1,1,5,0,NA,NA
"67",461,67,1,1,1,5,0,NA,NA
"68",461,68,1,1,1,4,1,NA,NA
"69",461,69,1,1,1,3,1,NA,NA
"70",461,70,1,1,1,5,1,NA,NA
"71",461,71,1,1,1,1,1,NA,NA
"72",461,72,1,1,1,2,1,NA,NA
"73",461,73,1,1,1,1,1,NA,NA
"74",461,74,1,1,1,5,1,NA,NA
"75",461,75,1,1,1,4,1,NA,NA
"76",461,76,1,1,1,2,1,NA,NA
"77",461,77,1,1,1,5,1,NA,NA
"78",461,78,1,1,1,1,0,NA,NA
"79",461,79,1,1,1,1,0,NA,NA
"80",461,80,1,1,1,2,0,NA,NA
"81",461,81,1,1,1,5,0,NA,NA
"82",461,82,1,1,1,5,0,NA,NA
"83",461,83,1,1,1,2,0,NA,NA
"84",461,84,1,1,1,2,0,NA,NA
"85",461,85,1,1,1,5,0,NA,NA
"86",461,86,1,1,1,1,0,NA,NA
"87",461,87,1,1,1,1,1,NA,NA
"88",461,88,1,1,1,2,1,NA,NA
"89",461,89,1,1,1,3,1,NA,NA
"90",461,90,1,1,1,2,1,NA,NA
"91",461,91,1,1,1,2,1,NA,NA
"92",461,92,1,1,1,5,1,NA,NA
"93",461,93,1,1,1,1,1,NA,NA
"94",461,94,1,1,1,5,1,NA,NA
"95",461,95,1,1,1,4,1,NA,NA
"96",461,96,1,1,1,5,1,NA,NA
"97",461,97,1,1,1,5,0,NA,NA
"98",461,98,1,1,1,2,0,NA,NA
"99",461,99,1,1,1,5,0,NA,NA
"100",461,100,1,1,1,4,0,NA,NA
"101",461,101,1,1,1,1,0,NA,NA
"102",461,102,1,1,1,5,1,NA,NA
"103",461,103,1,1,1,5,1,NA,NA
"104",461,104,1,1,1,4,1,NA,NA
"105",461,105,1,1,1,1,1,NA,NA
"106",459,1,1,1,1,1,0,NA,NA
"107",459,2,1,1,1,2,0,NA,NA
"108",459,3,1,1,1,1,0,NA,NA
"109",459,4,1,1,1,1,0,NA,NA
"110",459,5,1,1,1,2,1,NA,NA
"111",459,6,1,1,1,2,1,NA,NA
"112",459,7,1,1,1,1,1,NA,NA
"113",459,8,1,1,1,4,1,NA,NA
"114",459,9,1,1,1,1,0,NA,NA
"115",459,10,1,1,1,1,0,NA,NA
"116",459,11,1,1,1,1,0,NA,NA
"117",459,12,1,1,1,1,0,NA,NA
"118",459,13,1,1,1,3,0,NA,NA
"119",459,14,1,1,1,5,0,NA,NA
"120",459,15,1,1,1,1,0,NA,NA
"121",459,16,1,1,1,3,0,NA,NA
"122",459,17,1,1,1,2,0,NA,NA
"123",459,18,1,1,1,1,0,NA,NA
"124",459,19,1,1,1,3,0,NA,NA
"125",459,20,1,1,1,1,0,NA,NA
"126",459,21,1,1,1,2,0,NA,NA
"127",459,22,1,1,1,1,0,NA,NA
"128",459,23,1,1,1,1,1,NA,NA
"129",459,24,1,1,1,1,1,NA,NA
"130",459,25,1,1,1,2,1,NA,NA
"131",459,26,1,1,1,5,1,NA,NA
"132",459,27,1,1,1,1,1,NA,NA
"133",459,28,1,1,1,1,1,NA,NA
"134",459,29,1,1,1,3,1,NA,NA
"135",459,30,1,1,1,3,1,NA,NA
"136",459,31,1,1,1,5,1,NA,NA
"137",459,32,1,1,1,3,1,NA,NA
"138",459,33,1,1,1,5,1,NA,NA
"139",459,34,1,1,1,1,1,NA,NA
"140",459,35,1,1,1,1,1,NA,NA
"141",459,36,1,1,1,2,1,NA,NA
"142",459,37,1,1,1,2,0,NA,NA
"143",459,38,1,1,1,2,0,NA,NA
"144",459,39,1,1,1,1,0,NA,NA
"145",459,40,1,1,1,1,0,NA,NA
"146",459,41,1,1,1,1,0,NA,NA
"147",459,42,1,1,1,1,0,NA,NA
"148",459,43,1,1,1,2,0,NA,NA
"149",459,44,1,1,1,1,0,NA,NA
"150",459,45,1,1,1,1,0,NA,NA
"151",459,46,1,1,1,1,0,NA,NA
"152",459,47,1,1,1,1,1,NA,NA
"153",459,48,1,1,1,2,1,NA,NA
"154",459,49,1,1,1,3,1,NA,NA
"155",459,50,1,1,1,1,1,NA,NA
"156",459,51,1,1,1,1,1,NA,NA
"157",459,52,1,1,1,2,1,NA,NA
"158",459,53,1,1,1,2,1,NA,NA
"159",459,54,1,1,1,1,1,NA,NA
"160",459,55,1,1,1,1,1,NA,NA
"161",459,56,1,1,1,1,1,NA,NA
"162",459,57,1,1,1,1,0,NA,NA
"163",459,58,1,1,1,1,0,NA,NA
"164",459,59,1,1,1,1,0,NA,NA
"165",459,60,1,1,1,1,0,NA,NA
"166",459,61,1,1,1,2,0,NA,NA
"167",459,62,1,1,1,2,0,NA,NA
"168",459,63,1,1,1,1,0,NA,NA
"169",459,64,1,1,1,1,0,NA,NA
"170",459,65,1,1,1,4,0,NA,NA
"171",459,66,1,1,1,6,0,NA,NA
"172",459,67,1,1,1,2,0,NA,NA
"173",459,68,1,1,1,4,1,NA,NA
"174",459,69,1,1,1,3,1,NA,NA
"175",459,70,1,1,1,3,1,NA,NA
"176",459,71,1,1,1,1,1,NA,NA
"177",459,72,1,1,1,1,1,NA,NA
"178",459,73,1,1,1,1,1,NA,NA
"179",459,74,1,1,1,2,1,NA,NA
"180",459,75,1,1,1,1,1,NA,NA
"181",459,76,1,1,1,4,1,NA,NA
"182",459,77,1,1,1,4,1,NA,NA
"183",459,78,1,1,1,4,0,NA,NA
"184",459,79,1,1,1,1,0,NA,NA
"185",459,80,1,1,1,1,0,NA,NA
"186",459,81,1,1,1,2,0,NA,NA
"187",459,82,1,1,1,1,0,NA,NA
"188",459,83,1,1,1,3,0,NA,NA
"189",459,84,1,1,1,2,0,NA,NA
"190",459,85,1,1,1,2,0,NA,NA
"191",459,86,1,1,1,1,0,NA,NA
"192",459,87,1,1,1,1,1,NA,NA
"193",459,88,1,1,1,4,1,NA,NA
"194",459,89,1,1,1,2,1,NA,NA
"195",459,90,1,1,1,3,1,NA,NA
"196",459,91,1,1,1,3,1,NA,NA
"197",459,92,1,1,1,2,1,NA,NA
"198",459,93,1,1,1,1,1,NA,NA
"199",459,94,1,1,1,1,1,NA,NA
"200",459,95,1,1,1,2,1,NA,NA
"201",459,96,1,1,1,1,1,NA,NA
"202",459,97,1,1,1,3,0,NA,NA
"203",459,98,1,1,1,1,0,NA,NA
"204",459,99,1,1,1,3,0,NA,NA
"205",459,100,1,1,1,1,0,NA,NA
"206",459,101,1,1,1,2,0,NA,NA
"207",459,102,1,1,1,3,1,NA,NA
"208",459,103,1,1,1,4,1,NA,NA
"209",459,104,1,1,1,1,1,NA,NA
"210",459,105,1,1,1,3,1,NA,NA
"211",457,1,1,1,1,2,0,NA,NA
"212",457,2,1,1,1,2,0,NA,NA
"213",457,3,1,1,1,1,0,NA,NA
"214",457,4,1,1,1,4,0,NA,NA
"215",457,5,1,1,1,3,1,NA,NA
"216",457,6,1,1,1,4,1,NA,NA
"217",457,7,1,1,1,3,1,NA,NA
"218",457,8,1,1,1,4,1,NA,NA
"219",457,9,1,1,1,2,0,NA,NA
"220",457,10,1,1,1,2,0,NA,NA
"221",457,11,1,1,1,2,0,NA,NA
"222",457,12,1,1,1,2,0,NA,NA
"223",457,13,1,1,1,3,0,NA,NA
"224",457,14,1,1,1,2,0,NA,NA
"225",457,15,1,1,1,3,0,NA,NA
"226",457,16,1,1,1,3,0,NA,NA
"227",457,17,1,1,1,5,0,NA,NA
"228",457,18,1,1,1,5,0,NA,NA
"229",457,19,1,1,1,3,0,NA,NA
"230",457,20,1,1,1,2,0,NA,NA
"231",457,21,1,1,1,4,0,NA,NA
"232",457,22,1,1,1,4,0,NA,NA
"233",457,23,1,1,1,3,1,NA,NA
"234",457,24,1,1,1,5,1,NA,NA
"235",457,25,1,1,1,3,1,NA,NA
"236",457,26,1,1,1,3,1,NA,NA
"237",457,27,1,1,1,3,1,NA,NA
"238",457,28,1,1,1,4,1,NA,NA
"239",457,29,1,1,1,3,1,NA,NA
"240",457,30,1,1,1,5,1,NA,NA
"241",457,31,1,1,1,5,1,NA,NA
"242",457,32,1,1,1,3,1,NA,NA
"243",457,33,1,1,1,3,1,NA,NA
"244",457,34,1,1,1,3,1,NA,NA
"245",457,35,1,1,1,4,1,NA,NA
"246",457,36,1,1,1,5,1,NA,NA
"247",457,37,1,1,1,2,0,NA,NA
"248",457,38,1,1,1,3,0,NA,NA
"249",457,39,1,1,1,4,0,NA,NA
"250",457,40,1,1,1,2,0,NA,NA
"251",457,41,1,1,1,4,0,NA,NA
"252",457,42,1,1,1,2,0,NA,NA
"253",457,43,1,1,1,3,0,NA,NA
"254",457,44,1,1,1,2,0,NA,NA
"255",457,45,1,1,1,4,0,NA,NA
"256",457,46,1,1,1,2,0,NA,NA
"257",457,47,1,1,1,3,1,NA,NA
"258",457,48,1,1,1,3,1,NA,NA
"259",457,49,1,1,1,2,1,NA,NA
"260",457,50,1,1,1,2,1,NA,NA
"261",457,51,1,1,1,4,1,NA,NA
"262",457,52,1,1,1,4,1,NA,NA
"263",457,53,1,1,1,3,1,NA,NA
"264",457,54,1,1,1,3,1,NA,NA
"265",457,55,1,1,1,6,1,NA,NA
"266",457,56,1,1,1,2,1,NA,NA
"267",457,57,1,1,1,3,0,NA,NA
"268",457,58,1,1,1,5,0,NA,NA
"269",457,59,1,1,1,3,0,NA,NA
"270",457,60,1,1,1,3,0,NA,NA
"271",457,61,1,1,1,2,0,NA,NA
"272",457,62,1,1,1,5,0,NA,NA
"273",457,63,1,1,1,4,0,NA,NA
"274",457,64,1,1,1,3,0,NA,NA
"275",457,65,1,1,1,4,0,NA,NA
"276",457,66,1,1,1,5,0,NA,NA
"277",457,67,1,1,1,3,0,NA,NA
"278",457,68,1,1,1,4,1,NA,NA
"279",457,69,1,1,1,4,1,NA,NA
"280",457,70,1,1,1,3,1,NA,NA
"281",457,71,1,1,1,4,1,NA,NA
"282",457,72,1,1,1,4,1,NA,NA
"283",457,73,1,1,1,3,1,NA,NA
"284",457,74,1,1,1,4,1,NA,NA
"285",457,75,1,1,1,2,1,NA,NA
"286",457,76,1,1,1,5,1,NA,NA
"287",457,77,1,1,1,5,1,NA,NA
"288",457,78,1,1,1,5,0,NA,NA
"289",457,79,1,1,1,5,0,NA,NA
"290",457,80,1,1,1,3,0,NA,NA
"291",457,81,1,1,1,4,0,NA,NA
"292",457,82,1,1,1,5,0,NA,NA
"293",457,83,1,1,1,2,0,NA,NA
"294",457,84,1,1,1,5,0,NA,NA
"295",457,85,1,1,1,3,0,NA,NA
"296",457,86,1,1,1,3,0,NA,NA
"297",457,87,1,1,1,2,1,NA,NA
"298",457,88,1,1,1,4,1,NA,NA
"299",457,89,1,1,1,2,1,NA,NA
"300",457,90,1,1,1,4,1,NA,NA
"301",457,91,1,1,1,5,1,NA,NA
"302",457,92,1,1,1,3,1,NA,NA
"303",457,93,1,1,1,2,1,NA,NA
"304",457,94,1,1,1,4,1,NA,NA
"305",457,95,1,1,1,4,1,NA,NA
"306",457,96,1,1,1,3,1,NA,NA
"307",457,97,1,1,1,3,0,NA,NA
"308",457,98,1,1,1,5,0,NA,NA
"309",457,99,1,1,1,2,0,NA,NA
"310",457,100,1,1,1,3,0,NA,NA
"311",457,101,1,1,1,3,0,NA,NA
"312",457,102,1,1,1,3,1,NA,NA
"313",457,103,1,1,1,5,1,NA,NA
"314",457,104,1,1,1,2,1,NA,NA
"315",457,105,1,1,1,4,1,NA,NA
"316",455,1,1,1,1,1,0,NA,NA
"317",455,2,1,1,1,2,0,NA,NA
"318",455,3,1,1,1,1,0,NA,NA
"319",455,4,1,1,1,1,0,NA,NA
"320",455,5,1,1,1,1,1,NA,NA
"321",455,6,1,1,1,3,1,NA,NA
"322",455,7,1,1,1,2,1,NA,NA
"323",455,8,1,1,1,4,1,NA,NA
"324",455,9,1,1,1,1,0,NA,NA
"325",455,10,1,1,1,1,0,NA,NA
"326",455,11,1,1,1,1,0,NA,NA
"327",455,12,1,1,1,2,0,NA,NA
"328",455,13,1,1,1,2,0,NA,NA
"329",455,14,1,1,1,1,0,NA,NA
"330",455,15,1,1,1,1,0,NA,NA
"331",455,16,1,1,1,2,0,NA,NA
"332",455,17,1,1,1,3,0,NA,NA
"333",455,18,1,1,1,1,0,NA,NA
"334",455,19,1,1,1,3,0,NA,NA
"335",455,20,1,1,1,2,0,NA,NA
"336",455,21,1,1,1,1,0,NA,NA
"337",455,22,1,1,1,1,0,NA,NA
"338",455,23,1,1,1,2,1,NA,NA
"339",455,24,1,1,1,3,1,NA,NA
"340",455,25,1,1,1,2,1,NA,NA
"341",455,26,1,1,1,3,1,NA,NA
"342",455,27,1,1,1,1,1,NA,NA
"343",455,28,1,1,1,1,1,NA,NA
"344",455,29,1,1,1,2,1,NA,NA
"345",455,30,1,1,1,4,1,NA,NA
"346",455,31,1,1,1,4,1,NA,NA
"347",455,32,1,1,1,4,1,NA,NA
"348",455,33,1,1,1,2,1,NA,NA
"349",455,34,1,1,1,1,1,NA,NA
"350",455,35,1,1,1,1,1,NA,NA
"351",455,36,1,1,1,1,1,NA,NA
"352",455,37,1,1,1,1,0,NA,NA
"353",455,38,1,1,1,1,0,NA,NA
"354",455,39,1,1,1,1,0,NA,NA
"355",455,40,1,1,1,1,0,NA,NA
"356",455,41,1,1,1,4,0,NA,NA
"357",455,42,1,1,1,1,0,NA,NA
"358",455,43,1,1,1,2,0,NA,NA
"359",455,44,1,1,1,2,0,NA,NA
"360",455,45,1,1,1,4,0,NA,NA
"361",455,46,1,1,1,1,0,NA,NA
"362",455,47,1,1,1,2,1,NA,NA
"363",455,48,1,1,1,4,1,NA,NA
"364",455,49,1,1,1,2,1,NA,NA
"365",455,50,1,1,1,1,1,NA,NA
"366",455,51,1,1,1,1,1,NA,NA
"367",455,52,1,1,1,2,1,NA,NA
"368",455,53,1,1,1,2,1,NA,NA
"369",455,54,1,1,1,1,1,NA,NA
"370",455,55,1,1,1,2,1,NA,NA
"371",455,56,1,1,1,1,1,NA,NA
"372",455,57,1,1,1,4,0,NA,NA
"373",455,58,1,1,1,1,0,NA,NA
"374",455,59,1,1,1,1,0,NA,NA
"375",455,60,1,1,1,1,0,NA,NA
"376",455,61,1,1,1,1,0,NA,NA
"377",455,62,1,1,1,3,0,NA,NA
"378",455,63,1,1,1,2,0,NA,NA
"379",455,64,1,1,1,2,0,NA,NA
"380",455,65,1,1,1,3,0,NA,NA
"381",455,66,1,1,1,4,0,NA,NA
"382",455,67,1,1,1,2,0,NA,NA
"383",455,68,1,1,1,2,1,NA,NA
"384",455,69,1,1,1,3,1,NA,NA
"385",455,70,1,1,1,2,1,NA,NA
"386",455,71,1,1,1,1,1,NA,NA
"387",455,72,1,1,1,1,1,NA,NA
"388",455,73,1,1,1,1,1,NA,NA
"389",455,74,1,1,1,1,1,NA,NA
"390",455,75,1,1,1,4,1,NA,NA
"391",455,76,1,1,1,2,1,NA,NA
"392",455,77,1,1,1,5,1,NA,NA
"393",455,78,1,1,1,1,0,NA,NA
"394",455,79,1,1,1,3,0,NA,NA
"395",455,80,1,1,1,4,0,NA,NA
"396",455,81,1,1,1,4,0,NA,NA
"397",455,82,1,1,1,2,0,NA,NA
"398",455,83,1,1,1,2,0,NA,NA
"399",455,84,1,1,1,2,0,NA,NA
"400",455,85,1,1,1,4,0,NA,NA
"401",455,86,1,1,1,1,0,NA,NA
"402",455,87,1,1,1,4,1,NA,NA
"403",455,88,1,1,1,5,1,NA,NA
"404",455,89,1,1,1,1,1,NA,NA
"405",455,90,1,1,1,1,1,NA,NA
"406",455,91,1,1,1,1,1,NA,NA
"407",455,92,1,1,1,4,1,NA,NA
"408",455,93,1,1,1,1,1,NA,NA
"409",455,94,1,1,1,2,1,NA,NA
"410",455,95,1,1,1,2,1,NA,NA
"411",455,96,1,1,1,3,1,NA,NA
"412",455,97,1,1,1,1,0,NA,NA
"413",455,98,1,1,1,2,0,NA,NA
"414",455,99,1,1,1,1,0,NA,NA
"415",455,100,1,1,1,4,0,NA,NA
"416",455,101,1,1,1,3,0,NA,NA
"417",455,102,1,1,1,1,1,NA,NA
"418",455,103,1,1,1,5,1,NA,NA
"419",455,104,1,1,1,2,1,NA,NA
"420",455,105,1,1,1,2,1,NA,NA
"421",453,1,1,1,1,1,0,NA,NA
"422",453,2,1,1,1,1,0,NA,NA
"423",453,3,1,1,1,1,0,NA,NA
"424",453,4,1,1,1,2,0,NA,NA
"425",453,5,1,1,1,2,1,NA,NA
"426",453,6,1,1,1,4,1,NA,NA
"427",453,7,1,1,1,1,1,NA,NA
"428",453,8,1,1,1,4,1,NA,NA
"429",453,9,1,1,1,3,0,NA,NA
"430",453,10,1,1,1,1,0,NA,NA
"431",453,11,1,1,1,1,0,NA,NA
"432",453,12,1,1,1,1,0,NA,NA
"433",453,13,1,1,1,4,0,NA,NA
"434",453,14,1,1,1,2,0,NA,NA
"435",453,15,1,1,1,2,0,NA,NA
"436",453,16,1,1,1,4,0,NA,NA
"437",453,17,1,1,1,2,0,NA,NA
"438",453,18,1,1,1,1,0,NA,NA
"439",453,19,1,1,1,4,0,NA,NA
"440",453,20,1,1,1,1,0,NA,NA
"441",453,21,1,1,1,1,0,NA,NA
"442",453,22,1,1,1,3,0,NA,NA
"443",453,23,1,1,1,2,1,NA,NA
"444",453,24,1,1,1,3,1,NA,NA
"445",453,25,1,1,1,1,1,NA,NA
"446",453,26,1,1,1,1,1,NA,NA
"447",453,27,1,1,1,4,1,NA,NA
"448",453,28,1,1,1,4,1,NA,NA
"449",453,29,1,1,1,4,1,NA,NA
"450",453,30,1,1,1,1,1,NA,NA
"451",453,31,1,1,1,2,1,NA,NA
"452",453,32,1,1,1,4,1,NA,NA
"453",453,33,1,1,1,5,1,NA,NA
"454",453,34,1,1,1,1,1,NA,NA
"455",453,35,1,1,1,3,1,NA,NA
"456",453,36,1,1,1,2,1,NA,NA
"457",453,37,1,1,1,3,0,NA,NA
"458",453,38,1,1,1,2,0,NA,NA
"459",453,39,1,1,1,3,0,NA,NA
"460",453,40,1,1,1,2,0,NA,NA
"461",453,41,1,1,1,2,0,NA,NA
"462",453,42,1,1,1,1,0,NA,NA
"463",453,43,1,1,1,3,0,NA,NA
"464",453,44,1,1,1,1,0,NA,NA
"465",453,45,1,1,1,2,0,NA,NA
"466",453,46,1,1,1,1,0,NA,NA
"467",453,47,1,1,1,4,1,NA,NA
"468",453,48,1,1,1,2,1,NA,NA
"469",453,49,1,1,1,4,1,NA,NA
"470",453,50,1,1,1,4,1,NA,NA
"471",453,51,1,1,1,2,1,NA,NA
"472",453,52,1,1,1,3,1,NA,NA
"473",453,53,1,1,1,5,1,NA,NA
"474",453,54,1,1,1,2,1,NA,NA
"475",453,55,1,1,1,2,1,NA,NA
"476",453,56,1,1,1,1,1,NA,NA
"477",453,57,1,1,1,4,0,NA,NA
"478",453,58,1,1,1,3,0,NA,NA
"479",453,59,1,1,1,2,0,NA,NA
"480",453,60,1,1,1,3,0,NA,NA
"481",453,61,1,1,1,2,0,NA,NA
"482",453,62,1,1,1,3,0,NA,NA
"483",453,63,1,1,1,3,0,NA,NA
"484",453,64,1,1,1,2,0,NA,NA
"485",453,65,1,1,1,3,0,NA,NA
"486",453,66,1,1,1,5,0,NA,NA
"487",453,67,1,1,1,1,0,NA,NA
"488",453,68,1,1,1,4,1,NA,NA
"489",453,69,1,1,1,2,1,NA,NA
"490",453,70,1,1,1,3,1,NA,NA
"491",453,71,1,1,1,1,1,NA,NA
"492",453,72,1,1,1,2,1,NA,NA
"493",453,73,1,1,1,2,1,NA,NA
"494",453,74,1,1,1,1,1,NA,NA
"495",453,75,1,1,1,2,1,NA,NA
"496",453,76,1,1,1,5,1,NA,NA
"497",453,77,1,1,1,4,1,NA,NA
"498",453,78,1,1,1,5,0,NA,NA
"499",453,79,1,1,1,4,0,NA,NA
"500",453,80,1,1,1,2,0,NA,NA
"501",453,81,1,1,1,3,0,NA,NA
"502",453,82,1,1,1,3,0,NA,NA
"503",453,83,1,1,1,3,0,NA,NA
"504",453,84,1,1,1,3,0,NA,NA
"505",453,85,1,1,1,4,0,NA,NA
"506",453,86,1,1,1,2,0,NA,NA
"507",453,87,1,1,1,3,1,NA,NA
"508",453,88,1,1,1,6,1,NA,NA
"509",453,89,1,1,1,4,1,NA,NA
"510",453,90,1,1,1,2,1,NA,NA
"511",453,91,1,1,1,3,1,NA,NA
"512",453,92,1,1,1,4,1,NA,NA
"513",453,93,1,1,1,2,1,NA,NA
"514",453,94,1,1,1,2,1,NA,NA
"515",453,95,1,1,1,4,1,NA,NA
"516",453,96,1,1,1,3,1,NA,NA
"517",453,97,1,1,1,3,0,NA,NA
"518",453,98,1,1,1,4,0,NA,NA
"519",453,99,1,1,1,3,0,NA,NA
"520",453,100,1,1,1,2,0,NA,NA
"521",453,101,1,1,1,4,0,NA,NA
"522",453,102,1,1,1,4,1,NA,NA
"523",453,103,1,1,1,4,1,NA,NA
"524",453,104,1,1,1,1,1,NA,NA
"525",453,105,1,1,1,3,1,NA,NA
"526",448,1,1,1,1,1,0,NA,NA
"527",448,2,1,1,1,1,0,NA,NA
"528",448,3,1,1,1,1,0,NA,NA
"529",448,4,1,1,1,1,0,NA,NA
"530",448,5,1,1,1,2,1,NA,NA
"531",448,6,1,1,1,4,1,NA,NA
"532",448,7,1,1,1,4,1,NA,NA
"533",448,8,1,1,1,3,1,NA,NA
"534",448,9,1,1,1,4,0,NA,NA
"535",448,10,1,1,1,1,0,NA,NA
"536",448,11,1,1,1,1,0,NA,NA
"537",448,12,1,1,1,1,0,NA,NA
"538",448,13,1,1,1,4,0,NA,NA
"539",448,14,1,1,1,6,0,NA,NA
"540",448,15,1,1,1,1,0,NA,NA
"541",448,16,1,1,1,4,0,NA,NA
"542",448,17,1,1,1,5,0,NA,NA
"543",448,18,1,1,1,1,0,NA,NA
"544",448,19,1,1,1,2,0,NA,NA
"545",448,20,1,1,1,2,0,NA,NA
"546",448,21,1,1,1,1,0,NA,NA
"547",448,22,1,1,1,5,0,NA,NA
"548",448,23,1,1,1,4,1,NA,NA
"549",448,24,1,1,1,2,1,NA,NA
"550",448,25,1,1,1,1,1,NA,NA
"551",448,26,1,1,1,1,1,NA,NA
"552",448,27,1,1,1,2,1,NA,NA
"553",448,28,1,1,1,4,1,NA,NA
"554",448,29,1,1,1,4,1,NA,NA
"555",448,30,1,1,1,2,1,NA,NA
"556",448,31,1,1,1,5,1,NA,NA
"557",448,32,1,1,1,2,1,NA,NA
"558",448,33,1,1,1,4,1,NA,NA
"559",448,34,1,1,1,1,1,NA,NA
"560",448,35,1,1,1,1,1,NA,NA
"561",448,36,1,1,1,4,1,NA,NA
"562",448,37,1,1,1,3,0,NA,NA
"563",448,38,1,1,1,3,0,NA,NA
"564",448,39,1,1,1,5,0,NA,NA
"565",448,40,1,1,1,2,0,NA,NA
"566",448,41,1,1,1,4,0,NA,NA
"567",448,42,1,1,1,1,0,NA,NA
"568",448,43,1,1,1,3,0,NA,NA
"569",448,44,1,1,1,4,0,NA,NA
"570",448,45,1,1,1,2,0,NA,NA
"571",448,46,1,1,1,1,0,NA,NA
"572",448,47,1,1,1,4,1,NA,NA
"573",448,48,1,1,1,2,1,NA,NA
"574",448,49,1,1,1,1,1,NA,NA
"575",448,50,1,1,1,2,1,NA,NA
"576",448,51,1,1,1,4,1,NA,NA
"577",448,52,1,1,1,2,1,NA,NA
"578",448,53,1,1,1,5,1,NA,NA
"579",448,54,1,1,1,2,1,NA,NA
"580",448,55,1,1,1,5,1,NA,NA
"581",448,56,1,1,1,2,1,NA,NA
"582",448,57,1,1,1,3,0,NA,NA
"583",448,58,1,1,1,4,0,NA,NA
"584",448,59,1,1,1,1,0,NA,NA
"585",448,60,1,1,1,3,0,NA,NA
"586",448,61,1,1,1,1,0,NA,NA
"587",448,62,1,1,1,3,0,NA,NA
"588",448,63,1,1,1,4,0,NA,NA
"589",448,64,1,1,1,3,0,NA,NA
"590",448,65,1,1,1,3,0,NA,NA
"591",448,66,1,1,1,6,0,NA,NA
"592",448,67,1,1,1,2,0,NA,NA
"593",448,68,1,1,1,4,1,NA,NA
"594",448,69,1,1,1,4,1,NA,NA
"595",448,70,1,1,1,3,1,NA,NA
"596",448,71,1,1,1,5,1,NA,NA
"597",448,72,1,1,1,4,1,NA,NA
"598",448,73,1,1,1,3,1,NA,NA
"599",448,74,1,1,1,4,1,NA,NA
"600",448,75,1,1,1,2,1,NA,NA
"601",448,76,1,1,1,4,1,NA,NA
"602",448,77,1,1,1,4,1,NA,NA
"603",448,78,1,1,1,5,0,NA,NA
"604",448,79,1,1,1,2,0,NA,NA
"605",448,80,1,1,1,5,0,NA,NA
"606",448,81,1,1,1,5,0,NA,NA
"607",448,82,1,1,1,5,0,NA,NA
"608",448,83,1,1,1,3,0,NA,NA
"609",448,84,1,1,1,4,0,NA,NA
"610",448,85,1,1,1,5,0,NA,NA
"611",448,86,1,1,1,2,0,NA,NA
"612",448,87,1,1,1,3,1,NA,NA
"613",448,88,1,1,1,4,1,NA,NA
"614",448,89,1,1,1,3,1,NA,NA
"615",448,90,1,1,1,5,1,NA,NA
"616",448,91,1,1,1,3,1,NA,NA
"617",448,92,1,1,1,4,1,NA,NA
"618",448,93,1,1,1,4,1,NA,NA
"619",448,94,1,1,1,4,1,NA,NA
"620",448,95,1,1,1,2,1,NA,NA
"621",448,96,1,1,1,2,1,NA,NA
"622",448,97,1,1,1,4,0,NA,NA
"623",448,98,1,1,1,5,0,NA,NA
"624",448,99,1,1,1,4,0,NA,NA
"625",448,100,1,1,1,2,0,NA,NA
"626",448,101,1,1,1,4,0,NA,NA
"627",448,102,1,1,1,4,1,NA,NA
"628",448,103,1,1,1,6,1,NA,NA
"629",448,104,1,1,1,1,1,NA,NA
"630",448,105,1,1,1,2,1,NA,NA
"631",441,1,1,1,1,1,0,NA,NA
"632",441,2,1,1,1,5,0,NA,NA
"633",441,3,1,1,1,2,0,NA,NA
"634",441,4,1,1,1,5,0,NA,NA
"635",441,5,1,1,1,1,1,NA,NA
"636",441,6,1,1,1,5,1,NA,NA
"637",441,7,1,1,1,1,1,NA,NA
"638",441,8,1,1,1,5,1,NA,NA
"639",441,9,1,1,1,6,0,NA,NA
"640",441,10,1,1,1,3,0,NA,NA
"641",441,11,1,1,1,5,0,NA,NA
"642",441,12,1,1,1,5,0,NA,NA
"643",441,13,1,1,1,4,0,NA,NA
"644",441,14,1,1,1,5,0,NA,NA
"645",441,15,1,1,1,1,0,NA,NA
"646",441,16,1,1,1,5,0,NA,NA
"647",441,17,1,1,1,5,0,NA,NA
"648",441,18,1,1,1,2,0,NA,NA
"649",441,19,1,1,1,5,0,NA,NA
"650",441,20,1,1,1,5,0,NA,NA
"651",441,21,1,1,1,2,0,NA,NA
"652",441,22,1,1,1,5,0,NA,NA
"653",441,23,1,1,1,3,1,NA,NA
"654",441,24,1,1,1,3,1,NA,NA
"655",441,25,1,1,1,5,1,NA,NA
"656",441,26,1,1,1,2,1,NA,NA
"657",441,27,1,1,1,5,1,NA,NA
"658",441,28,1,1,1,3,1,NA,NA
"659",441,29,1,1,1,5,1,NA,NA
"660",441,30,1,1,1,5,1,NA,NA
"661",441,31,1,1,1,2,1,NA,NA
"662",441,32,1,1,1,1,1,NA,NA
"663",441,33,1,1,1,5,1,NA,NA
"664",441,34,1,1,1,2,1,NA,NA
"665",441,35,1,1,1,3,1,NA,NA
"666",441,36,1,1,1,2,1,NA,NA
"667",441,37,1,1,1,4,0,NA,NA
"668",441,38,1,1,1,4,0,NA,NA
"669",441,39,1,1,1,1,0,NA,NA
"670",441,40,1,1,1,2,0,NA,NA
"671",441,41,1,1,1,5,0,NA,NA
"672",441,42,1,1,1,1,0,NA,NA
"673",441,43,1,1,1,5,0,NA,NA
"674",441,44,1,1,1,2,0,NA,NA
"675",441,45,1,1,1,5,0,NA,NA
"676",441,46,1,1,1,2,0,NA,NA
"677",441,47,1,1,1,5,1,NA,NA
"678",441,48,1,1,1,4,1,NA,NA
"679",441,49,1,1,1,2,1,NA,NA
"680",441,50,1,1,1,5,1,NA,NA
"681",441,51,1,1,1,3,1,NA,NA
"682",441,52,1,1,1,2,1,NA,NA
"683",441,53,1,1,1,6,1,NA,NA
"684",441,54,1,1,1,5,1,NA,NA
"685",441,55,1,1,1,5,1,NA,NA
"686",441,56,1,1,1,5,1,NA,NA
"687",441,57,1,1,1,4,0,NA,NA
"688",441,58,1,1,1,1,0,NA,NA
"689",441,59,1,1,1,1,0,NA,NA
"690",441,60,1,1,1,4,0,NA,NA
"691",441,61,1,1,1,5,0,NA,NA
"692",441,62,1,1,1,2,0,NA,NA
"693",441,63,1,1,1,2,0,NA,NA
"694",441,64,1,1,1,2,0,NA,NA
"695",441,65,1,1,1,2,0,NA,NA
"696",441,66,1,1,1,6,0,NA,NA
"697",441,67,1,1,1,5,0,NA,NA
"698",441,68,1,1,1,2,1,NA,NA
"699",441,69,1,1,1,5,1,NA,NA
"700",441,70,1,1,1,5,1,NA,NA
"701",441,71,1,1,1,5,1,NA,NA
"702",441,72,1,1,1,5,1,NA,NA
"703",441,73,1,1,1,1,1,NA,NA
"704",441,74,1,1,1,5,1,NA,NA
"705",441,75,1,1,1,2,1,NA,NA
"706",441,76,1,1,1,4,1,NA,NA
"707",441,77,1,1,1,5,1,NA,NA
"708",441,78,1,1,1,2,0,NA,NA
"709",441,79,1,1,1,5,0,NA,NA
"710",441,80,1,1,1,6,0,NA,NA
"711",441,81,1,1,1,2,0,NA,NA
"712",441,82,1,1,1,5,0,NA,NA
"713",441,83,1,1,1,5,0,NA,NA
"714",441,84,1,1,1,3,0,NA,NA
"715",441,85,1,1,1,2,0,NA,NA
"716",441,86,1,1,1,5,0,NA,NA
"717",441,87,1,1,1,5,1,NA,NA
"718",441,88,1,1,1,5,1,NA,NA
"719",441,89,1,1,1,5,1,NA,NA
"720",441,90,1,1,1,5,1,NA,NA
"721",441,91,1,1,1,5,1,NA,NA
"722",441,92,1,1,1,6,1,NA,NA
"723",441,93,1,1,1,6,1,NA,NA
"724",441,94,1,1,1,5,1,NA,NA
"725",441,95,1,1,1,2,1,NA,NA
"726",441,96,1,1,1,2,1,NA,NA
"727",441,97,1,1,1,5,0,NA,NA
"728",441,98,1,1,1,5,0,NA,NA
"729",441,99,1,1,1,2,0,NA,NA
"730",441,100,1,1,1,2,0,NA,NA
"731",441,101,1,1,1,5,0,NA,NA
"732",441,102,1,1,1,2,1,NA,NA
"733",441,103,1,1,1,2,1,NA,NA
"734",441,104,1,1,1,5,1,NA,NA
"735",441,105,1,1,1,4,1,NA,NA
"736",440,1,1,1,1,1,0,NA,NA
"737",440,2,1,1,1,3,0,NA,NA
"738",440,3,1,1,1,1,0,NA,NA
"739",440,4,1,1,1,2,0,NA,NA
"740",440,5,1,1,1,1,1,NA,NA
"741",440,6,1,1,1,6,1,NA,NA
"742",440,7,1,1,1,5,1,NA,NA
"743",440,8,1,1,1,4,1,NA,NA
"744",440,9,1,1,1,2,0,NA,NA
"745",440,10,1,1,1,1,0,NA,NA
"746",440,11,1,1,1,1,0,NA,NA
"747",440,12,1,1,1,1,0,NA,NA
"748",440,13,1,1,1,5,0,NA,NA
"749",440,14,1,1,1,6,0,NA,NA
"750",440,15,1,1,1,1,0,NA,NA
"751",440,16,1,1,1,3,0,NA,NA
"752",440,17,1,1,1,2,0,NA,NA
"753",440,18,1,1,1,1,0,NA,NA
"754",440,19,1,1,1,5,0,NA,NA
"755",440,20,1,1,1,1,0,NA,NA
"756",440,21,1,1,1,5,0,NA,NA
"757",440,22,1,1,1,6,0,NA,NA
"758",440,23,1,1,1,1,1,NA,NA
"759",440,24,1,1,1,6,1,NA,NA
"760",440,25,1,1,1,1,1,NA,NA
"761",440,26,1,1,1,4,1,NA,NA
"762",440,27,1,1,1,1,1,NA,NA
"763",440,28,1,1,1,6,1,NA,NA
"764",440,29,1,1,1,5,1,NA,NA
"765",440,30,1,1,1,4,1,NA,NA
"766",440,31,1,1,1,6,1,NA,NA
"767",440,32,1,1,1,6,1,NA,NA
"768",440,33,1,1,1,6,1,NA,NA
"769",440,34,1,1,1,2,1,NA,NA
"770",440,35,1,1,1,1,1,NA,NA
"771",440,36,1,1,1,1,1,NA,NA
"772",440,37,1,1,1,6,0,NA,NA
"773",440,38,1,1,1,4,0,NA,NA
"774",440,39,1,1,1,1,0,NA,NA
"775",440,40,1,1,1,1,0,NA,NA
"776",440,41,1,1,1,4,0,NA,NA
"777",440,42,1,1,1,2,0,NA,NA
"778",440,43,1,1,1,5,0,NA,NA
"779",440,44,1,1,1,4,0,NA,NA
"780",440,45,1,1,1,6,0,NA,NA
"781",440,46,1,1,1,5,0,NA,NA
"782",440,47,1,1,1,5,1,NA,NA
"783",440,48,1,1,1,6,1,NA,NA
"784",440,49,1,1,1,5,1,NA,NA
"785",440,50,1,1,1,5,1,NA,NA
"786",440,51,1,1,1,2,1,NA,NA
"787",440,52,1,1,1,2,1,NA,NA
"788",440,53,1,1,1,6,1,NA,NA
"789",440,54,1,1,1,1,1,NA,NA
"790",440,55,1,1,1,3,1,NA,NA
"791",440,56,1,1,1,1,1,NA,NA
"792",440,57,1,1,1,6,0,NA,NA
"793",440,58,1,1,1,6,0,NA,NA
"794",440,59,1,1,1,2,0,NA,NA
"795",440,60,1,1,1,1,0,NA,NA
"796",440,61,1,1,1,5,0,NA,NA
"797",440,62,1,1,1,3,0,NA,NA
"798",440,63,1,1,1,4,0,NA,NA
"799",440,64,1,1,1,6,0,NA,NA
"800",440,65,1,1,1,5,0,NA,NA
"801",440,66,1,1,1,4,0,NA,NA
"802",440,67,1,1,1,5,0,NA,NA
"803",440,68,1,1,1,6,1,NA,NA
"804",440,69,1,1,1,2,1,NA,NA
"805",440,70,1,1,1,3,1,NA,NA
"806",440,71,1,1,1,1,1,NA,NA
"807",440,72,1,1,1,1,1,NA,NA
"808",440,73,1,1,1,1,1,NA,NA
"809",440,74,1,1,1,6,1,NA,NA
"810",440,75,1,1,1,6,1,NA,NA
"811",440,76,1,1,1,5,1,NA,NA
"812",440,77,1,1,1,2,1,NA,NA
"813",440,78,1,1,1,4,0,NA,NA
"814",440,79,1,1,1,1,0,NA,NA
"815",440,80,1,1,1,6,0,NA,NA
"816",440,81,1,1,1,5,0,NA,NA
"817",440,82,1,1,1,3,0,NA,NA
"818",440,83,1,1,1,6,0,NA,NA
"819",440,84,1,1,1,1,0,NA,NA
"820",440,85,1,1,1,5,0,NA,NA
"821",440,86,1,1,1,1,0,NA,NA
"822",440,87,1,1,1,4,1,NA,NA
"823",440,88,1,1,1,6,1,NA,NA
"824",440,89,1,1,1,5,1,NA,NA
"825",440,90,1,1,1,4,1,NA,NA
"826",440,91,1,1,1,2,1,NA,NA
"827",440,92,1,1,1,4,1,NA,NA
"828",440,93,1,1,1,6,1,NA,NA
"829",440,94,1,1,1,5,1,NA,NA
"830",440,95,1,1,1,3,1,NA,NA
"831",440,96,1,1,1,2,1,NA,NA
"832",440,97,1,1,1,1,0,NA,NA
"833",440,98,1,1,1,6,0,NA,NA
"834",440,99,1,1,1,3,0,NA,NA
"835",440,100,1,1,1,6,0,NA,NA
"836",440,101,1,1,1,6,0,NA,NA
"837",440,102,1,1,1,5,1,NA,NA
"838",440,103,1,1,1,6,1,NA,NA
"839",440,104,1,1,1,4,1,NA,NA
"840",440,105,1,1,1,5,1,NA,NA
"841",437,1,1,1,1,1,0,NA,NA
"842",437,2,1,1,1,1,0,NA,NA
"843",437,3,1,1,1,1,0,NA,NA
"844",437,4,1,1,1,1,0,NA,NA
"845",437,5,1,1,1,1,1,NA,NA
"846",437,6,1,1,1,5,1,NA,NA
"847",437,7,1,1,1,2,1,NA,NA
"848",437,8,1,1,1,4,1,NA,NA
"849",437,9,1,1,1,3,0,NA,NA
"850",437,10,1,1,1,1,0,NA,NA
"851",437,11,1,1,1,1,0,NA,NA
"852",437,12,1,1,1,4,0,NA,NA
"853",437,13,1,1,1,4,0,NA,NA
"854",437,14,1,1,1,2,0,NA,NA
"855",437,15,1,1,1,4,0,NA,NA
"856",437,16,1,1,1,4,0,NA,NA
"857",437,17,1,1,1,2,0,NA,NA
"858",437,18,1,1,1,1,0,NA,NA
"859",437,19,1,1,1,3,0,NA,NA
"860",437,20,1,1,1,1,0,NA,NA
"861",437,21,1,1,1,4,0,NA,NA
"862",437,22,1,1,1,3,0,NA,NA
"863",437,23,1,1,1,5,1,NA,NA
"864",437,24,1,1,1,1,1,NA,NA
"865",437,25,1,1,1,2,1,NA,NA
"866",437,26,1,1,1,2,1,NA,NA
"867",437,27,1,1,1,4,1,NA,NA
"868",437,28,1,1,1,2,1,NA,NA
"869",437,29,1,1,1,4,1,NA,NA
"870",437,30,1,1,1,1,1,NA,NA
"871",437,31,1,1,1,3,1,NA,NA
"872",437,32,1,1,1,5,1,NA,NA
"873",437,33,1,1,1,4,1,NA,NA
"874",437,34,1,1,1,1,1,NA,NA
"875",437,35,1,1,1,2,1,NA,NA
"876",437,36,1,1,1,6,1,NA,NA
"877",437,37,1,1,1,1,0,NA,NA
"878",437,38,1,1,1,3,0,NA,NA
"879",437,39,1,1,1,1,0,NA,NA
"880",437,40,1,1,1,2,0,NA,NA
"881",437,41,1,1,1,4,0,NA,NA
"882",437,42,1,1,1,1,0,NA,NA
"883",437,43,1,1,1,2,0,NA,NA
"884",437,44,1,1,1,1,0,NA,NA
"885",437,45,1,1,1,1,0,NA,NA
"886",437,46,1,1,1,1,0,NA,NA
"887",437,47,1,1,1,4,1,NA,NA
"888",437,48,1,1,1,4,1,NA,NA
"889",437,49,1,1,1,1,1,NA,NA
"890",437,50,1,1,1,5,1,NA,NA
"891",437,51,1,1,1,1,1,NA,NA
"892",437,52,1,1,1,1,1,NA,NA
"893",437,53,1,1,1,6,1,NA,NA
"894",437,54,1,1,1,3,1,NA,NA
"895",437,55,1,1,1,1,1,NA,NA
"896",437,56,1,1,1,1,1,NA,NA
"897",437,57,1,1,1,2,0,NA,NA
"898",437,58,1,1,1,5,0,NA,NA
"899",437,59,1,1,1,2,0,NA,NA
"900",437,60,1,1,1,4,0,NA,NA
"901",437,61,1,1,1,3,0,NA,NA
"902",437,62,1,1,1,1,0,NA,NA
"903",437,63,1,1,1,5,0,NA,NA
"904",437,64,1,1,1,5,0,NA,NA
"905",437,65,1,1,1,4,0,NA,NA
"906",437,66,1,1,1,4,0,NA,NA
"907",437,67,1,1,1,2,0,NA,NA
"908",437,68,1,1,1,4,1,NA,NA
"909",437,69,1,1,1,4,1,NA,NA
"910",437,70,1,1,1,4,1,NA,NA
"911",437,71,1,1,1,1,1,NA,NA
"912",437,72,1,1,1,1,1,NA,NA
"913",437,73,1,1,1,1,1,NA,NA
"914",437,74,1,1,1,5,1,NA,NA
"915",437,75,1,1,1,3,1,NA,NA
"916",437,76,1,1,1,2,1,NA,NA
"917",437,77,1,1,1,6,1,NA,NA
"918",437,78,1,1,1,4,0,NA,NA
"919",437,79,1,1,1,5,0,NA,NA
"920",437,80,1,1,1,4,0,NA,NA
"921",437,81,1,1,1,4,0,NA,NA
"922",437,82,1,1,1,4,0,NA,NA
"923",437,83,1,1,1,3,0,NA,NA
"924",437,84,1,1,1,3,0,NA,NA
"925",437,85,1,1,1,2,0,NA,NA
"926",437,86,1,1,1,2,0,NA,NA
"927",437,87,1,1,1,1,1,NA,NA
"928",437,88,1,1,1,5,1,NA,NA
"929",437,89,1,1,1,3,1,NA,NA
"930",437,90,1,1,1,5,1,NA,NA
"931",437,91,1,1,1,2,1,NA,NA
"932",437,92,1,1,1,5,1,NA,NA
"933",437,93,1,1,1,1,1,NA,NA
"934",437,94,1,1,1,1,1,NA,NA
"935",437,95,1,1,1,4,1,NA,NA
"936",437,96,1,1,1,1,1,NA,NA
"937",437,97,1,1,1,5,0,NA,NA
"938",437,98,1,1,1,3,0,NA,NA
"939",437,99,1,1,1,2,0,NA,NA
"940",437,100,1,1,1,3,0,NA,NA
"941",437,101,1,1,1,2,0,NA,NA
"942",437,102,1,1,1,3,1,NA,NA
"943",437,103,1,1,1,5,1,NA,NA
"944",437,104,1,1,1,3,1,NA,NA
"945",437,105,1,1,1,1,1,NA,NA
"946",436,1,1,1,1,5,0,NA,NA
"947",436,2,1,1,1,1,0,NA,NA
"948",436,3,1,1,1,1,0,NA,NA
"949",436,4,1,1,1,1,0,NA,NA
"950",436,5,1,1,1,5,1,NA,NA
"951",436,6,1,1,1,2,1,NA,NA
"952",436,7,1,1,1,1,1,NA,NA
"953",436,8,1,1,1,2,1,NA,NA
"954",436,9,1,1,1,5,0,NA,NA
"955",436,10,1,1,1,1,0,NA,NA
"956",436,11,1,1,1,1,0,NA,NA
"957",436,12,1,1,1,1,0,NA,NA
"958",436,13,1,1,1,4,0,NA,NA
"959",436,14,1,1,1,2,0,NA,NA
"960",436,15,1,1,1,1,0,NA,NA
"961",436,16,1,1,1,1,0,NA,NA
"962",436,17,1,1,1,1,0,NA,NA
"963",436,18,1,1,1,1,0,NA,NA
"964",436,19,1,1,1,1,0,NA,NA
"965",436,20,1,1,1,1,0,NA,NA
"966",436,21,1,1,1,1,0,NA,NA
"967",436,22,1,1,1,1,0,NA,NA
"968",436,23,1,1,1,1,1,NA,NA
"969",436,24,1,1,1,5,1,NA,NA
"970",436,25,1,1,1,1,1,NA,NA
"971",436,26,1,1,1,6,1,NA,NA
"972",436,27,1,1,1,2,1,NA,NA
"973",436,28,1,1,1,1,1,NA,NA
"974",436,29,1,1,1,2,1,NA,NA
"975",436,30,1,1,1,1,1,NA,NA
"976",436,31,1,1,1,1,1,NA,NA
"977",436,32,1,1,1,1,1,NA,NA
"978",436,33,1,1,1,5,1,NA,NA
"979",436,34,1,1,1,1,1,NA,NA
"980",436,35,1,1,1,1,1,NA,NA
"981",436,36,1,1,1,1,1,NA,NA
"982",436,37,1,1,1,1,0,NA,NA
"983",436,38,1,1,1,1,0,NA,NA
"984",436,39,1,1,1,1,0,NA,NA
"985",436,40,1,1,1,1,0,NA,NA
"986",436,41,1,1,1,3,0,NA,NA
"987",436,42,1,1,1,2,0,NA,NA
"988",436,43,1,1,1,2,0,NA,NA
"989",436,44,1,1,1,1,0,NA,NA
"990",436,45,1,1,1,1,0,NA,NA
"991",436,46,1,1,1,1,0,NA,NA
"992",436,47,1,1,1,2,1,NA,NA
"993",436,48,1,1,1,2,1,NA,NA
"994",436,49,1,1,1,1,1,NA,NA
"995",436,50,1,1,1,2,1,NA,NA
"996",436,51,1,1,1,5,1,NA,NA
"997",436,52,1,1,1,2,1,NA,NA
"998",436,53,1,1,1,2,1,NA,NA
"999",436,54,1,1,1,1,1,NA,NA
"1000",436,55,1,1,1,1,1,NA,NA
"1001",436,56,1,1,1,1,1,NA,NA
"1002",436,57,1,1,1,2,0,NA,NA
"1003",436,58,1,1,1,3,0,NA,NA
"1004",436,59,1,1,1,5,0,NA,NA
"1005",436,60,1,1,1,1,0,NA,NA
"1006",436,61,1,1,1,1,0,NA,NA
"1007",436,62,1,1,1,1,0,NA,NA
"1008",436,63,1,1,1,1,0,NA,NA
"1009",436,64,1,1,1,5,0,NA,NA
"1010",436,65,1,1,1,2,0,NA,NA
"1011",436,66,1,1,1,6,0,NA,NA
"1012",436,67,1,1,1,5,0,NA,NA
"1013",436,68,1,1,1,2,1,NA,NA
"1014",436,69,1,1,1,2,1,NA,NA
"1015",436,70,1,1,1,4,1,NA,NA
"1016",436,71,1,1,1,1,1,NA,NA
"1017",436,72,1,1,1,1,1,NA,NA
"1018",436,73,1,1,1,1,1,NA,NA
"1019",436,74,1,1,1,2,1,NA,NA
"1020",436,75,1,1,1,1,1,NA,NA
"1021",436,76,1,1,1,4,1,NA,NA
"1022",436,77,1,1,1,1,1,NA,NA
"1023",436,78,1,1,1,3,0,NA,NA
"1024",436,79,1,1,1,2,0,NA,NA
"1025",436,80,1,1,1,1,0,NA,NA
"1026",436,81,1,1,1,2,0,NA,NA
"1027",436,82,1,1,1,1,0,NA,NA
"1028",436,83,1,1,1,2,0,NA,NA
"1029",436,84,1,1,1,3,0,NA,NA
"1030",436,85,1,1,1,1,0,NA,NA
"1031",436,86,1,1,1,1,0,NA,NA
"1032",436,87,1,1,1,2,1,NA,NA
"1033",436,88,1,1,1,4,1,NA,NA
"1034",436,89,1,1,1,1,1,NA,NA
"1035",436,90,1,1,1,2,1,NA,NA
"1036",436,91,1,1,1,1,1,NA,NA
"1037",436,92,1,1,1,5,1,NA,NA
"1038",436,93,1,1,1,2,1,NA,NA
"1039",436,94,1,1,1,1,1,NA,NA
"1040",436,95,1,1,1,2,1,NA,NA
"1041",436,96,1,1,1,1,1,NA,NA
"1042",436,97,1,1,1,1,0,NA,NA
"1043",436,98,1,1,1,1,0,NA,NA
"1044",436,99,1,1,1,1,0,NA,NA
"1045",436,100,1,1,1,2,0,NA,NA
"1046",436,101,1,1,1,1,0,NA,NA
"1047",436,102,1,1,1,3,1,NA,NA
"1048",436,103,1,1,1,6,1,NA,NA
"1049",436,104,1,1,1,2,1,NA,NA
"1050",436,105,1,1,1,5,1,NA,NA
"1051",435,1,1,1,1,1,0,NA,NA
"1052",435,2,1,1,1,1,0,NA,NA
"1053",435,3,1,1,1,1,0,NA,NA
"1054",435,4,1,1,1,1,0,NA,NA
"1055",435,5,1,1,1,1,1,NA,NA
"1056",435,6,1,1,1,5,1,NA,NA
"1057",435,7,1,1,1,1,1,NA,NA
"1058",435,8,1,1,1,2,1,NA,NA
"1059",435,9,1,1,1,2,0,NA,NA
"1060",435,10,1,1,1,1,0,NA,NA
"1061",435,11,1,1,1,1,0,NA,NA
"1062",435,12,1,1,1,2,0,NA,NA
"1063",435,13,1,1,1,2,0,NA,NA
"1064",435,14,1,1,1,4,0,NA,NA
"1065",435,15,1,1,1,1,0,NA,NA
"1066",435,16,1,1,1,2,0,NA,NA
"1067",435,17,1,1,1,2,0,NA,NA
"1068",435,18,1,1,1,1,0,NA,NA
"1069",435,19,1,1,1,2,0,NA,NA
"1070",435,20,1,1,1,1,0,NA,NA
"1071",435,21,1,1,1,1,0,NA,NA
"1072",435,22,1,1,1,2,0,NA,NA
"1073",435,23,1,1,1,1,1,NA,NA
"1074",435,24,1,1,1,2,1,NA,NA
"1075",435,25,1,1,1,1,1,NA,NA
"1076",435,26,1,1,1,2,1,NA,NA
"1077",435,27,1,1,1,1,1,NA,NA
"1078",435,28,1,1,1,5,1,NA,NA
"1079",435,29,1,1,1,2,1,NA,NA
"1080",435,30,1,1,1,1,1,NA,NA
"1081",435,31,1,1,1,4,1,NA,NA
"1082",435,32,1,1,1,1,1,NA,NA
"1083",435,33,1,1,1,1,1,NA,NA
"1084",435,34,1,1,1,1,1,NA,NA
"1085",435,35,1,1,1,1,1,NA,NA
"1086",435,36,1,1,1,4,1,NA,NA
"1087",435,37,1,1,1,1,0,NA,NA
"1088",435,38,1,1,1,1,0,NA,NA
"1089",435,39,1,1,1,1,0,NA,NA
"1090",435,40,1,1,1,1,0,NA,NA
"1091",435,41,1,1,1,1,0,NA,NA
"1092",435,42,1,1,1,1,0,NA,NA
"1093",435,43,1,1,1,1,0,NA,NA
"1094",435,44,1,1,1,2,0,NA,NA
"1095",435,45,1,1,1,1,0,NA,NA
"1096",435,46,1,1,1,1,0,NA,NA
"1097",435,47,1,1,1,2,1,NA,NA
"1098",435,48,1,1,1,2,1,NA,NA
"1099",435,49,1,1,1,1,1,NA,NA
"1100",435,50,1,1,1,2,1,NA,NA
"1101",435,51,1,1,1,3,1,NA,NA
"1102",435,52,1,1,1,1,1,NA,NA
"1103",435,53,1,1,1,2,1,NA,NA
"1104",435,54,1,1,1,2,1,NA,NA
"1105",435,55,1,1,1,1,1,NA,NA
"1106",435,56,1,1,1,1,1,NA,NA
"1107",435,57,1,1,1,2,0,NA,NA
"1108",435,58,1,1,1,1,0,NA,NA
"1109",435,59,1,1,1,3,0,NA,NA
"1110",435,60,1,1,1,1,0,NA,NA
"1111",435,61,1,1,1,1,0,NA,NA
"1112",435,62,1,1,1,1,0,NA,NA
"1113",435,63,1,1,1,2,0,NA,NA
"1114",435,64,1,1,1,1,0,NA,NA
"1115",435,65,1,1,1,2,0,NA,NA
"1116",435,66,1,1,1,1,0,NA,NA
"1117",435,67,1,1,1,2,0,NA,NA
"1118",435,68,1,1,1,4,1,NA,NA
"1119",435,69,1,1,1,2,1,NA,NA
"1120",435,70,1,1,1,5,1,NA,NA
"1121",435,71,1,1,1,3,1,NA,NA
"1122",435,72,1,1,1,3,1,NA,NA
"1123",435,73,1,1,1,1,1,NA,NA
"1124",435,74,1,1,1,2,1,NA,NA
"1125",435,75,1,1,1,1,1,NA,NA
"1126",435,76,1,1,1,5,1,NA,NA
"1127",435,77,1,1,1,5,1,NA,NA
"1128",435,78,1,1,1,4,0,NA,NA
"1129",435,79,1,1,1,3,0,NA,NA
"1130",435,80,1,1,1,2,0,NA,NA
"1131",435,81,1,1,1,2,0,NA,NA
"1132",435,82,1,1,1,2,0,NA,NA
"1133",435,83,1,1,1,1,0,NA,NA
"1134",435,84,1,1,1,2,0,NA,NA
"1135",435,85,1,1,1,4,0,NA,NA
"1136",435,86,1,1,1,2,0,NA,NA
"1137",435,87,1,1,1,1,1,NA,NA
"1138",435,88,1,1,1,4,1,NA,NA
"1139",435,89,1,1,1,5,1,NA,NA
"1140",435,90,1,1,1,1,1,NA,NA
"1141",435,91,1,1,1,2,1,NA,NA
"1142",435,92,1,1,1,4,1,NA,NA
"1143",435,93,1,1,1,1,1,NA,NA
"1144",435,94,1,1,1,1,1,NA,NA
"1145",435,95,1,1,1,1,1,NA,NA
"1146",435,96,1,1,1,1,1,NA,NA
"1147",435,97,1,1,1,1,0,NA,NA
"1148",435,98,1,1,1,2,0,NA,NA
"1149",435,99,1,1,1,1,0,NA,NA
"1150",435,100,1,1,1,1,0,NA,NA
"1151",435,101,1,1,1,2,0,NA,NA
"1152",435,102,1,1,1,4,1,NA,NA
"1153",435,103,1,1,1,6,1,NA,NA
"1154",435,104,1,1,1,2,1,NA,NA
"1155",435,105,1,1,1,4,1,NA,NA
"1156",434,1,1,1,1,1,0,NA,NA
"1157",434,2,1,1,1,1,0,NA,NA
"1158",434,3,1,1,1,1,0,NA,NA
"1159",434,4,1,1,1,3,0,NA,NA
"1160",434,5,1,1,1,1,1,NA,NA
"1161",434,6,1,1,1,2,1,NA,NA
"1162",434,7,1,1,1,4,1,NA,NA
"1163",434,8,1,1,1,1,1,NA,NA
"1164",434,9,1,1,1,4,0,NA,NA
"1165",434,10,1,1,1,1,0,NA,NA
"1166",434,11,1,1,1,3,0,NA,NA
"1167",434,12,1,1,1,1,0,NA,NA
"1168",434,13,1,1,1,4,0,NA,NA
"1169",434,14,1,1,1,2,0,NA,NA
"1170",434,15,1,1,1,1,0,NA,NA
"1171",434,16,1,1,1,5,0,NA,NA
"1172",434,17,1,1,1,3,0,NA,NA
"1173",434,18,1,1,1,2,0,NA,NA
"1174",434,19,1,1,1,4,0,NA,NA
"1175",434,20,1,1,1,1,0,NA,NA
"1176",434,21,1,1,1,2,0,NA,NA
"1177",434,22,1,1,1,3,0,NA,NA
"1178",434,23,1,1,1,3,1,NA,NA
"1179",434,24,1,1,1,5,1,NA,NA
"1180",434,25,1,1,1,1,1,NA,NA
"1181",434,26,1,1,1,1,1,NA,NA
"1182",434,27,1,1,1,3,1,NA,NA
"1183",434,28,1,1,1,3,1,NA,NA
"1184",434,29,1,1,1,4,1,NA,NA
"1185",434,30,1,1,1,3,1,NA,NA
"1186",434,31,1,1,1,2,1,NA,NA
"1187",434,32,1,1,1,2,1,NA,NA
"1188",434,33,1,1,1,4,1,NA,NA
"1189",434,34,1,1,1,1,1,NA,NA
"1190",434,35,1,1,1,2,1,NA,NA
"1191",434,36,1,1,1,5,1,NA,NA
"1192",434,37,1,1,1,2,0,NA,NA
"1193",434,38,1,1,1,3,0,NA,NA
"1194",434,39,1,1,1,1,0,NA,NA
"1195",434,40,1,1,1,3,0,NA,NA
"1196",434,41,1,1,1,3,0,NA,NA
"1197",434,42,1,1,1,1,0,NA,NA
"1198",434,43,1,1,1,2,0,NA,NA
"1199",434,44,1,1,1,1,0,NA,NA
"1200",434,45,1,1,1,3,0,NA,NA
"1201",434,46,1,1,1,2,0,NA,NA
"1202",434,47,1,1,1,4,1,NA,NA
"1203",434,48,1,1,1,2,1,NA,NA
"1204",434,49,1,1,1,2,1,NA,NA
"1205",434,50,1,1,1,1,1,NA,NA
"1206",434,51,1,1,1,1,1,NA,NA
"1207",434,52,1,1,1,1,1,NA,NA
"1208",434,53,1,1,1,5,1,NA,NA
"1209",434,54,1,1,1,1,1,NA,NA
"1210",434,55,1,1,1,1,1,NA,NA
"1211",434,56,1,1,1,1,1,NA,NA
"1212",434,57,1,1,1,3,0,NA,NA
"1213",434,58,1,1,1,4,0,NA,NA
"1214",434,59,1,1,1,2,0,NA,NA
"1215",434,60,1,1,1,3,0,NA,NA
"1216",434,61,1,1,1,1,0,NA,NA
"1217",434,62,1,1,1,3,0,NA,NA
"1218",434,63,1,1,1,3,0,NA,NA
"1219",434,64,1,1,1,4,0,NA,NA
"1220",434,65,1,1,1,4,0,NA,NA
"1221",434,66,1,1,1,5,0,NA,NA
"1222",434,67,1,1,1,3,0,NA,NA
"1223",434,68,1,1,1,4,1,NA,NA
"1224",434,69,1,1,1,3,1,NA,NA
"1225",434,70,1,1,1,3,1,NA,NA
"1226",434,71,1,1,1,1,1,NA,NA
"1227",434,72,1,1,1,2,1,NA,NA
"1228",434,73,1,1,1,1,1,NA,NA
"1229",434,74,1,1,1,3,1,NA,NA
"1230",434,75,1,1,1,1,1,NA,NA
"1231",434,76,1,1,1,2,1,NA,NA
"1232",434,77,1,1,1,4,1,NA,NA
"1233",434,78,1,1,1,3,0,NA,NA
"1234",434,79,1,1,1,2,0,NA,NA
"1235",434,80,1,1,1,4,0,NA,NA
"1236",434,81,1,1,1,4,0,NA,NA
"1237",434,82,1,1,1,4,0,NA,NA
"1238",434,83,1,1,1,2,0,NA,NA
"1239",434,84,1,1,1,1,0,NA,NA
"1240",434,85,1,1,1,1,0,NA,NA
"1241",434,86,1,1,1,1,0,NA,NA
"1242",434,87,1,1,1,2,1,NA,NA
"1243",434,88,1,1,1,4,1,NA,NA
"1244",434,89,1,1,1,2,1,NA,NA
"1245",434,90,1,1,1,4,1,NA,NA
"1246",434,91,1,1,1,3,1,NA,NA
"1247",434,92,1,1,1,5,1,NA,NA
"1248",434,93,1,1,1,4,1,NA,NA
"1249",434,94,1,1,1,4,1,NA,NA
"1250",434,95,1,1,1,3,1,NA,NA
"1251",434,96,1,1,1,1,1,NA,NA
"1252",434,97,1,1,1,2,0,NA,NA
"1253",434,98,1,1,1,2,0,NA,NA
"1254",434,99,1,1,1,2,0,NA,NA
"1255",434,100,1,1,1,5,0,NA,NA
"1256",434,101,1,1,1,4,0,NA,NA
"1257",434,102,1,1,1,2,1,NA,NA
"1258",434,103,1,1,1,6,1,NA,NA
"1259",434,104,1,1,1,1,1,NA,NA
"1260",434,105,1,1,1,2,1,NA,NA
"1261",433,1,1,1,1,1,0,NA,NA
"1262",433,2,1,1,1,1,0,NA,NA
"1263",433,3,1,1,1,1,0,NA,NA
"1264",433,4,1,1,1,2,0,NA,NA
"1265",433,5,1,1,1,1,1,NA,NA
"1266",433,6,1,1,1,3,1,NA,NA
"1267",433,7,1,1,1,1,1,NA,NA
"1268",433,8,1,1,1,4,1,NA,NA
"1269",433,9,1,1,1,2,0,NA,NA
"1270",433,10,1,1,1,3,0,NA,NA
"1271",433,11,1,1,1,1,0,NA,NA
"1272",433,12,1,1,1,3,0,NA,NA
"1273",433,13,1,1,1,4,0,NA,NA
"1274",433,14,1,1,1,1,0,NA,NA
"1275",433,15,1,1,1,3,0,NA,NA
"1276",433,16,1,1,1,3,0,NA,NA
"1277",433,17,1,1,1,4,0,NA,NA
"1278",433,18,1,1,1,1,0,NA,NA
"1279",433,19,1,1,1,2,0,NA,NA
"1280",433,20,1,1,1,1,0,NA,NA
"1281",433,21,1,1,1,2,0,NA,NA
"1282",433,22,1,1,1,2,0,NA,NA
"1283",433,23,1,1,1,3,1,NA,NA
"1284",433,24,1,1,1,3,1,NA,NA
"1285",433,25,1,1,1,1,1,NA,NA
"1286",433,26,1,1,1,3,1,NA,NA
"1287",433,27,1,1,1,3,1,NA,NA
"1288",433,28,1,1,1,2,1,NA,NA
"1289",433,29,1,1,1,3,1,NA,NA
"1290",433,30,1,1,1,4,1,NA,NA
"1291",433,31,1,1,1,4,1,NA,NA
"1292",433,32,1,1,1,3,1,NA,NA
"1293",433,33,1,1,1,2,1,NA,NA
"1294",433,34,1,1,1,1,1,NA,NA
"1295",433,35,1,1,1,1,1,NA,NA
"1296",433,36,1,1,1,6,1,NA,NA
"1297",433,37,1,1,1,4,0,NA,NA
"1298",433,38,1,1,1,3,0,NA,NA
"1299",433,39,1,1,1,3,0,NA,NA
"1300",433,40,1,1,1,2,0,NA,NA
"1301",433,41,1,1,1,5,0,NA,NA
"1302",433,42,1,1,1,2,0,NA,NA
"1303",433,43,1,1,1,3,0,NA,NA
"1304",433,44,1,1,1,1,0,NA,NA
"1305",433,45,1,1,1,3,0,NA,NA
"1306",433,46,1,1,1,1,0,NA,NA
"1307",433,47,1,1,1,4,1,NA,NA
"1308",433,48,1,1,1,3,1,NA,NA
"1309",433,49,1,1,1,2,1,NA,NA
"1310",433,50,1,1,1,4,1,NA,NA
"1311",433,51,1,1,1,2,1,NA,NA
"1312",433,52,1,1,1,3,1,NA,NA
"1313",433,53,1,1,1,4,1,NA,NA
"1314",433,54,1,1,1,3,1,NA,NA
"1315",433,55,1,1,1,4,1,NA,NA
"1316",433,56,1,1,1,1,1,NA,NA
"1317",433,57,1,1,1,3,0,NA,NA
"1318",433,58,1,1,1,3,0,NA,NA
"1319",433,59,1,1,1,4,0,NA,NA
"1320",433,60,1,1,1,2,0,NA,NA
"1321",433,61,1,1,1,3,0,NA,NA
"1322",433,62,1,1,1,2,0,NA,NA
"1323",433,63,1,1,1,2,0,NA,NA
"1324",433,64,1,1,1,4,0,NA,NA
"1325",433,65,1,1,1,3,0,NA,NA
"1326",433,66,1,1,1,4,0,NA,NA
"1327",433,67,1,1,1,3,0,NA,NA
"1328",433,68,1,1,1,3,1,NA,NA
"1329",433,69,1,1,1,3,1,NA,NA
"1330",433,70,1,1,1,3,1,NA,NA
"1331",433,71,1,1,1,3,1,NA,NA
"1332",433,72,1,1,1,1,1,NA,NA
"1333",433,73,1,1,1,1,1,NA,NA
"1334",433,74,1,1,1,3,1,NA,NA
"1335",433,75,1,1,1,3,1,NA,NA
"1336",433,76,1,1,1,3,1,NA,NA
"1337",433,77,1,1,1,4,1,NA,NA
"1338",433,78,1,1,1,3,0,NA,NA
"1339",433,79,1,1,1,3,0,NA,NA
"1340",433,80,1,1,1,2,0,NA,NA
"1341",433,81,1,1,1,4,0,NA,NA
"1342",433,82,1,1,1,2,0,NA,NA
"1343",433,83,1,1,1,3,0,NA,NA
"1344",433,84,1,1,1,3,0,NA,NA
"1345",433,85,1,1,1,3,0,NA,NA
"1346",433,86,1,1,1,3,0,NA,NA
"1347",433,87,1,1,1,3,1,NA,NA
"1348",433,88,1,1,1,5,1,NA,NA
"1349",433,89,1,1,1,2,1,NA,NA
"1350",433,90,1,1,1,4,1,NA,NA
"1351",433,91,1,1,1,3,1,NA,NA
"1352",433,92,1,1,1,4,1,NA,NA
"1353",433,93,1,1,1,3,1,NA,NA
"1354",433,94,1,1,1,4,1,NA,NA
"1355",433,95,1,1,1,3,1,NA,NA
"1356",433,96,1,1,1,3,1,NA,NA
"1357",433,97,1,1,1,1,0,NA,NA
"1358",433,98,1,1,1,3,0,NA,NA
"1359",433,99,1,1,1,3,0,NA,NA
"1360",433,100,1,1,1,3,0,NA,NA
"1361",433,101,1,1,1,3,0,NA,NA
"1362",433,102,1,1,1,3,1,NA,NA
"1363",433,103,1,1,1,4,1,NA,NA
"1364",433,104,1,1,1,1,1,NA,NA
"1365",433,105,1,1,1,3,1,NA,NA
"1366",432,1,1,1,1,1,0,NA,NA
"1367",432,2,1,1,1,1,0,NA,NA
"1368",432,3,1,1,1,1,0,NA,NA
"1369",432,4,1,1,1,4,0,NA,NA
"1370",432,5,1,1,1,2,1,NA,NA
"1371",432,6,1,1,1,4,1,NA,NA
"1372",432,7,1,1,1,3,1,NA,NA
"1373",432,8,1,1,1,5,1,NA,NA
"1374",432,9,1,1,1,2,0,NA,NA
"1375",432,10,1,1,1,2,0,NA,NA
"1376",432,11,1,1,1,3,0,NA,NA
"1377",432,12,1,1,1,3,0,NA,NA
"1378",432,13,1,1,1,4,0,NA,NA
"1379",432,14,1,1,1,2,0,NA,NA
"1380",432,15,1,1,1,4,0,NA,NA
"1381",432,16,1,1,1,3,0,NA,NA
"1382",432,17,1,1,1,3,0,NA,NA
"1383",432,18,1,1,1,2,0,NA,NA
"1384",432,19,1,1,1,3,0,NA,NA
"1385",432,20,1,1,1,4,0,NA,NA
"1386",432,21,1,1,1,3,0,NA,NA
"1387",432,22,1,1,1,2,0,NA,NA
"1388",432,23,1,1,1,3,1,NA,NA
"1389",432,24,1,1,1,4,1,NA,NA
"1390",432,25,1,1,1,2,1,NA,NA
"1391",432,26,1,1,1,3,1,NA,NA
"1392",432,27,1,1,1,3,1,NA,NA
"1393",432,28,1,1,1,4,1,NA,NA
"1394",432,29,1,1,1,3,1,NA,NA
"1395",432,30,1,1,1,2,1,NA,NA
"1396",432,31,1,1,1,4,1,NA,NA
"1397",432,32,1,1,1,3,1,NA,NA
"1398",432,33,1,1,1,3,1,NA,NA
"1399",432,34,1,1,1,2,1,NA,NA
"1400",432,35,1,1,1,3,1,NA,NA
"1401",432,36,1,1,1,1,1,NA,NA
"1402",432,37,1,1,1,3,0,NA,NA
"1403",432,38,1,1,1,4,0,NA,NA
"1404",432,39,1,1,1,2,0,NA,NA
"1405",432,40,1,1,1,1,0,NA,NA
"1406",432,41,1,1,1,3,0,NA,NA
"1407",432,42,1,1,1,2,0,NA,NA
"1408",432,43,1,1,1,2,0,NA,NA
"1409",432,44,1,1,1,3,0,NA,NA
"1410",432,45,1,1,1,4,0,NA,NA
"1411",432,46,1,1,1,1,0,NA,NA
"1412",432,47,1,1,1,3,1,NA,NA
"1413",432,48,1,1,1,3,1,NA,NA
"1414",432,49,1,1,1,2,1,NA,NA
"1415",432,50,1,1,1,4,1,NA,NA
"1416",432,51,1,1,1,2,1,NA,NA
"1417",432,52,1,1,1,1,1,NA,NA
"1418",432,53,1,1,1,2,1,NA,NA
"1419",432,54,1,1,1,1,1,NA,NA
"1420",432,55,1,1,1,2,1,NA,NA
"1421",432,56,1,1,1,1,1,NA,NA
"1422",432,57,1,1,1,3,0,NA,NA
"1423",432,58,1,1,1,4,0,NA,NA
"1424",432,59,1,1,1,2,0,NA,NA
"1425",432,60,1,1,1,4,0,NA,NA
"1426",432,61,1,1,1,2,0,NA,NA
"1427",432,62,1,1,1,2,0,NA,NA
"1428",432,63,1,1,1,2,0,NA,NA
"1429",432,64,1,1,1,2,0,NA,NA
"1430",432,65,1,1,1,3,0,NA,NA
"1431",432,66,1,1,1,3,0,NA,NA
"1432",432,67,1,1,1,4,0,NA,NA
"1433",432,68,1,1,1,3,1,NA,NA
"1434",432,69,1,1,1,3,1,NA,NA
"1435",432,70,1,1,1,3,1,NA,NA
"1436",432,71,1,1,1,4,1,NA,NA
"1437",432,72,1,1,1,3,1,NA,NA
"1438",432,73,1,1,1,2,1,NA,NA
"1439",432,74,1,1,1,3,1,NA,NA
"1440",432,75,1,1,1,4,1,NA,NA
"1441",432,76,1,1,1,4,1,NA,NA
"1442",432,77,1,1,1,3,1,NA,NA
"1443",432,78,1,1,1,3,0,NA,NA
"1444",432,79,1,1,1,3,0,NA,NA
"1445",432,80,1,1,1,3,0,NA,NA
"1446",432,81,1,1,1,3,0,NA,NA
"1447",432,82,1,1,1,2,0,NA,NA
"1448",432,83,1,1,1,5,0,NA,NA
"1449",432,84,1,1,1,4,0,NA,NA
"1450",432,85,1,1,1,2,0,NA,NA
"1451",432,86,1,1,1,2,0,NA,NA
"1452",432,87,1,1,1,4,1,NA,NA
"1453",432,88,1,1,1,4,1,NA,NA
"1454",432,89,1,1,1,2,1,NA,NA
"1455",432,90,1,1,1,3,1,NA,NA
"1456",432,91,1,1,1,2,1,NA,NA
"1457",432,92,1,1,1,3,1,NA,NA
"1458",432,93,1,1,1,2,1,NA,NA
"1459",432,94,1,1,1,2,1,NA,NA
"1460",432,95,1,1,1,4,1,NA,NA
"1461",432,96,1,1,1,3,1,NA,NA
"1462",432,97,1,1,1,2,0,NA,NA
"1463",432,98,1,1,1,2,0,NA,NA
"1464",432,99,1,1,1,3,0,NA,NA
"1465",432,100,1,1,1,2,0,NA,NA
"1466",432,101,1,1,1,2,0,NA,NA
"1467",432,102,1,1,1,2,1,NA,NA
"1468",432,103,1,1,1,4,1,NA,NA
"1469",432,104,1,1,1,2,1,NA,NA
"1470",432,105,1,1,1,3,1,NA,NA
"1471",431,1,1,1,1,4,0,NA,NA
"1472",431,2,1,1,1,4,0,NA,NA
"1473",431,3,1,1,1,4,0,NA,NA
"1474",431,4,1,1,1,4,0,NA,NA
"1475",431,5,1,1,1,1,1,NA,NA
"1476",431,6,1,1,1,5,1,NA,NA
"1477",431,7,1,1,1,4,1,NA,NA
"1478",431,8,1,1,1,4,1,NA,NA
"1479",431,9,1,1,1,4,0,NA,NA
"1480",431,10,1,1,1,4,0,NA,NA
"1481",431,11,1,1,1,4,0,NA,NA
"1482",431,12,1,1,1,3,0,NA,NA
"1483",431,13,1,1,1,3,0,NA,NA
"1484",431,14,1,1,1,1,0,NA,NA
"1485",431,15,1,1,1,3,0,NA,NA
"1486",431,16,1,1,1,4,0,NA,NA
"1487",431,17,1,1,1,4,0,NA,NA
"1488",431,18,1,1,1,4,0,NA,NA
"1489",431,19,1,1,1,4,0,NA,NA
"1490",431,20,1,1,1,3,0,NA,NA
"1491",431,21,1,1,1,4,0,NA,NA
"1492",431,22,1,1,1,4,0,NA,NA
"1493",431,23,1,1,1,4,1,NA,NA
"1494",431,24,1,1,1,3,1,NA,NA
"1495",431,25,1,1,1,5,1,NA,NA
"1496",431,26,1,1,1,4,1,NA,NA
"1497",431,27,1,1,1,4,1,NA,NA
"1498",431,28,1,1,1,4,1,NA,NA
"1499",431,29,1,1,1,4,1,NA,NA
"1500",431,30,1,1,1,3,1,NA,NA
"1501",431,31,1,1,1,3,1,NA,NA
"1502",431,32,1,1,1,5,1,NA,NA
"1503",431,33,1,1,1,5,1,NA,NA
"1504",431,34,1,1,1,2,1,NA,NA
"1505",431,35,1,1,1,3,1,NA,NA
"1506",431,36,1,1,1,4,1,NA,NA
"1507",431,37,1,1,1,4,0,NA,NA
"1508",431,38,1,1,1,3,0,NA,NA
"1509",431,39,1,1,1,1,0,NA,NA
"1510",431,40,1,1,1,2,0,NA,NA
"1511",431,41,1,1,1,4,0,NA,NA
"1512",431,42,1,1,1,4,0,NA,NA
"1513",431,43,1,1,1,3,0,NA,NA
"1514",431,44,1,1,1,2,0,NA,NA
"1515",431,45,1,1,1,5,0,NA,NA
"1516",431,46,1,1,1,3,0,NA,NA
"1517",431,47,1,1,1,4,1,NA,NA
"1518",431,48,1,1,1,5,1,NA,NA
"1519",431,49,1,1,1,1,1,NA,NA
"1520",431,50,1,1,1,3,1,NA,NA
"1521",431,51,1,1,1,5,1,NA,NA
"1522",431,52,1,1,1,4,1,NA,NA
"1523",431,53,1,1,1,2,1,NA,NA
"1524",431,54,1,1,1,5,1,NA,NA
"1525",431,55,1,1,1,3,1,NA,NA
"1526",431,56,1,1,1,4,1,NA,NA
"1527",431,57,1,1,1,3,0,NA,NA
"1528",431,58,1,1,1,3,0,NA,NA
"1529",431,59,1,1,1,3,0,NA,NA
"1530",431,60,1,1,1,3,0,NA,NA
"1531",431,61,1,1,1,3,0,NA,NA
"1532",431,62,1,1,1,3,0,NA,NA
"1533",431,63,1,1,1,3,0,NA,NA
"1534",431,64,1,1,1,4,0,NA,NA
"1535",431,65,1,1,1,3,0,NA,NA
"1536",431,66,1,1,1,2,0,NA,NA
"1537",431,67,1,1,1,3,0,NA,NA
"1538",431,68,1,1,1,2,1,NA,NA
"1539",431,69,1,1,1,3,1,NA,NA
"1540",431,70,1,1,1,4,1,NA,NA
"1541",431,71,1,1,1,4,1,NA,NA
"1542",431,72,1,1,1,2,1,NA,NA
"1543",431,73,1,1,1,3,1,NA,NA
"1544",431,74,1,1,1,4,1,NA,NA
"1545",431,75,1,1,1,4,1,NA,NA
"1546",431,76,1,1,1,3,1,NA,NA
"1547",431,77,1,1,1,3,1,NA,NA
"1548",431,78,1,1,1,4,0,NA,NA
"1549",431,79,1,1,1,4,0,NA,NA
"1550",431,80,1,1,1,3,0,NA,NA
"1551",431,81,1,1,1,4,0,NA,NA
"1552",431,82,1,1,1,3,0,NA,NA
"1553",431,83,1,1,1,5,0,NA,NA
"1554",431,84,1,1,1,3,0,NA,NA
"1555",431,85,1,1,1,3,0,NA,NA
"1556",431,86,1,1,1,3,0,NA,NA
"1557",431,87,1,1,1,3,1,NA,NA
"1558",431,88,1,1,1,3,1,NA,NA
"1559",431,89,1,1,1,3,1,NA,NA
"1560",431,90,1,1,1,4,1,NA,NA
"1561",431,91,1,1,1,4,1,NA,NA
"1562",431,92,1,1,1,4,1,NA,NA
"1563",431,93,1,1,1,4,1,NA,NA
"1564",431,94,1,1,1,2,1,NA,NA
"1565",431,95,1,1,1,4,1,NA,NA
"1566",431,96,1,1,1,4,1,NA,NA
"1567",431,97,1,1,1,3,0,NA,NA
"1568",431,98,1,1,1,3,0,NA,NA
"1569",431,99,1,1,1,4,0,NA,NA
"1570",431,100,1,1,1,4,0,NA,NA
"1571",431,101,1,1,1,2,0,NA,NA
"1572",431,102,1,1,1,3,1,NA,NA
"1573",431,103,1,1,1,5,1,NA,NA
"1574",431,104,1,1,1,5,1,NA,NA
"1575",431,105,1,1,1,4,1,NA,NA
"1576",429,1,1,1,1,1,0,NA,NA
"1577",429,2,1,1,1,2,0,NA,NA
"1578",429,3,1,1,1,1,0,NA,NA
"1579",429,4,1,1,1,2,0,NA,NA
"1580",429,5,1,1,1,2,1,NA,NA
"1581",429,6,1,1,1,3,1,NA,NA
"1582",429,7,1,1,1,2,1,NA,NA
"1583",429,8,1,1,1,3,1,NA,NA
"1584",429,9,1,1,1,3,0,NA,NA
"1585",429,10,1,1,1,1,0,NA,NA
"1586",429,11,1,1,1,1,0,NA,NA
"1587",429,12,1,1,1,2,0,NA,NA
"1588",429,13,1,1,1,3,0,NA,NA
"1589",429,14,1,1,1,2,0,NA,NA
"1590",429,15,1,1,1,2,0,NA,NA
"1591",429,16,1,1,1,3,0,NA,NA
"1592",429,17,1,1,1,2,0,NA,NA
"1593",429,18,1,1,1,1,0,NA,NA
"1594",429,19,1,1,1,2,0,NA,NA
"1595",429,20,1,1,1,1,0,NA,NA
"1596",429,21,1,1,1,2,0,NA,NA
"1597",429,22,1,1,1,3,0,NA,NA
"1598",429,23,1,1,1,2,1,NA,NA
"1599",429,24,1,1,1,3,1,NA,NA
"1600",429,25,1,1,1,2,1,NA,NA
"1601",429,26,1,1,1,3,1,NA,NA
"1602",429,27,1,1,1,3,1,NA,NA
"1603",429,28,1,1,1,3,1,NA,NA
"1604",429,29,1,1,1,3,1,NA,NA
"1605",429,30,1,1,1,1,1,NA,NA
"1606",429,31,1,1,1,4,1,NA,NA
"1607",429,32,1,1,1,2,1,NA,NA
"1608",429,33,1,1,1,4,1,NA,NA
"1609",429,34,1,1,1,2,1,NA,NA
"1610",429,35,1,1,1,2,1,NA,NA
"1611",429,36,1,1,1,1,1,NA,NA
"1612",429,37,1,1,1,1,0,NA,NA
"1613",429,38,1,1,1,2,0,NA,NA
"1614",429,39,1,1,1,2,0,NA,NA
"1615",429,40,1,1,1,2,0,NA,NA
"1616",429,41,1,1,1,2,0,NA,NA
"1617",429,42,1,1,1,2,0,NA,NA
"1618",429,43,1,1,1,3,0,NA,NA
"1619",429,44,1,1,1,3,0,NA,NA
"1620",429,45,1,1,1,2,0,NA,NA
"1621",429,46,1,1,1,2,0,NA,NA
"1622",429,47,1,1,1,3,1,NA,NA
"1623",429,48,1,1,1,2,1,NA,NA
"1624",429,49,1,1,1,2,1,NA,NA
"1625",429,50,1,1,1,2,1,NA,NA
"1626",429,51,1,1,1,3,1,NA,NA
"1627",429,52,1,1,1,2,1,NA,NA
"1628",429,53,1,1,1,5,1,NA,NA
"1629",429,54,1,1,1,2,1,NA,NA
"1630",429,55,1,1,1,3,1,NA,NA
"1631",429,56,1,1,1,1,1,NA,NA
"1632",429,57,1,1,1,3,0,NA,NA
"1633",429,58,1,1,1,3,0,NA,NA
"1634",429,59,1,1,1,3,0,NA,NA
"1635",429,60,1,1,1,2,0,NA,NA
"1636",429,61,1,1,1,3,0,NA,NA
"1637",429,62,1,1,1,2,0,NA,NA
"1638",429,63,1,1,1,3,0,NA,NA
"1639",429,64,1,1,1,4,0,NA,NA
"1640",429,65,1,1,1,3,0,NA,NA
"1641",429,66,1,1,1,5,0,NA,NA
"1642",429,67,1,1,1,2,0,NA,NA
"1643",429,68,1,1,1,2,1,NA,NA
"1644",429,69,1,1,1,2,1,NA,NA
"1645",429,70,1,1,1,2,1,NA,NA
"1646",429,71,1,1,1,3,1,NA,NA
"1647",429,72,1,1,1,3,1,NA,NA
"1648",429,73,1,1,1,1,1,NA,NA
"1649",429,74,1,1,1,2,1,NA,NA
"1650",429,75,1,1,1,1,1,NA,NA
"1651",429,76,1,1,1,4,1,NA,NA
"1652",429,77,1,1,1,3,1,NA,NA
"1653",429,78,1,1,1,3,0,NA,NA
"1654",429,79,1,1,1,2,0,NA,NA
"1655",429,80,1,1,1,3,0,NA,NA
"1656",429,81,1,1,1,2,0,NA,NA
"1657",429,82,1,1,1,2,0,NA,NA
"1658",429,83,1,1,1,2,0,NA,NA
"1659",429,84,1,1,1,3,0,NA,NA
"1660",429,85,1,1,1,2,0,NA,NA
"1661",429,86,1,1,1,3,0,NA,NA
"1662",429,87,1,1,1,2,1,NA,NA
"1663",429,88,1,1,1,3,1,NA,NA
"1664",429,89,1,1,1,2,1,NA,NA
"1665",429,90,1,1,1,2,1,NA,NA
"1666",429,91,1,1,1,3,1,NA,NA
"1667",429,92,1,1,1,3,1,NA,NA
"1668",429,93,1,1,1,3,1,NA,NA
"1669",429,94,1,1,1,2,1,NA,NA
"1670",429,95,1,1,1,3,1,NA,NA
"1671",429,96,1,1,1,2,1,NA,NA
"1672",429,97,1,1,1,4,0,NA,NA
"1673",429,98,1,1,1,3,0,NA,NA
"1674",429,99,1,1,1,3,0,NA,NA
"1675",429,100,1,1,1,2,0,NA,NA
"1676",429,101,1,1,1,4,0,NA,NA
"1677",429,102,1,1,1,4,1,NA,NA
"1678",429,103,1,1,1,4,1,NA,NA
"1679",429,104,1,1,1,2,1,NA,NA
"1680",429,105,1,1,1,4,1,NA,NA
"1681",428,1,1,1,1,2,0,NA,NA
"1682",428,2,1,1,1,5,0,NA,NA
"1683",428,3,1,1,1,1,0,NA,NA
"1684",428,4,1,1,1,3,0,NA,NA
"1685",428,5,1,1,1,6,1,NA,NA
"1686",428,6,1,1,1,3,1,NA,NA
"1687",428,7,1,1,1,3,1,NA,NA
"1688",428,8,1,1,1,3,1,NA,NA
"1689",428,9,1,1,1,5,0,NA,NA
"1690",428,10,1,1,1,2,0,NA,NA
"1691",428,11,1,1,1,1,0,NA,NA
"1692",428,12,1,1,1,5,0,NA,NA
"1693",428,13,1,1,1,2,0,NA,NA
"1694",428,14,1,1,1,5,0,NA,NA
"1695",428,15,1,1,1,6,0,NA,NA
"1696",428,16,1,1,1,2,0,NA,NA
"1697",428,17,1,1,1,4,0,NA,NA
"1698",428,18,1,1,1,4,0,NA,NA
"1699",428,19,1,1,1,2,0,NA,NA
"1700",428,20,1,1,1,1,0,NA,NA
"1701",428,21,1,1,1,2,0,NA,NA
"1702",428,22,1,1,1,4,0,NA,NA
"1703",428,23,1,1,1,2,1,NA,NA
"1704",428,24,1,1,1,1,1,NA,NA
"1705",428,25,1,1,1,6,1,NA,NA
"1706",428,26,1,1,1,2,1,NA,NA
"1707",428,27,1,1,1,4,1,NA,NA
"1708",428,28,1,1,1,6,1,NA,NA
"1709",428,29,1,1,1,3,1,NA,NA
"1710",428,30,1,1,1,4,1,NA,NA
"1711",428,31,1,1,1,3,1,NA,NA
"1712",428,32,1,1,1,6,1,NA,NA
"1713",428,33,1,1,1,4,1,NA,NA
"1714",428,34,1,1,1,6,1,NA,NA
"1715",428,35,1,1,1,5,1,NA,NA
"1716",428,36,1,1,1,1,1,NA,NA
"1717",428,37,1,1,1,2,0,NA,NA
"1718",428,38,1,1,1,2,0,NA,NA
"1719",428,39,1,1,1,5,0,NA,NA
"1720",428,40,1,1,1,2,0,NA,NA
"1721",428,41,1,1,1,5,0,NA,NA
"1722",428,42,1,1,1,2,0,NA,NA
"1723",428,43,1,1,1,2,0,NA,NA
"1724",428,44,1,1,1,5,0,NA,NA
"1725",428,45,1,1,1,5,0,NA,NA
"1726",428,46,1,1,1,5,0,NA,NA
"1727",428,47,1,1,1,4,1,NA,NA
"1728",428,48,1,1,1,4,1,NA,NA
"1729",428,49,1,1,1,5,1,NA,NA
"1730",428,50,1,1,1,2,1,NA,NA
"1731",428,51,1,1,1,2,1,NA,NA
"1732",428,52,1,1,1,4,1,NA,NA
"1733",428,53,1,1,1,4,1,NA,NA
"1734",428,54,1,1,1,1,1,NA,NA
"1735",428,55,1,1,1,5,1,NA,NA
"1736",428,56,1,1,1,5,1,NA,NA
"1737",428,57,1,1,1,2,0,NA,NA
"1738",428,58,1,1,1,3,0,NA,NA
"1739",428,59,1,1,1,6,0,NA,NA
"1740",428,60,1,1,1,4,0,NA,NA
"1741",428,61,1,1,1,1,0,NA,NA
"1742",428,62,1,1,1,1,0,NA,NA
"1743",428,63,1,1,1,1,0,NA,NA
"1744",428,64,1,1,1,5,0,NA,NA
"1745",428,65,1,1,1,6,0,NA,NA
"1746",428,66,1,1,1,5,0,NA,NA
"1747",428,67,1,1,1,5,0,NA,NA
"1748",428,68,1,1,1,4,1,NA,NA
"1749",428,69,1,1,1,3,1,NA,NA
"1750",428,70,1,1,1,2,1,NA,NA
"1751",428,71,1,1,1,5,1,NA,NA
"1752",428,72,1,1,1,4,1,NA,NA
"1753",428,73,1,1,1,4,1,NA,NA
"1754",428,74,1,1,1,5,1,NA,NA
"1755",428,75,1,1,1,3,1,NA,NA
"1756",428,76,1,1,1,4,1,NA,NA
"1757",428,77,1,1,1,5,1,NA,NA
"1758",428,78,1,1,1,2,0,NA,NA
"1759",428,79,1,1,1,6,0,NA,NA
"1760",428,80,1,1,1,3,0,NA,NA
"1761",428,81,1,1,1,6,0,NA,NA
"1762",428,82,1,1,1,4,0,NA,NA
"1763",428,83,1,1,1,4,0,NA,NA
"1764",428,84,1,1,1,5,0,NA,NA
"1765",428,85,1,1,1,4,0,NA,NA
"1766",428,86,1,1,1,1,0,NA,NA
"1767",428,87,1,1,1,4,1,NA,NA
"1768",428,88,1,1,1,5,1,NA,NA
"1769",428,89,1,1,1,4,1,NA,NA
"1770",428,90,1,1,1,5,1,NA,NA
"1771",428,91,1,1,1,5,1,NA,NA
"1772",428,92,1,1,1,2,1,NA,NA
"1773",428,93,1,1,1,5,1,NA,NA
"1774",428,94,1,1,1,6,1,NA,NA
"1775",428,95,1,1,1,4,1,NA,NA
"1776",428,96,1,1,1,2,1,NA,NA
"1777",428,97,1,1,1,4,0,NA,NA
"1778",428,98,1,1,1,1,0,NA,NA
"1779",428,99,1,1,1,4,0,NA,NA
"1780",428,100,1,1,1,3,0,NA,NA
"1781",428,101,1,1,1,1,0,NA,NA
"1782",428,102,1,1,1,1,1,NA,NA
"1783",428,103,1,1,1,2,1,NA,NA
"1784",428,104,1,1,1,1,1,NA,NA
"1785",428,105,1,1,1,1,1,NA,NA
"1786",427,1,1,1,1,4,0,NA,NA
"1787",427,2,1,1,1,5,0,NA,NA
"1788",427,3,1,1,1,5,0,NA,NA
"1789",427,4,1,1,1,6,0,NA,NA
"1790",427,5,1,1,1,4,1,NA,NA
"1791",427,6,1,1,1,4,1,NA,NA
"1792",427,7,1,1,1,5,1,NA,NA
"1793",427,8,1,1,1,6,1,NA,NA
"1794",427,9,1,1,1,5,0,NA,NA
"1795",427,10,1,1,1,6,0,NA,NA
"1796",427,11,1,1,1,6,0,NA,NA
"1797",427,12,1,1,1,6,0,NA,NA
"1798",427,13,1,1,1,5,0,NA,NA
"1799",427,14,1,1,1,5,0,NA,NA
"1800",427,15,1,1,1,5,0,NA,NA
"1801",427,16,1,1,1,6,0,NA,NA
"1802",427,17,1,1,1,5,0,NA,NA
"1803",427,18,1,1,1,5,0,NA,NA
"1804",427,19,1,1,1,5,0,NA,NA
"1805",427,20,1,1,1,6,0,NA,NA
"1806",427,21,1,1,1,5,0,NA,NA
"1807",427,22,1,1,1,5,0,NA,NA
"1808",427,23,1,1,1,6,1,NA,NA
"1809",427,24,1,1,1,6,1,NA,NA
"1810",427,25,1,1,1,5,1,NA,NA
"1811",427,26,1,1,1,6,1,NA,NA
"1812",427,27,1,1,1,5,1,NA,NA
"1813",427,28,1,1,1,6,1,NA,NA
"1814",427,29,1,1,1,5,1,NA,NA
"1815",427,30,1,1,1,6,1,NA,NA
"1816",427,31,1,1,1,5,1,NA,NA
"1817",427,32,1,1,1,6,1,NA,NA
"1818",427,33,1,1,1,5,1,NA,NA
"1819",427,34,1,1,1,6,1,NA,NA
"1820",427,35,1,1,1,5,1,NA,NA
"1821",427,36,1,1,1,5,1,NA,NA
"1822",427,37,1,1,1,6,0,NA,NA
"1823",427,38,1,1,1,5,0,NA,NA
"1824",427,39,1,1,1,5,0,NA,NA
"1825",427,40,1,1,1,6,0,NA,NA
"1826",427,41,1,1,1,6,0,NA,NA
"1827",427,42,1,1,1,6,0,NA,NA
"1828",427,43,1,1,1,5,0,NA,NA
"1829",427,44,1,1,1,6,0,NA,NA
"1830",427,45,1,1,1,4,0,NA,NA
"1831",427,46,1,1,1,6,0,NA,NA
"1832",427,47,1,1,1,5,1,NA,NA
"1833",427,48,1,1,1,5,1,NA,NA
"1834",427,49,1,1,1,5,1,NA,NA
"1835",427,50,1,1,1,5,1,NA,NA
"1836",427,51,1,1,1,5,1,NA,NA
"1837",427,52,1,1,1,6,1,NA,NA
"1838",427,53,1,1,1,5,1,NA,NA
"1839",427,54,1,1,1,6,1,NA,NA
"1840",427,55,1,1,1,5,1,NA,NA
"1841",427,56,1,1,1,6,1,NA,NA
"1842",427,57,1,1,1,5,0,NA,NA
"1843",427,58,1,1,1,6,0,NA,NA
"1844",427,59,1,1,1,6,0,NA,NA
"1845",427,60,1,1,1,5,0,NA,NA
"1846",427,61,1,1,1,5,0,NA,NA
"1847",427,62,1,1,1,5,0,NA,NA
"1848",427,63,1,1,1,6,0,NA,NA
"1849",427,64,1,1,1,5,0,NA,NA
"1850",427,65,1,1,1,5,0,NA,NA
"1851",427,66,1,1,1,5,0,NA,NA
"1852",427,67,1,1,1,6,0,NA,NA
"1853",427,68,1,1,1,5,1,NA,NA
"1854",427,69,1,1,1,5,1,NA,NA
"1855",427,70,1,1,1,6,1,NA,NA
"1856",427,71,1,1,1,5,1,NA,NA
"1857",427,72,1,1,1,5,1,NA,NA
"1858",427,73,1,1,1,5,1,NA,NA
"1859",427,74,1,1,1,3,1,NA,NA
"1860",427,75,1,1,1,5,1,NA,NA
"1861",427,76,1,1,1,5,1,NA,NA
"1862",427,77,1,1,1,4,1,NA,NA
"1863",427,78,1,1,1,5,0,NA,NA
"1864",427,79,1,1,1,5,0,NA,NA
"1865",427,80,1,1,1,6,0,NA,NA
"1866",427,81,1,1,1,6,0,NA,NA
"1867",427,82,1,1,1,6,0,NA,NA
"1868",427,83,1,1,1,6,0,NA,NA
"1869",427,84,1,1,1,5,0,NA,NA
"1870",427,85,1,1,1,5,0,NA,NA
"1871",427,86,1,1,1,6,0,NA,NA
"1872",427,87,1,1,1,5,1,NA,NA
"1873",427,88,1,1,1,5,1,NA,NA
"1874",427,89,1,1,1,6,1,NA,NA
"1875",427,90,1,1,1,6,1,NA,NA
"1876",427,91,1,1,1,5,1,NA,NA
"1877",427,92,1,1,1,4,1,NA,NA
"1878",427,93,1,1,1,4,1,NA,NA
"1879",427,94,1,1,1,5,1,NA,NA
"1880",427,95,1,1,1,5,1,NA,NA
"1881",427,96,1,1,1,4,1,NA,NA
"1882",427,97,1,1,1,6,0,NA,NA
"1883",427,98,1,1,1,6,0,NA,NA
"1884",427,99,1,1,1,6,0,NA,NA
"1885",427,100,1,1,1,5,0,NA,NA
"1886",427,101,1,1,1,5,0,NA,NA
"1887",427,102,1,1,1,5,1,NA,NA
"1888",427,103,1,1,1,6,1,NA,NA
"1889",427,104,1,1,1,5,1,NA,NA
"1890",427,105,1,1,1,6,1,NA,NA
"1891",426,1,1,1,1,1,0,NA,NA
"1892",426,2,1,1,1,1,0,NA,NA
"1893",426,3,1,1,1,1,0,NA,NA
"1894",426,4,1,1,1,1,0,NA,NA
"1895",426,5,1,1,1,1,1,NA,NA
"1896",426,6,1,1,1,1,1,NA,NA
"1897",426,7,1,1,1,1,1,NA,NA
"1898",426,8,1,1,1,1,1,NA,NA
"1899",426,9,1,1,1,2,0,NA,NA
"1900",426,10,1,1,1,1,0,NA,NA
"1901",426,11,1,1,1,1,0,NA,NA
"1902",426,12,1,1,1,2,0,NA,NA
"1903",426,13,1,1,1,3,0,NA,NA
"1904",426,14,1,1,1,1,0,NA,NA
"1905",426,15,1,1,1,1,0,NA,NA
"1906",426,16,1,1,1,3,0,NA,NA
"1907",426,17,1,1,1,1,0,NA,NA
"1908",426,18,1,1,1,1,0,NA,NA
"1909",426,19,1,1,1,1,0,NA,NA
"1910",426,20,1,1,1,1,0,NA,NA
"1911",426,21,1,1,1,1,0,NA,NA
"1912",426,22,1,1,1,1,0,NA,NA
"1913",426,23,1,1,1,1,1,NA,NA
"1914",426,24,1,1,1,1,1,NA,NA
"1915",426,25,1,1,1,1,1,NA,NA
"1916",426,26,1,1,1,1,1,NA,NA
"1917",426,27,1,1,1,1,1,NA,NA
"1918",426,28,1,1,1,1,1,NA,NA
"1919",426,29,1,1,1,4,1,NA,NA
"1920",426,30,1,1,1,1,1,NA,NA
"1921",426,31,1,1,1,1,1,NA,NA
"1922",426,32,1,1,1,1,1,NA,NA
"1923",426,33,1,1,1,1,1,NA,NA
"1924",426,34,1,1,1,1,1,NA,NA
"1925",426,35,1,1,1,1,1,NA,NA
"1926",426,36,1,1,1,1,1,NA,NA
"1927",426,37,1,1,1,1,0,NA,NA
"1928",426,38,1,1,1,1,0,NA,NA
"1929",426,39,1,1,1,4,0,NA,NA
"1930",426,40,1,1,1,1,0,NA,NA
"1931",426,41,1,1,1,1,0,NA,NA
"1932",426,42,1,1,1,1,0,NA,NA
"1933",426,43,1,1,1,1,0,NA,NA
"1934",426,44,1,1,1,1,0,NA,NA
"1935",426,45,1,1,1,1,0,NA,NA
"1936",426,46,1,1,1,1,0,NA,NA
"1937",426,47,1,1,1,1,1,NA,NA
"1938",426,48,1,1,1,1,1,NA,NA
"1939",426,49,1,1,1,1,1,NA,NA
"1940",426,50,1,1,1,1,1,NA,NA
"1941",426,51,1,1,1,1,1,NA,NA
"1942",426,52,1,1,1,1,1,NA,NA
"1943",426,53,1,1,1,1,1,NA,NA
"1944",426,54,1,1,1,1,1,NA,NA
"1945",426,55,1,1,1,1,1,NA,NA
"1946",426,56,1,1,1,1,1,NA,NA
"1947",426,57,1,1,1,1,0,NA,NA
"1948",426,58,1,1,1,1,0,NA,NA
"1949",426,59,1,1,1,1,0,NA,NA
"1950",426,60,1,1,1,1,0,NA,NA
"1951",426,61,1,1,1,1,0,NA,NA
"1952",426,62,1,1,1,1,0,NA,NA
"1953",426,63,1,1,1,1,0,NA,NA
"1954",426,64,1,1,1,1,0,NA,NA
"1955",426,65,1,1,1,1,0,NA,NA
"1956",426,66,1,1,1,1,0,NA,NA
"1957",426,67,1,1,1,1,0,NA,NA
"1958",426,68,1,1,1,1,1,NA,NA
"1959",426,69,1,1,1,1,1,NA,NA
"1960",426,70,1,1,1,1,1,NA,NA
"1961",426,71,1,1,1,1,1,NA,NA
"1962",426,72,1,1,1,1,1,NA,NA
"1963",426,73,1,1,1,1,1,NA,NA
"1964",426,74,1,1,1,1,1,NA,NA
"1965",426,75,1,1,1,1,1,NA,NA
"1966",426,76,1,1,1,4,1,NA,NA
"1967",426,77,1,1,1,1,1,NA,NA
"1968",426,78,1,1,1,1,0,NA,NA
"1969",426,79,1,1,1,1,0,NA,NA
"1970",426,80,1,1,1,1,0,NA,NA
"1971",426,81,1,1,1,1,0,NA,NA
"1972",426,82,1,1,1,1,0,NA,NA
"1973",426,83,1,1,1,1,0,NA,NA
"1974",426,84,1,1,1,1,0,NA,NA
"1975",426,85,1,1,1,1,0,NA,NA
"1976",426,86,1,1,1,1,0,NA,NA
"1977",426,87,1,1,1,1,1,NA,NA
"1978",426,88,1,1,1,5,1,NA,NA
"1979",426,89,1,1,1,1,1,NA,NA
"1980",426,90,1,1,1,1,1,NA,NA
"1981",426,91,1,1,1,1,1,NA,NA
"1982",426,92,1,1,1,4,1,NA,NA
"1983",426,93,1,1,1,1,1,NA,NA
"1984",426,94,1,1,1,1,1,NA,NA
"1985",426,95,1,1,1,1,1,NA,NA
"1986",426,96,1,1,1,1,1,NA,NA
"1987",426,97,1,1,1,1,0,NA,NA
"1988",426,98,1,1,1,4,0,NA,NA
"1989",426,99,1,1,1,3,0,NA,NA
"1990",426,100,1,1,1,2,0,NA,NA
"1991",426,101,1,1,1,1,0,NA,NA
"1992",426,102,1,1,1,2,1,NA,NA
"1993",426,103,1,1,1,1,1,NA,NA
"1994",426,104,1,1,1,1,1,NA,NA
"1995",426,105,1,1,1,1,1,NA,NA
"1996",424,1,1,1,1,4,0,NA,NA
"1997",424,2,1,1,1,1,0,NA,NA
"1998",424,3,1,1,1,1,0,NA,NA
"1999",424,4,1,1,1,1,0,NA,NA
"2000",424,5,1,1,1,1,1,NA,NA
"2001",424,6,1,1,1,3,1,NA,NA
"2002",424,7,1,1,1,2,1,NA,NA
"2003",424,8,1,1,1,2,1,NA,NA
"2004",424,9,1,1,1,2,0,NA,NA
"2005",424,10,1,1,1,1,0,NA,NA
"2006",424,11,1,1,1,1,0,NA,NA
"2007",424,12,1,1,1,2,0,NA,NA
"2008",424,13,1,1,1,4,0,NA,NA
"2009",424,14,1,1,1,2,0,NA,NA
"2010",424,15,1,1,1,1,0,NA,NA
"2011",424,16,1,1,1,2,0,NA,NA
"2012",424,17,1,1,1,2,0,NA,NA
"2013",424,18,1,1,1,1,0,NA,NA
"2014",424,19,1,1,1,2,0,NA,NA
"2015",424,20,1,1,1,1,0,NA,NA
"2016",424,21,1,1,1,2,0,NA,NA
"2017",424,22,1,1,1,2,0,NA,NA
"2018",424,23,1,1,1,1,1,NA,NA
"2019",424,24,1,1,1,2,1,NA,NA
"2020",424,25,1,1,1,1,1,NA,NA
"2021",424,26,1,1,1,1,1,NA,NA
"2022",424,27,1,1,1,2,1,NA,NA
"2023",424,28,1,1,1,2,1,NA,NA
"2024",424,29,1,1,1,2,1,NA,NA
"2025",424,30,1,1,1,2,1,NA,NA
"2026",424,31,1,1,1,3,1,NA,NA
"2027",424,32,1,1,1,2,1,NA,NA
"2028",424,33,1,1,1,4,1,NA,NA
"2029",424,34,1,1,1,1,1,NA,NA
"2030",424,35,1,1,1,1,1,NA,NA
"2031",424,36,1,1,1,2,1,NA,NA
"2032",424,37,1,1,1,1,0,NA,NA
"2033",424,38,1,1,1,2,0,NA,NA
"2034",424,39,1,1,1,1,0,NA,NA
"2035",424,40,1,1,1,1,0,NA,NA
"2036",424,41,1,1,1,2,0,NA,NA
"2037",424,42,1,1,1,2,0,NA,NA
"2038",424,43,1,1,1,2,0,NA,NA
"2039",424,44,1,1,1,1,0,NA,NA
"2040",424,45,1,1,1,2,0,NA,NA
"2041",424,46,1,1,1,1,0,NA,NA
"2042",424,47,1,1,1,4,1,NA,NA
"2043",424,48,1,1,1,2,1,NA,NA
"2044",424,49,1,1,1,1,1,NA,NA
"2045",424,50,1,1,1,4,1,NA,NA
"2046",424,51,1,1,1,2,1,NA,NA
"2047",424,52,1,1,1,1,1,NA,NA
"2048",424,53,1,1,1,5,1,NA,NA
"2049",424,54,1,1,1,1,1,NA,NA
"2050",424,55,1,1,1,1,1,NA,NA
"2051",424,56,1,1,1,1,1,NA,NA
"2052",424,57,1,1,1,2,0,NA,NA
"2053",424,58,1,1,1,2,0,NA,NA
"2054",424,59,1,1,1,1,0,NA,NA
"2055",424,60,1,1,1,1,0,NA,NA
"2056",424,61,1,1,1,1,0,NA,NA
"2057",424,62,1,1,1,2,0,NA,NA
"2058",424,63,1,1,1,2,0,NA,NA
"2059",424,64,1,1,1,4,0,NA,NA
"2060",424,65,1,1,1,2,0,NA,NA
"2061",424,66,1,1,1,4,0,NA,NA
"2062",424,67,1,1,1,1,0,NA,NA
"2063",424,68,1,1,1,2,1,NA,NA
"2064",424,69,1,1,1,2,1,NA,NA
"2065",424,70,1,1,1,2,1,NA,NA
"2066",424,71,1,1,1,2,1,NA,NA
"2067",424,72,1,1,1,2,1,NA,NA
"2068",424,73,1,1,1,1,1,NA,NA
"2069",424,74,1,1,1,2,1,NA,NA
"2070",424,75,1,1,1,4,1,NA,NA
"2071",424,76,1,1,1,4,1,NA,NA
"2072",424,77,1,1,1,4,1,NA,NA
"2073",424,78,1,1,1,2,0,NA,NA
"2074",424,79,1,1,1,2,0,NA,NA
"2075",424,80,1,1,1,2,0,NA,NA
"2076",424,81,1,1,1,3,0,NA,NA
"2077",424,82,1,1,1,2,0,NA,NA
"2078",424,83,1,1,1,2,0,NA,NA
"2079",424,84,1,1,1,1,0,NA,NA
"2080",424,85,1,1,1,2,0,NA,NA
"2081",424,86,1,1,1,2,0,NA,NA
"2082",424,87,1,1,1,2,1,NA,NA
"2083",424,88,1,1,1,2,1,NA,NA
"2084",424,89,1,1,1,2,1,NA,NA
"2085",424,90,1,1,1,2,1,NA,NA
"2086",424,91,1,1,1,1,1,NA,NA
"2087",424,92,1,1,1,3,1,NA,NA
"2088",424,93,1,1,1,2,1,NA,NA
"2089",424,94,1,1,1,2,1,NA,NA
"2090",424,95,1,1,1,4,1,NA,NA
"2091",424,96,1,1,1,1,1,NA,NA
"2092",424,97,1,1,1,2,0,NA,NA
"2093",424,98,1,1,1,2,0,NA,NA
"2094",424,99,1,1,1,2,0,NA,NA
"2095",424,100,1,1,1,1,0,NA,NA
"2096",424,101,1,1,1,2,0,NA,NA
"2097",424,102,1,1,1,2,1,NA,NA
"2098",424,103,1,1,1,4,1,NA,NA
"2099",424,104,1,1,1,3,1,NA,NA
"2100",424,105,1,1,1,4,1,NA,NA
"2101",418,1,1,1,1,3,0,NA,NA
"2102",418,2,1,1,1,3,0,NA,NA
"2103",418,3,1,1,1,3,0,NA,NA
"2104",418,4,1,1,1,4,0,NA,NA
"2105",418,5,1,1,1,4,1,NA,NA
"2106",418,6,1,1,1,5,1,NA,NA
"2107",418,7,1,1,1,5,1,NA,NA
"2108",418,8,1,1,1,4,1,NA,NA
"2109",418,9,1,1,1,4,0,NA,NA
"2110",418,10,1,1,1,5,0,NA,NA
"2111",418,11,1,1,1,3,0,NA,NA
"2112",418,12,1,1,1,4,0,NA,NA
"2113",418,13,1,1,1,4,0,NA,NA
"2114",418,14,1,1,1,4,0,NA,NA
"2115",418,15,1,1,1,5,0,NA,NA
"2116",418,16,1,1,1,5,0,NA,NA
"2117",418,17,1,1,1,4,0,NA,NA
"2118",418,18,1,1,1,5,0,NA,NA
"2119",418,19,1,1,1,5,0,NA,NA
"2120",418,20,1,1,1,4,0,NA,NA
"2121",418,21,1,1,1,4,0,NA,NA
"2122",418,22,1,1,1,4,0,NA,NA
"2123",418,23,1,1,1,4,1,NA,NA
"2124",418,24,1,1,1,3,1,NA,NA
"2125",418,25,1,1,1,4,1,NA,NA
"2126",418,26,1,1,1,3,1,NA,NA
"2127",418,27,1,1,1,4,1,NA,NA
"2128",418,28,1,1,1,4,1,NA,NA
"2129",418,29,1,1,1,5,1,NA,NA
"2130",418,30,1,1,1,4,1,NA,NA
"2131",418,31,1,1,1,5,1,NA,NA
"2132",418,32,1,1,1,3,1,NA,NA
"2133",418,33,1,1,1,4,1,NA,NA
"2134",418,34,1,1,1,5,1,NA,NA
"2135",418,35,1,1,1,4,1,NA,NA
"2136",418,36,1,1,1,4,1,NA,NA
"2137",418,37,1,1,1,4,0,NA,NA
"2138",418,38,1,1,1,5,0,NA,NA
"2139",418,39,1,1,1,4,0,NA,NA
"2140",418,40,1,1,1,3,0,NA,NA
"2141",418,41,1,1,1,4,0,NA,NA
"2142",418,42,1,1,1,4,0,NA,NA
"2143",418,43,1,1,1,4,0,NA,NA
"2144",418,44,1,1,1,4,0,NA,NA
"2145",418,45,1,1,1,3,0,NA,NA
"2146",418,46,1,1,1,3,0,NA,NA
"2147",418,47,1,1,1,5,1,NA,NA
"2148",418,48,1,1,1,4,1,NA,NA
"2149",418,49,1,1,1,4,1,NA,NA
"2150",418,50,1,1,1,4,1,NA,NA
"2151",418,51,1,1,1,4,1,NA,NA
"2152",418,52,1,1,1,3,1,NA,NA
"2153",418,53,1,1,1,3,1,NA,NA
"2154",418,54,1,1,1,4,1,NA,NA
"2155",418,55,1,1,1,4,1,NA,NA
"2156",418,56,1,1,1,4,1,NA,NA
"2157",418,57,1,1,1,4,0,NA,NA
"2158",418,58,1,1,1,5,0,NA,NA
"2159",418,59,1,1,1,3,0,NA,NA
"2160",418,60,1,1,1,5,0,NA,NA
"2161",418,61,1,1,1,4,0,NA,NA
"2162",418,62,1,1,1,4,0,NA,NA
"2163",418,63,1,1,1,4,0,NA,NA
"2164",418,64,1,1,1,5,0,NA,NA
"2165",418,65,1,1,1,4,0,NA,NA
"2166",418,66,1,1,1,4,0,NA,NA
"2167",418,67,1,1,1,3,0,NA,NA
"2168",418,68,1,1,1,5,1,NA,NA
"2169",418,69,1,1,1,4,1,NA,NA
"2170",418,70,1,1,1,4,1,NA,NA
"2171",418,71,1,1,1,5,1,NA,NA
"2172",418,72,1,1,1,4,1,NA,NA
"2173",418,73,1,1,1,3,1,NA,NA
"2174",418,74,1,1,1,4,1,NA,NA
"2175",418,75,1,1,1,5,1,NA,NA
"2176",418,76,1,1,1,4,1,NA,NA
"2177",418,77,1,1,1,5,1,NA,NA
"2178",418,78,1,1,1,4,0,NA,NA
"2179",418,79,1,1,1,3,0,NA,NA
"2180",418,80,1,1,1,5,0,NA,NA
"2181",418,81,1,1,1,3,0,NA,NA
"2182",418,82,1,1,1,4,0,NA,NA
"2183",418,83,1,1,1,4,0,NA,NA
"2184",418,84,1,1,1,5,0,NA,NA
"2185",418,85,1,1,1,4,0,NA,NA
"2186",418,86,1,1,1,4,0,NA,NA
"2187",418,87,1,1,1,3,1,NA,NA
"2188",418,88,1,1,1,3,1,NA,NA
"2189",418,89,1,1,1,4,1,NA,NA
"2190",418,90,1,1,1,3,1,NA,NA
"2191",418,91,1,1,1,3,1,NA,NA
"2192",418,92,1,1,1,3,1,NA,NA
"2193",418,93,1,1,1,4,1,NA,NA
"2194",418,94,1,1,1,5,1,NA,NA
"2195",418,95,1,1,1,3,1,NA,NA
"2196",418,96,1,1,1,5,1,NA,NA
"2197",418,97,1,1,1,4,0,NA,NA
"2198",418,98,1,1,1,4,0,NA,NA
"2199",418,99,1,1,1,5,0,NA,NA
"2200",418,100,1,1,1,5,0,NA,NA
"2201",418,101,1,1,1,4,0,NA,NA
"2202",418,102,1,1,1,4,1,NA,NA
"2203",418,103,1,1,1,5,1,NA,NA
"2204",418,104,1,1,1,5,1,NA,NA
"2205",418,105,1,1,1,5,1,NA,NA
"2206",417,1,1,1,1,2,0,NA,NA
"2207",417,2,1,1,1,2,0,NA,NA
"2208",417,3,1,1,1,1,0,NA,NA
"2209",417,4,1,1,1,1,0,NA,NA
"2210",417,5,1,1,1,1,1,NA,NA
"2211",417,6,1,1,1,5,1,NA,NA
"2212",417,7,1,1,1,1,1,NA,NA
"2213",417,8,1,1,1,5,1,NA,NA
"2214",417,9,1,1,1,4,0,NA,NA
"2215",417,10,1,1,1,1,0,NA,NA
"2216",417,11,1,1,1,1,0,NA,NA
"2217",417,12,1,1,1,1,0,NA,NA
"2218",417,13,1,1,1,3,0,NA,NA
"2219",417,14,1,1,1,1,0,NA,NA
"2220",417,15,1,1,1,1,0,NA,NA
"2221",417,16,1,1,1,2,0,NA,NA
"2222",417,17,1,1,1,2,0,NA,NA
"2223",417,18,1,1,1,1,0,NA,NA
"2224",417,19,1,1,1,1,0,NA,NA
"2225",417,20,1,1,1,1,0,NA,NA
"2226",417,21,1,1,1,2,0,NA,NA
"2227",417,22,1,1,1,2,0,NA,NA
"2228",417,23,1,1,1,4,1,NA,NA
"2229",417,24,1,1,1,1,1,NA,NA
"2230",417,25,1,1,1,1,1,NA,NA
"2231",417,26,1,1,1,1,1,NA,NA
"2232",417,27,1,1,1,2,1,NA,NA
"2233",417,28,1,1,1,1,1,NA,NA
"2234",417,29,1,1,1,3,1,NA,NA
"2235",417,30,1,1,1,2,1,NA,NA
"2236",417,31,1,1,1,2,1,NA,NA
"2237",417,32,1,1,1,5,1,NA,NA
"2238",417,33,1,1,1,6,1,NA,NA
"2239",417,34,1,1,1,4,1,NA,NA
"2240",417,35,1,1,1,2,1,NA,NA
"2241",417,36,1,1,1,5,1,NA,NA
"2242",417,37,1,1,1,1,0,NA,NA
"2243",417,38,1,1,1,1,0,NA,NA
"2244",417,39,1,1,1,1,0,NA,NA
"2245",417,40,1,1,1,1,0,NA,NA
"2246",417,41,1,1,1,1,0,NA,NA
"2247",417,42,1,1,1,2,0,NA,NA
"2248",417,43,1,1,1,1,0,NA,NA
"2249",417,44,1,1,1,1,0,NA,NA
"2250",417,45,1,1,1,2,0,NA,NA
"2251",417,46,1,1,1,3,0,NA,NA
"2252",417,47,1,1,1,4,1,NA,NA
"2253",417,48,1,1,1,3,1,NA,NA
"2254",417,49,1,1,1,1,1,NA,NA
"2255",417,50,1,1,1,3,1,NA,NA
"2256",417,51,1,1,1,1,1,NA,NA
"2257",417,52,1,1,1,3,1,NA,NA
"2258",417,53,1,1,1,5,1,NA,NA
"2259",417,54,1,1,1,1,1,NA,NA
"2260",417,55,1,1,1,1,1,NA,NA
"2261",417,56,1,1,1,1,1,NA,NA
"2262",417,57,1,1,1,1,0,NA,NA
"2263",417,58,1,1,1,4,0,NA,NA
"2264",417,59,1,1,1,5,0,NA,NA
"2265",417,60,1,1,1,4,0,NA,NA
"2266",417,61,1,1,1,3,0,NA,NA
"2267",417,62,1,1,1,2,0,NA,NA
"2268",417,63,1,1,1,1,0,NA,NA
"2269",417,64,1,1,1,5,0,NA,NA
"2270",417,65,1,1,1,1,0,NA,NA
"2271",417,66,1,1,1,5,0,NA,NA
"2272",417,67,1,1,1,1,0,NA,NA
"2273",417,68,1,1,1,2,1,NA,NA
"2274",417,69,1,1,1,4,1,NA,NA
"2275",417,70,1,1,1,2,1,NA,NA
"2276",417,71,1,1,1,1,1,NA,NA
"2277",417,72,1,1,1,1,1,NA,NA
"2278",417,73,1,1,1,1,1,NA,NA
"2279",417,74,1,1,1,4,1,NA,NA
"2280",417,75,1,1,1,1,1,NA,NA
"2281",417,76,1,1,1,5,1,NA,NA
"2282",417,77,1,1,1,1,1,NA,NA
"2283",417,78,1,1,1,5,0,NA,NA
"2284",417,79,1,1,1,1,0,NA,NA
"2285",417,80,1,1,1,5,0,NA,NA
"2286",417,81,1,1,1,3,0,NA,NA
"2287",417,82,1,1,1,2,0,NA,NA
"2288",417,83,1,1,1,4,0,NA,NA
"2289",417,84,1,1,1,3,0,NA,NA
"2290",417,85,1,1,1,1,0,NA,NA
"2291",417,86,1,1,1,2,0,NA,NA
"2292",417,87,1,1,1,3,1,NA,NA
"2293",417,88,1,1,1,4,1,NA,NA
"2294",417,89,1,1,1,1,1,NA,NA
"2295",417,90,1,1,1,4,1,NA,NA
"2296",417,91,1,1,1,5,1,NA,NA
"2297",417,92,1,1,1,1,1,NA,NA
"2298",417,93,1,1,1,2,1,NA,NA
"2299",417,94,1,1,1,1,1,NA,NA
"2300",417,95,1,1,1,2,1,NA,NA
"2301",417,96,1,1,1,1,1,NA,NA
"2302",417,97,1,1,1,3,0,NA,NA
"2303",417,98,1,1,1,4,0,NA,NA
"2304",417,99,1,1,1,3,0,NA,NA
"2305",417,100,1,1,1,2,0,NA,NA
"2306",417,101,1,1,1,1,0,NA,NA
"2307",417,102,1,1,1,3,1,NA,NA
"2308",417,103,1,1,1,4,1,NA,NA
"2309",417,104,1,1,1,1,1,NA,NA
"2310",417,105,1,1,1,4,1,NA,NA
"2311",414,1,1,1,1,6,0,NA,NA
"2312",414,2,1,1,1,2,0,NA,NA
"2313",414,3,1,1,1,5,0,NA,NA
"2314",414,4,1,1,1,4,0,NA,NA
"2315",414,5,1,1,1,4,1,NA,NA
"2316",414,6,1,1,1,3,1,NA,NA
"2317",414,7,1,1,1,3,1,NA,NA
"2318",414,8,1,1,1,5,1,NA,NA
"2319",414,9,1,1,1,5,0,NA,NA
"2320",414,10,1,1,1,4,0,NA,NA
"2321",414,11,1,1,1,5,0,NA,NA
"2322",414,12,1,1,1,4,0,NA,NA
"2323",414,13,1,1,1,4,0,NA,NA
"2324",414,14,1,1,1,6,0,NA,NA
"2325",414,15,1,1,1,5,0,NA,NA
"2326",414,16,1,1,1,5,0,NA,NA
"2327",414,17,1,1,1,3,0,NA,NA
"2328",414,18,1,1,1,2,0,NA,NA
"2329",414,19,1,1,1,5,0,NA,NA
"2330",414,20,1,1,1,3,0,NA,NA
"2331",414,21,1,1,1,2,0,NA,NA
"2332",414,22,1,1,1,3,0,NA,NA
"2333",414,23,1,1,1,2,1,NA,NA
"2334",414,24,1,1,1,5,1,NA,NA
"2335",414,25,1,1,1,5,1,NA,NA
"2336",414,26,1,1,1,5,1,NA,NA
"2337",414,27,1,1,1,4,1,NA,NA
"2338",414,28,1,1,1,3,1,NA,NA
"2339",414,29,1,1,1,5,1,NA,NA
"2340",414,30,1,1,1,3,1,NA,NA
"2341",414,31,1,1,1,5,1,NA,NA
"2342",414,32,1,1,1,2,1,NA,NA
"2343",414,33,1,1,1,4,1,NA,NA
"2344",414,34,1,1,1,1,1,NA,NA
"2345",414,35,1,1,1,4,1,NA,NA
"2346",414,36,1,1,1,5,1,NA,NA
"2347",414,37,1,1,1,4,0,NA,NA
"2348",414,38,1,1,1,4,0,NA,NA
"2349",414,39,1,1,1,3,0,NA,NA
"2350",414,40,1,1,1,4,0,NA,NA
"2351",414,41,1,1,1,5,0,NA,NA
"2352",414,42,1,1,1,2,0,NA,NA
"2353",414,43,1,1,1,3,0,NA,NA
"2354",414,44,1,1,1,3,0,NA,NA
"2355",414,45,1,1,1,3,0,NA,NA
"2356",414,46,1,1,1,6,0,NA,NA
"2357",414,47,1,1,1,4,1,NA,NA
"2358",414,48,1,1,1,2,1,NA,NA
"2359",414,49,1,1,1,2,1,NA,NA
"2360",414,50,1,1,1,5,1,NA,NA
"2361",414,51,1,1,1,3,1,NA,NA
"2362",414,52,1,1,1,5,1,NA,NA
"2363",414,53,1,1,1,5,1,NA,NA
"2364",414,54,1,1,1,4,1,NA,NA
"2365",414,55,1,1,1,4,1,NA,NA
"2366",414,56,1,1,1,4,1,NA,NA
"2367",414,57,1,1,1,2,0,NA,NA
"2368",414,58,1,1,1,5,0,NA,NA
"2369",414,59,1,1,1,6,0,NA,NA
"2370",414,60,1,1,1,5,0,NA,NA
"2371",414,61,1,1,1,3,0,NA,NA
"2372",414,62,1,1,1,1,0,NA,NA
"2373",414,63,1,1,1,4,0,NA,NA
"2374",414,64,1,1,1,5,0,NA,NA
"2375",414,65,1,1,1,6,0,NA,NA
"2376",414,66,1,1,1,5,0,NA,NA
"2377",414,67,1,1,1,2,0,NA,NA
"2378",414,68,1,1,1,3,1,NA,NA
"2379",414,69,1,1,1,4,1,NA,NA
"2380",414,70,1,1,1,4,1,NA,NA
"2381",414,71,1,1,1,3,1,NA,NA
"2382",414,72,1,1,1,6,1,NA,NA
"2383",414,73,1,1,1,4,1,NA,NA
"2384",414,74,1,1,1,5,1,NA,NA
"2385",414,75,1,1,1,4,1,NA,NA
"2386",414,76,1,1,1,2,1,NA,NA
"2387",414,77,1,1,1,6,1,NA,NA
"2388",414,78,1,1,1,3,0,NA,NA
"2389",414,79,1,1,1,3,0,NA,NA
"2390",414,80,1,1,1,4,0,NA,NA
"2391",414,81,1,1,1,2,0,NA,NA
"2392",414,82,1,1,1,4,0,NA,NA
"2393",414,83,1,1,1,2,0,NA,NA
"2394",414,84,1,1,1,3,0,NA,NA
"2395",414,85,1,1,1,4,0,NA,NA
"2396",414,86,1,1,1,4,0,NA,NA
"2397",414,87,1,1,1,3,1,NA,NA
"2398",414,88,1,1,1,5,1,NA,NA
"2399",414,89,1,1,1,4,1,NA,NA
"2400",414,90,1,1,1,4,1,NA,NA
"2401",414,91,1,1,1,3,1,NA,NA
"2402",414,92,1,1,1,5,1,NA,NA
"2403",414,93,1,1,1,3,1,NA,NA
"2404",414,94,1,1,1,4,1,NA,NA
"2405",414,95,1,1,1,4,1,NA,NA
"2406",414,96,1,1,1,4,1,NA,NA
"2407",414,97,1,1,1,3,0,NA,NA
"2408",414,98,1,1,1,4,0,NA,NA
"2409",414,99,1,1,1,3,0,NA,NA
"2410",414,100,1,1,1,4,0,NA,NA
"2411",414,101,1,1,1,5,0,NA,NA
"2412",414,102,1,1,1,5,1,NA,NA
"2413",414,103,1,1,1,3,1,NA,NA
"2414",414,104,1,1,1,3,1,NA,NA
"2415",414,105,1,1,1,3,1,NA,NA
"2416",410,1,1,1,1,1,0,NA,NA
"2417",410,2,1,1,1,1,0,NA,NA
"2418",410,3,1,1,1,1,0,NA,NA
"2419",410,4,1,1,1,1,0,NA,NA
"2420",410,5,1,1,1,1,1,NA,NA
"2421",410,6,1,1,1,4,1,NA,NA
"2422",410,7,1,1,1,1,1,NA,NA
"2423",410,8,1,1,1,1,1,NA,NA
"2424",410,9,1,1,1,1,0,NA,NA
"2425",410,10,1,1,1,1,0,NA,NA
"2426",410,11,1,1,1,1,0,NA,NA
"2427",410,12,1,1,1,1,0,NA,NA
"2428",410,13,1,1,1,1,0,NA,NA
"2429",410,14,1,1,1,1,0,NA,NA
"2430",410,15,1,1,1,4,0,NA,NA
"2431",410,16,1,1,1,1,0,NA,NA
"2432",410,17,1,1,1,1,0,NA,NA
"2433",410,18,1,1,1,1,0,NA,NA
"2434",410,19,1,1,1,4,0,NA,NA
"2435",410,20,1,1,1,1,0,NA,NA
"2436",410,21,1,1,1,1,0,NA,NA
"2437",410,22,1,1,1,1,0,NA,NA
"2438",410,23,1,1,1,1,1,NA,NA
"2439",410,24,1,1,1,3,1,NA,NA
"2440",410,25,1,1,1,1,1,NA,NA
"2441",410,26,1,1,1,1,1,NA,NA
"2442",410,27,1,1,1,1,1,NA,NA
"2443",410,28,1,1,1,1,1,NA,NA
"2444",410,29,1,1,1,1,1,NA,NA
"2445",410,30,1,1,1,1,1,NA,NA
"2446",410,31,1,1,1,1,1,NA,NA
"2447",410,32,1,1,1,1,1,NA,NA
"2448",410,33,1,1,1,1,1,NA,NA
"2449",410,34,1,1,1,1,1,NA,NA
"2450",410,35,1,1,1,1,1,NA,NA
"2451",410,36,1,1,1,1,1,NA,NA
"2452",410,37,1,1,1,1,0,NA,NA
"2453",410,38,1,1,1,1,0,NA,NA
"2454",410,39,1,1,1,1,0,NA,NA
"2455",410,40,1,1,1,1,0,NA,NA
"2456",410,41,1,1,1,2,0,NA,NA
"2457",410,42,1,1,1,4,0,NA,NA
"2458",410,43,1,1,1,2,0,NA,NA
"2459",410,44,1,1,1,1,0,NA,NA
"2460",410,45,1,1,1,1,0,NA,NA
"2461",410,46,1,1,1,1,0,NA,NA
"2462",410,47,1,1,1,1,1,NA,NA
"2463",410,48,1,1,1,3,1,NA,NA
"2464",410,49,1,1,1,1,1,NA,NA
"2465",410,50,1,1,1,1,1,NA,NA
"2466",410,51,1,1,1,1,1,NA,NA
"2467",410,52,1,1,1,1,1,NA,NA
"2468",410,53,1,1,1,1,1,NA,NA
"2469",410,54,1,1,1,1,1,NA,NA
"2470",410,55,1,1,1,1,1,NA,NA
"2471",410,56,1,1,1,1,1,NA,NA
"2472",410,57,1,1,1,2,0,NA,NA
"2473",410,58,1,1,1,1,0,NA,NA
"2474",410,59,1,1,1,1,0,NA,NA
"2475",410,60,1,1,1,2,0,NA,NA
"2476",410,61,1,1,1,1,0,NA,NA
"2477",410,62,1,1,1,2,0,NA,NA
"2478",410,63,1,1,1,2,0,NA,NA
"2479",410,64,1,1,1,1,0,NA,NA
"2480",410,65,1,1,1,1,0,NA,NA
"2481",410,66,1,1,1,1,0,NA,NA
"2482",410,67,1,1,1,1,0,NA,NA
"2483",410,68,1,1,1,1,1,NA,NA
"2484",410,69,1,1,1,1,1,NA,NA
"2485",410,70,1,1,1,1,1,NA,NA
"2486",410,71,1,1,1,1,1,NA,NA
"2487",410,72,1,1,1,1,1,NA,NA
"2488",410,73,1,1,1,1,1,NA,NA
"2489",410,74,1,1,1,1,1,NA,NA
"2490",410,75,1,1,1,1,1,NA,NA
"2491",410,76,1,1,1,2,1,NA,NA
"2492",410,77,1,1,1,1,1,NA,NA
"2493",410,78,1,1,1,1,0,NA,NA
"2494",410,79,1,1,1,1,0,NA,NA
"2495",410,80,1,1,1,1,0,NA,NA
"2496",410,81,1,1,1,1,0,NA,NA
"2497",410,82,1,1,1,1,0,NA,NA
"2498",410,83,1,1,1,1,0,NA,NA
"2499",410,84,1,1,1,1,0,NA,NA
"2500",410,85,1,1,1,1,0,NA,NA
"2501",410,86,1,1,1,1,0,NA,NA
"2502",410,87,1,1,1,1,1,NA,NA
"2503",410,88,1,1,1,5,1,NA,NA
"2504",410,89,1,1,1,1,1,NA,NA
"2505",410,90,1,1,1,1,1,NA,NA
"2506",410,91,1,1,1,1,1,NA,NA
"2507",410,92,1,1,1,1,1,NA,NA
"2508",410,93,1,1,1,1,1,NA,NA
"2509",410,94,1,1,1,1,1,NA,NA
"2510",410,95,1,1,1,1,1,NA,NA
"2511",410,96,1,1,1,1,1,NA,NA
"2512",410,97,1,1,1,1,0,NA,NA
"2513",410,98,1,1,1,1,0,NA,NA
"2514",410,99,1,1,1,1,0,NA,NA
"2515",410,100,1,1,1,1,0,NA,NA
"2516",410,101,1,1,1,1,0,NA,NA
"2517",410,102,1,1,1,1,1,NA,NA
"2518",410,103,1,1,1,4,1,NA,NA
"2519",410,104,1,1,1,1,1,NA,NA
"2520",410,105,1,1,1,1,1,NA,NA
"2521",408,1,1,1,1,2,0,NA,NA
"2522",408,2,1,1,1,5,0,NA,NA
"2523",408,3,1,1,1,4,0,NA,NA
"2524",408,4,1,1,1,2,0,NA,NA
"2525",408,5,1,1,1,2,1,NA,NA
"2526",408,6,1,1,1,1,1,NA,NA
"2527",408,7,1,1,1,2,1,NA,NA
"2528",408,8,1,1,1,5,1,NA,NA
"2529",408,9,1,1,1,2,0,NA,NA
"2530",408,10,1,1,1,2,0,NA,NA
"2531",408,11,1,1,1,2,0,NA,NA
"2532",408,12,1,1,1,4,0,NA,NA
"2533",408,13,1,1,1,5,0,NA,NA
"2534",408,14,1,1,1,2,0,NA,NA
"2535",408,15,1,1,1,2,0,NA,NA
"2536",408,16,1,1,1,4,0,NA,NA
"2537",408,17,1,1,1,4,0,NA,NA
"2538",408,18,1,1,1,2,0,NA,NA
"2539",408,19,1,1,1,2,0,NA,NA
"2540",408,20,1,1,1,2,0,NA,NA
"2541",408,21,1,1,1,4,0,NA,NA
"2542",408,22,1,1,1,3,0,NA,NA
"2543",408,23,1,1,1,2,1,NA,NA
"2544",408,24,1,1,1,2,1,NA,NA
"2545",408,25,1,1,1,3,1,NA,NA
"2546",408,26,1,1,1,2,1,NA,NA
"2547",408,27,1,1,1,4,1,NA,NA
"2548",408,28,1,1,1,4,1,NA,NA
"2549",408,29,1,1,1,2,1,NA,NA
"2550",408,30,1,1,1,5,1,NA,NA
"2551",408,31,1,1,1,4,1,NA,NA
"2552",408,32,1,1,1,5,1,NA,NA
"2553",408,33,1,1,1,4,1,NA,NA
"2554",408,34,1,1,1,4,1,NA,NA
"2555",408,35,1,1,1,5,1,NA,NA
"2556",408,36,1,1,1,5,1,NA,NA
"2557",408,37,1,1,1,5,0,NA,NA
"2558",408,38,1,1,1,2,0,NA,NA
"2559",408,39,1,1,1,2,0,NA,NA
"2560",408,40,1,1,1,1,0,NA,NA
"2561",408,41,1,1,1,1,0,NA,NA
"2562",408,42,1,1,1,2,0,NA,NA
"2563",408,43,1,1,1,2,0,NA,NA
"2564",408,44,1,1,1,2,0,NA,NA
"2565",408,45,1,1,1,3,0,NA,NA
"2566",408,46,1,1,1,5,0,NA,NA
"2567",408,47,1,1,1,4,1,NA,NA
"2568",408,48,1,1,1,4,1,NA,NA
"2569",408,49,1,1,1,2,1,NA,NA
"2570",408,50,1,1,1,5,1,NA,NA
"2571",408,51,1,1,1,5,1,NA,NA
"2572",408,52,1,1,1,5,1,NA,NA
"2573",408,53,1,1,1,5,1,NA,NA
"2574",408,54,1,1,1,3,1,NA,NA
"2575",408,55,1,1,1,2,1,NA,NA
"2576",408,56,1,1,1,3,1,NA,NA
"2577",408,57,1,1,1,1,0,NA,NA
"2578",408,58,1,1,1,2,0,NA,NA
"2579",408,59,1,1,1,2,0,NA,NA
"2580",408,60,1,1,1,2,0,NA,NA
"2581",408,61,1,1,1,2,0,NA,NA
"2582",408,62,1,1,1,2,0,NA,NA
"2583",408,63,1,1,1,5,0,NA,NA
"2584",408,64,1,1,1,4,0,NA,NA
"2585",408,65,1,1,1,4,0,NA,NA
"2586",408,66,1,1,1,4,0,NA,NA
"2587",408,67,1,1,1,4,0,NA,NA
"2588",408,68,1,1,1,2,1,NA,NA
"2589",408,69,1,1,1,4,1,NA,NA
"2590",408,70,1,1,1,3,1,NA,NA
"2591",408,71,1,1,1,5,1,NA,NA
"2592",408,72,1,1,1,4,1,NA,NA
"2593",408,73,1,1,1,2,1,NA,NA
"2594",408,74,1,1,1,2,1,NA,NA
"2595",408,75,1,1,1,1,1,NA,NA
"2596",408,76,1,1,1,5,1,NA,NA
"2597",408,77,1,1,1,2,1,NA,NA
"2598",408,78,1,1,1,2,0,NA,NA
"2599",408,79,1,1,1,4,0,NA,NA
"2600",408,80,1,1,1,5,0,NA,NA
"2601",408,81,1,1,1,4,0,NA,NA
"2602",408,82,1,1,1,4,0,NA,NA
"2603",408,83,1,1,1,2,0,NA,NA
"2604",408,84,1,1,1,3,0,NA,NA
"2605",408,85,1,1,1,2,0,NA,NA
"2606",408,86,1,1,1,2,0,NA,NA
"2607",408,87,1,1,1,1,1,NA,NA
"2608",408,88,1,1,1,4,1,NA,NA
"2609",408,89,1,1,1,2,1,NA,NA
"2610",408,90,1,1,1,5,1,NA,NA
"2611",408,91,1,1,1,5,1,NA,NA
"2612",408,92,1,1,1,4,1,NA,NA
"2613",408,93,1,1,1,2,1,NA,NA
"2614",408,94,1,1,1,4,1,NA,NA
"2615",408,95,1,1,1,4,1,NA,NA
"2616",408,96,1,1,1,5,1,NA,NA
"2617",408,97,1,1,1,5,0,NA,NA
"2618",408,98,1,1,1,3,0,NA,NA
"2619",408,99,1,1,1,4,0,NA,NA
"2620",408,100,1,1,1,4,0,NA,NA
"2621",408,101,1,1,1,1,0,NA,NA
"2622",408,102,1,1,1,2,1,NA,NA
"2623",408,103,1,1,1,2,1,NA,NA
"2624",408,104,1,1,1,1,1,NA,NA
"2625",408,105,1,1,1,5,1,NA,NA
"2626",407,1,1,1,1,5,0,NA,NA
"2627",407,2,1,1,1,5,0,NA,NA
"2628",407,3,1,1,1,4,0,NA,NA
"2629",407,4,1,1,1,3,0,NA,NA
"2630",407,5,1,1,1,5,1,NA,NA
"2631",407,6,1,1,1,3,1,NA,NA
"2632",407,7,1,1,1,5,1,NA,NA
"2633",407,8,1,1,1,5,1,NA,NA
"2634",407,9,1,1,1,4,0,NA,NA
"2635",407,10,1,1,1,5,0,NA,NA
"2636",407,11,1,1,1,5,0,NA,NA
"2637",407,12,1,1,1,5,0,NA,NA
"2638",407,13,1,1,1,5,0,NA,NA
"2639",407,14,1,1,1,3,0,NA,NA
"2640",407,15,1,1,1,6,0,NA,NA
"2641",407,16,1,1,1,5,0,NA,NA
"2642",407,17,1,1,1,5,0,NA,NA
"2643",407,18,1,1,1,2,0,NA,NA
"2644",407,19,1,1,1,5,0,NA,NA
"2645",407,20,1,1,1,3,0,NA,NA
"2646",407,21,1,1,1,2,0,NA,NA
"2647",407,22,1,1,1,4,0,NA,NA
"2648",407,23,1,1,1,5,1,NA,NA
"2649",407,24,1,1,1,5,1,NA,NA
"2650",407,25,1,1,1,3,1,NA,NA
"2651",407,26,1,1,1,5,1,NA,NA
"2652",407,27,1,1,1,6,1,NA,NA
"2653",407,28,1,1,1,4,1,NA,NA
"2654",407,29,1,1,1,6,1,NA,NA
"2655",407,30,1,1,1,5,1,NA,NA
"2656",407,31,1,1,1,5,1,NA,NA
"2657",407,32,1,1,1,4,1,NA,NA
"2658",407,33,1,1,1,5,1,NA,NA
"2659",407,34,1,1,1,5,1,NA,NA
"2660",407,35,1,1,1,4,1,NA,NA
"2661",407,36,1,1,1,4,1,NA,NA
"2662",407,37,1,1,1,3,0,NA,NA
"2663",407,38,1,1,1,3,0,NA,NA
"2664",407,39,1,1,1,6,0,NA,NA
"2665",407,40,1,1,1,5,0,NA,NA
"2666",407,41,1,1,1,3,0,NA,NA
"2667",407,42,1,1,1,5,0,NA,NA
"2668",407,43,1,1,1,5,0,NA,NA
"2669",407,44,1,1,1,5,0,NA,NA
"2670",407,45,1,1,1,5,0,NA,NA
"2671",407,46,1,1,1,4,0,NA,NA
"2672",407,47,1,1,1,4,1,NA,NA
"2673",407,48,1,1,1,4,1,NA,NA
"2674",407,49,1,1,1,3,1,NA,NA
"2675",407,50,1,1,1,5,1,NA,NA
"2676",407,51,1,1,1,4,1,NA,NA
"2677",407,52,1,1,1,5,1,NA,NA
"2678",407,53,1,1,1,3,1,NA,NA
"2679",407,54,1,1,1,4,1,NA,NA
"2680",407,55,1,1,1,4,1,NA,NA
"2681",407,56,1,1,1,5,1,NA,NA
"2682",407,57,1,1,1,3,0,NA,NA
"2683",407,58,1,1,1,6,0,NA,NA
"2684",407,59,1,1,1,5,0,NA,NA
"2685",407,60,1,1,1,5,0,NA,NA
"2686",407,61,1,1,1,6,0,NA,NA
"2687",407,62,1,1,1,4,0,NA,NA
"2688",407,63,1,1,1,5,0,NA,NA
"2689",407,64,1,1,1,6,0,NA,NA
"2690",407,65,1,1,1,4,0,NA,NA
"2691",407,66,1,1,1,5,0,NA,NA
"2692",407,67,1,1,1,4,0,NA,NA
"2693",407,68,1,1,1,6,1,NA,NA
"2694",407,69,1,1,1,5,1,NA,NA
"2695",407,70,1,1,1,6,1,NA,NA
"2696",407,71,1,1,1,4,1,NA,NA
"2697",407,72,1,1,1,6,1,NA,NA
"2698",407,73,1,1,1,5,1,NA,NA
"2699",407,74,1,1,1,5,1,NA,NA
"2700",407,75,1,1,1,5,1,NA,NA
"2701",407,76,1,1,1,3,1,NA,NA
"2702",407,77,1,1,1,6,1,NA,NA
"2703",407,78,1,1,1,5,0,NA,NA
"2704",407,79,1,1,1,5,0,NA,NA
"2705",407,80,1,1,1,5,0,NA,NA
"2706",407,81,1,1,1,4,0,NA,NA
"2707",407,82,1,1,1,5,0,NA,NA
"2708",407,83,1,1,1,5,0,NA,NA
"2709",407,84,1,1,1,6,0,NA,NA
"2710",407,85,1,1,1,4,0,NA,NA
"2711",407,86,1,1,1,5,0,NA,NA
"2712",407,87,1,1,1,5,1,NA,NA
"2713",407,88,1,1,1,6,1,NA,NA
"2714",407,89,1,1,1,5,1,NA,NA
"2715",407,90,1,1,1,5,1,NA,NA
"2716",407,91,1,1,1,4,1,NA,NA
"2717",407,92,1,1,1,4,1,NA,NA
"2718",407,93,1,1,1,5,1,NA,NA
"2719",407,94,1,1,1,5,1,NA,NA
"2720",407,95,1,1,1,6,1,NA,NA
"2721",407,96,1,1,1,5,1,NA,NA
"2722",407,97,1,1,1,4,0,NA,NA
"2723",407,98,1,1,1,4,0,NA,NA
"2724",407,99,1,1,1,4,0,NA,NA
"2725",407,100,1,1,1,6,0,NA,NA
"2726",407,101,1,1,1,3,0,NA,NA
"2727",407,102,1,1,1,3,1,NA,NA
"2728",407,103,1,1,1,4,1,NA,NA
"2729",407,104,1,1,1,5,1,NA,NA
"2730",407,105,1,1,1,4,1,NA,NA
"2731",406,1,1,1,1,1,0,NA,NA
"2732",406,2,1,1,1,1,0,NA,NA
"2733",406,3,1,1,1,1,0,NA,NA
"2734",406,4,1,1,1,1,0,NA,NA
"2735",406,5,1,1,1,1,1,NA,NA
"2736",406,6,1,1,1,2,1,NA,NA
"2737",406,7,1,1,1,2,1,NA,NA
"2738",406,8,1,1,1,1,1,NA,NA
"2739",406,9,1,1,1,4,0,NA,NA
"2740",406,10,1,1,1,1,0,NA,NA
"2741",406,11,1,1,1,1,0,NA,NA
"2742",406,12,1,1,1,1,0,NA,NA
"2743",406,13,1,1,1,2,0,NA,NA
"2744",406,14,1,1,1,4,0,NA,NA
"2745",406,15,1,1,1,2,0,NA,NA
"2746",406,16,1,1,1,4,0,NA,NA
"2747",406,17,1,1,1,2,0,NA,NA
"2748",406,18,1,1,1,1,0,NA,NA
"2749",406,19,1,1,1,1,0,NA,NA
"2750",406,20,1,1,1,1,0,NA,NA
"2751",406,21,1,1,1,4,0,NA,NA
"2752",406,22,1,1,1,4,0,NA,NA
"2753",406,23,1,1,1,2,1,NA,NA
"2754",406,24,1,1,1,5,1,NA,NA
"2755",406,25,1,1,1,1,1,NA,NA
"2756",406,26,1,1,1,1,1,NA,NA
"2757",406,27,1,1,1,1,1,NA,NA
"2758",406,28,1,1,1,5,1,NA,NA
"2759",406,29,1,1,1,4,1,NA,NA
"2760",406,30,1,1,1,1,1,NA,NA
"2761",406,31,1,1,1,5,1,NA,NA
"2762",406,32,1,1,1,1,1,NA,NA
"2763",406,33,1,1,1,3,1,NA,NA
"2764",406,34,1,1,1,1,1,NA,NA
"2765",406,35,1,1,1,2,1,NA,NA
"2766",406,36,1,1,1,1,1,NA,NA
"2767",406,37,1,1,1,1,0,NA,NA
"2768",406,38,1,1,1,1,0,NA,NA
"2769",406,39,1,1,1,1,0,NA,NA
"2770",406,40,1,1,1,1,0,NA,NA
"2771",406,41,1,1,1,4,0,NA,NA
"2772",406,42,1,1,1,1,0,NA,NA
"2773",406,43,1,1,1,2,0,NA,NA
"2774",406,44,1,1,1,2,0,NA,NA
"2775",406,45,1,1,1,1,0,NA,NA
"2776",406,46,1,1,1,2,0,NA,NA
"2777",406,47,1,1,1,5,1,NA,NA
"2778",406,48,1,1,1,4,1,NA,NA
"2779",406,49,1,1,1,2,1,NA,NA
"2780",406,50,1,1,1,4,1,NA,NA
"2781",406,51,1,1,1,1,1,NA,NA
"2782",406,52,1,1,1,1,1,NA,NA
"2783",406,53,1,1,1,2,1,NA,NA
"2784",406,54,1,1,1,5,1,NA,NA
"2785",406,55,1,1,1,1,1,NA,NA
"2786",406,56,1,1,1,1,1,NA,NA
"2787",406,57,1,1,1,4,0,NA,NA
"2788",406,58,1,1,1,2,0,NA,NA
"2789",406,59,1,1,1,4,0,NA,NA
"2790",406,60,1,1,1,1,0,NA,NA
"2791",406,61,1,1,1,2,0,NA,NA
"2792",406,62,1,1,1,1,0,NA,NA
"2793",406,63,1,1,1,1,0,NA,NA
"2794",406,64,1,1,1,1,0,NA,NA
"2795",406,65,1,1,1,2,0,NA,NA
"2796",406,66,1,1,1,5,0,NA,NA
"2797",406,67,1,1,1,1,0,NA,NA
"2798",406,68,1,1,1,2,1,NA,NA
"2799",406,69,1,1,1,1,1,NA,NA
"2800",406,70,1,1,1,2,1,NA,NA
"2801",406,71,1,1,1,1,1,NA,NA
"2802",406,72,1,1,1,2,1,NA,NA
"2803",406,73,1,1,1,1,1,NA,NA
"2804",406,74,1,1,1,5,1,NA,NA
"2805",406,75,1,1,1,1,1,NA,NA
"2806",406,76,1,1,1,4,1,NA,NA
"2807",406,77,1,1,1,4,1,NA,NA
"2808",406,78,1,1,1,5,0,NA,NA
"2809",406,79,1,1,1,1,0,NA,NA
"2810",406,80,1,1,1,4,0,NA,NA
"2811",406,81,1,1,1,3,0,NA,NA
"2812",406,82,1,1,1,2,0,NA,NA
"2813",406,83,1,1,1,6,0,NA,NA
"2814",406,84,1,1,1,2,0,NA,NA
"2815",406,85,1,1,1,3,0,NA,NA
"2816",406,86,1,1,1,2,0,NA,NA
"2817",406,87,1,1,1,4,1,NA,NA
"2818",406,88,1,1,1,5,1,NA,NA
"2819",406,89,1,1,1,1,1,NA,NA
"2820",406,90,1,1,1,4,1,NA,NA
"2821",406,91,1,1,1,4,1,NA,NA
"2822",406,92,1,1,1,4,1,NA,NA
"2823",406,93,1,1,1,1,1,NA,NA
"2824",406,94,1,1,1,1,1,NA,NA
"2825",406,95,1,1,1,5,1,NA,NA
"2826",406,96,1,1,1,5,1,NA,NA
"2827",406,97,1,1,1,2,0,NA,NA
"2828",406,98,1,1,1,2,0,NA,NA
"2829",406,99,1,1,1,4,0,NA,NA
"2830",406,100,1,1,1,4,0,NA,NA
"2831",406,101,1,1,1,3,0,NA,NA
"2832",406,102,1,1,1,3,1,NA,NA
"2833",406,103,1,1,1,5,1,NA,NA
"2834",406,104,1,1,1,2,1,NA,NA
"2835",406,105,1,1,1,2,1,NA,NA
"2836",405,1,1,1,1,5,0,NA,NA
"2837",405,2,1,1,1,4,0,NA,NA
"2838",405,3,1,1,1,1,0,NA,NA
"2839",405,4,1,1,1,3,0,NA,NA
"2840",405,5,1,1,1,4,1,NA,NA
"2841",405,6,1,1,1,3,1,NA,NA
"2842",405,7,1,1,1,5,1,NA,NA
"2843",405,8,1,1,1,5,1,NA,NA
"2844",405,9,1,1,1,4,0,NA,NA
"2845",405,10,1,1,1,5,0,NA,NA
"2846",405,11,1,1,1,5,0,NA,NA
"2847",405,12,1,1,1,4,0,NA,NA
"2848",405,13,1,1,1,4,0,NA,NA
"2849",405,14,1,1,1,3,0,NA,NA
"2850",405,15,1,1,1,3,0,NA,NA
"2851",405,16,1,1,1,4,0,NA,NA
"2852",405,17,1,1,1,4,0,NA,NA
"2853",405,18,1,1,1,2,0,NA,NA
"2854",405,19,1,1,1,3,0,NA,NA
"2855",405,20,1,1,1,2,0,NA,NA
"2856",405,21,1,1,1,3,0,NA,NA
"2857",405,22,1,1,1,5,0,NA,NA
"2858",405,23,1,1,1,2,1,NA,NA
"2859",405,24,1,1,1,6,1,NA,NA
"2860",405,25,1,1,1,6,1,NA,NA
"2861",405,26,1,1,1,5,1,NA,NA
"2862",405,27,1,1,1,5,1,NA,NA
"2863",405,28,1,1,1,4,1,NA,NA
"2864",405,29,1,1,1,3,1,NA,NA
"2865",405,30,1,1,1,6,1,NA,NA
"2866",405,31,1,1,1,6,1,NA,NA
"2867",405,32,1,1,1,6,1,NA,NA
"2868",405,33,1,1,1,5,1,NA,NA
"2869",405,34,1,1,1,4,1,NA,NA
"2870",405,35,1,1,1,3,1,NA,NA
"2871",405,36,1,1,1,3,1,NA,NA
"2872",405,37,1,1,1,6,0,NA,NA
"2873",405,38,1,1,1,4,0,NA,NA
"2874",405,39,1,1,1,4,0,NA,NA
"2875",405,40,1,1,1,3,0,NA,NA
"2876",405,41,1,1,1,4,0,NA,NA
"2877",405,42,1,1,1,4,0,NA,NA
"2878",405,43,1,1,1,3,0,NA,NA
"2879",405,44,1,1,1,3,0,NA,NA
"2880",405,45,1,1,1,3,0,NA,NA
"2881",405,46,1,1,1,5,0,NA,NA
"2882",405,47,1,1,1,4,1,NA,NA
"2883",405,48,1,1,1,4,1,NA,NA
"2884",405,49,1,1,1,2,1,NA,NA
"2885",405,50,1,1,1,4,1,NA,NA
"2886",405,51,1,1,1,4,1,NA,NA
"2887",405,52,1,1,1,4,1,NA,NA
"2888",405,53,1,1,1,5,1,NA,NA
"2889",405,54,1,1,1,6,1,NA,NA
"2890",405,55,1,1,1,6,1,NA,NA
"2891",405,56,1,1,1,5,1,NA,NA
"2892",405,57,1,1,1,3,0,NA,NA
"2893",405,58,1,1,1,3,0,NA,NA
"2894",405,59,1,1,1,5,0,NA,NA
"2895",405,60,1,1,1,1,0,NA,NA
"2896",405,61,1,1,1,4,0,NA,NA
"2897",405,62,1,1,1,4,0,NA,NA
"2898",405,63,1,1,1,3,0,NA,NA
"2899",405,64,1,1,1,4,0,NA,NA
"2900",405,65,1,1,1,2,0,NA,NA
"2901",405,66,1,1,1,2,0,NA,NA
"2902",405,67,1,1,1,4,0,NA,NA
"2903",405,68,1,1,1,3,1,NA,NA
"2904",405,69,1,1,1,4,1,NA,NA
"2905",405,70,1,1,1,4,1,NA,NA
"2906",405,71,1,1,1,6,1,NA,NA
"2907",405,72,1,1,1,5,1,NA,NA
"2908",405,73,1,1,1,2,1,NA,NA
"2909",405,74,1,1,1,5,1,NA,NA
"2910",405,75,1,1,1,4,1,NA,NA
"2911",405,76,1,1,1,3,1,NA,NA
"2912",405,77,1,1,1,4,1,NA,NA
"2913",405,78,1,1,1,4,0,NA,NA
"2914",405,79,1,1,1,5,0,NA,NA
"2915",405,80,1,1,1,2,0,NA,NA
"2916",405,81,1,1,1,4,0,NA,NA
"2917",405,82,1,1,1,4,0,NA,NA
"2918",405,83,1,1,1,4,0,NA,NA
"2919",405,84,1,1,1,3,0,NA,NA
"2920",405,85,1,1,1,5,0,NA,NA
"2921",405,86,1,1,1,3,0,NA,NA
"2922",405,87,1,1,1,4,1,NA,NA
"2923",405,88,1,1,1,4,1,NA,NA
"2924",405,89,1,1,1,5,1,NA,NA
"2925",405,90,1,1,1,5,1,NA,NA
"2926",405,91,1,1,1,4,1,NA,NA
"2927",405,92,1,1,1,6,1,NA,NA
"2928",405,93,1,1,1,4,1,NA,NA
"2929",405,94,1,1,1,3,1,NA,NA
"2930",405,95,1,1,1,3,1,NA,NA
"2931",405,96,1,1,1,5,1,NA,NA
"2932",405,97,1,1,1,4,0,NA,NA
"2933",405,98,1,1,1,3,0,NA,NA
"2934",405,99,1,1,1,5,0,NA,NA
"2935",405,100,1,1,1,4,0,NA,NA
"2936",405,101,1,1,1,4,0,NA,NA
"2937",405,102,1,1,1,3,1,NA,NA
"2938",405,103,1,1,1,3,1,NA,NA
"2939",405,104,1,1,1,3,1,NA,NA
"2940",405,105,1,1,1,3,1,NA,NA
"2941",400,1,1,1,1,3,0,NA,NA
"2942",400,2,1,1,1,4,0,NA,NA
"2943",400,3,1,1,1,4,0,NA,NA
"2944",400,4,1,1,1,2,0,NA,NA
"2945",400,5,1,1,1,4,1,NA,NA
"2946",400,6,1,1,1,4,1,NA,NA
"2947",400,7,1,1,1,3,1,NA,NA
"2948",400,8,1,1,1,2,1,NA,NA
"2949",400,9,1,1,1,4,0,NA,NA
"2950",400,10,1,1,1,4,0,NA,NA
"2951",400,11,1,1,1,4,0,NA,NA
"2952",400,12,1,1,1,5,0,NA,NA
"2953",400,13,1,1,1,2,0,NA,NA
"2954",400,14,1,1,1,4,0,NA,NA
"2955",400,15,1,1,1,4,0,NA,NA
"2956",400,16,1,1,1,4,0,NA,NA
"2957",400,17,1,1,1,4,0,NA,NA
"2958",400,18,1,1,1,5,0,NA,NA
"2959",400,19,1,1,1,4,0,NA,NA
"2960",400,20,1,1,1,4,0,NA,NA
"2961",400,21,1,1,1,5,0,NA,NA
"2962",400,22,1,1,1,4,0,NA,NA
"2963",400,23,1,1,1,4,1,NA,NA
"2964",400,24,1,1,1,4,1,NA,NA
"2965",400,25,1,1,1,4,1,NA,NA
"2966",400,26,1,1,1,4,1,NA,NA
"2967",400,27,1,1,1,2,1,NA,NA
"2968",400,28,1,1,1,3,1,NA,NA
"2969",400,29,1,1,1,3,1,NA,NA
"2970",400,30,1,1,1,4,1,NA,NA
"2971",400,31,1,1,1,5,1,NA,NA
"2972",400,32,1,1,1,4,1,NA,NA
"2973",400,33,1,1,1,4,1,NA,NA
"2974",400,34,1,1,1,5,1,NA,NA
"2975",400,35,1,1,1,4,1,NA,NA
"2976",400,36,1,1,1,3,1,NA,NA
"2977",400,37,1,1,1,4,0,NA,NA
"2978",400,38,1,1,1,4,0,NA,NA
"2979",400,39,1,1,1,5,0,NA,NA
"2980",400,40,1,1,1,4,0,NA,NA
"2981",400,41,1,1,1,5,0,NA,NA
"2982",400,42,1,1,1,5,0,NA,NA
"2983",400,43,1,1,1,4,0,NA,NA
"2984",400,44,1,1,1,4,0,NA,NA
"2985",400,45,1,1,1,4,0,NA,NA
"2986",400,46,1,1,1,4,0,NA,NA
"2987",400,47,1,1,1,2,1,NA,NA
"2988",400,48,1,1,1,2,1,NA,NA
"2989",400,49,1,1,1,5,1,NA,NA
"2990",400,50,1,1,1,3,1,NA,NA
"2991",400,51,1,1,1,4,1,NA,NA
"2992",400,52,1,1,1,5,1,NA,NA
"2993",400,53,1,1,1,5,1,NA,NA
"2994",400,54,1,1,1,4,1,NA,NA
"2995",400,55,1,1,1,3,1,NA,NA
"2996",400,56,1,1,1,5,1,NA,NA
"2997",400,57,1,1,1,4,0,NA,NA
"2998",400,58,1,1,1,2,0,NA,NA
"2999",400,59,1,1,1,4,0,NA,NA
"3000",400,60,1,1,1,3,0,NA,NA
"3001",400,61,1,1,1,4,0,NA,NA
"3002",400,62,1,1,1,4,0,NA,NA
"3003",400,63,1,1,1,4,0,NA,NA
"3004",400,64,1,1,1,4,0,NA,NA
"3005",400,65,1,1,1,4,0,NA,NA
"3006",400,66,1,1,1,5,0,NA,NA
"3007",400,67,1,1,1,1,0,NA,NA
"3008",400,68,1,1,1,3,1,NA,NA
"3009",400,69,1,1,1,5,1,NA,NA
"3010",400,70,1,1,1,2,1,NA,NA
"3011",400,71,1,1,1,3,1,NA,NA
"3012",400,72,1,1,1,5,1,NA,NA
"3013",400,73,1,1,1,4,1,NA,NA
"3014",400,74,1,1,1,4,1,NA,NA
"3015",400,75,1,1,1,4,1,NA,NA
"3016",400,76,1,1,1,3,1,NA,NA
"3017",400,77,1,1,1,4,1,NA,NA
"3018",400,78,1,1,1,3,0,NA,NA
"3019",400,79,1,1,1,4,0,NA,NA
"3020",400,80,1,1,1,4,0,NA,NA
"3021",400,81,1,1,1,4,0,NA,NA
"3022",400,82,1,1,1,5,0,NA,NA
"3023",400,83,1,1,1,4,0,NA,NA
"3024",400,84,1,1,1,4,0,NA,NA
"3025",400,85,1,1,1,3,0,NA,NA
"3026",400,86,1,1,1,4,0,NA,NA
"3027",400,87,1,1,1,3,1,NA,NA
"3028",400,88,1,1,1,4,1,NA,NA
"3029",400,89,1,1,1,5,1,NA,NA
"3030",400,90,1,1,1,5,1,NA,NA
"3031",400,91,1,1,1,4,1,NA,NA
"3032",400,92,1,1,1,3,1,NA,NA
"3033",400,93,1,1,1,2,1,NA,NA
"3034",400,94,1,1,1,4,1,NA,NA
"3035",400,95,1,1,1,3,1,NA,NA
"3036",400,96,1,1,1,5,1,NA,NA
"3037",400,97,1,1,1,4,0,NA,NA
"3038",400,98,1,1,1,4,0,NA,NA
"3039",400,99,1,1,1,2,0,NA,NA
"3040",400,100,1,1,1,4,0,NA,NA
"3041",400,101,1,1,1,5,0,NA,NA
"3042",400,102,1,1,1,3,1,NA,NA
"3043",400,103,1,1,1,4,1,NA,NA
"3044",400,104,1,1,1,2,1,NA,NA
"3045",400,105,1,1,1,3,1,NA,NA
"3046",399,1,1,1,1,4,0,NA,NA
"3047",399,2,1,1,1,2,0,NA,NA
"3048",399,3,1,1,1,1,0,NA,NA
"3049",399,4,1,1,1,2,0,NA,NA
"3050",399,5,1,1,1,1,1,NA,NA
"3051",399,6,1,1,1,2,1,NA,NA
"3052",399,7,1,1,1,5,1,NA,NA
"3053",399,8,1,1,1,2,1,NA,NA
"3054",399,9,1,1,1,2,0,NA,NA
"3055",399,10,1,1,1,1,0,NA,NA
"3056",399,11,1,1,1,1,0,NA,NA
"3057",399,12,1,1,1,4,0,NA,NA
"3058",399,13,1,1,1,4,0,NA,NA
"3059",399,14,1,1,1,2,0,NA,NA
"3060",399,15,1,1,1,3,0,NA,NA
"3061",399,16,1,1,1,4,0,NA,NA
"3062",399,17,1,1,1,3,0,NA,NA
"3063",399,18,1,1,1,2,0,NA,NA
"3064",399,19,1,1,1,4,0,NA,NA
"3065",399,20,1,1,1,1,0,NA,NA
"3066",399,21,1,1,1,1,0,NA,NA
"3067",399,22,1,1,1,3,0,NA,NA
"3068",399,23,1,1,1,2,1,NA,NA
"3069",399,24,1,1,1,4,1,NA,NA
"3070",399,25,1,1,1,2,1,NA,NA
"3071",399,26,1,1,1,2,1,NA,NA
"3072",399,27,1,1,1,4,1,NA,NA
"3073",399,28,1,1,1,3,1,NA,NA
"3074",399,29,1,1,1,3,1,NA,NA
"3075",399,30,1,1,1,1,1,NA,NA
"3076",399,31,1,1,1,6,1,NA,NA
"3077",399,32,1,1,1,3,1,NA,NA
"3078",399,33,1,1,1,3,1,NA,NA
"3079",399,34,1,1,1,4,1,NA,NA
"3080",399,35,1,1,1,3,1,NA,NA
"3081",399,36,1,1,1,2,1,NA,NA
"3082",399,37,1,1,1,4,0,NA,NA
"3083",399,38,1,1,1,3,0,NA,NA
"3084",399,39,1,1,1,1,0,NA,NA
"3085",399,40,1,1,1,2,0,NA,NA
"3086",399,41,1,1,1,3,0,NA,NA
"3087",399,42,1,1,1,3,0,NA,NA
"3088",399,43,1,1,1,3,0,NA,NA
"3089",399,44,1,1,1,2,0,NA,NA
"3090",399,45,1,1,1,4,0,NA,NA
"3091",399,46,1,1,1,1,0,NA,NA
"3092",399,47,1,1,1,3,1,NA,NA
"3093",399,48,1,1,1,3,1,NA,NA
"3094",399,49,1,1,1,4,1,NA,NA
"3095",399,50,1,1,1,4,1,NA,NA
"3096",399,51,1,1,1,4,1,NA,NA
"3097",399,52,1,1,1,4,1,NA,NA
"3098",399,53,1,1,1,4,1,NA,NA
"3099",399,54,1,1,1,2,1,NA,NA
"3100",399,55,1,1,1,4,1,NA,NA
"3101",399,56,1,1,1,3,1,NA,NA
"3102",399,57,1,1,1,2,0,NA,NA
"3103",399,58,1,1,1,4,0,NA,NA
"3104",399,59,1,1,1,1,0,NA,NA
"3105",399,60,1,1,1,3,0,NA,NA
"3106",399,61,1,1,1,2,0,NA,NA
"3107",399,62,1,1,1,3,0,NA,NA
"3108",399,63,1,1,1,2,0,NA,NA
"3109",399,64,1,1,1,5,0,NA,NA
"3110",399,65,1,1,1,5,0,NA,NA
"3111",399,66,1,1,1,5,0,NA,NA
"3112",399,67,1,1,1,4,0,NA,NA
"3113",399,68,1,1,1,2,1,NA,NA
"3114",399,69,1,1,1,3,1,NA,NA
"3115",399,70,1,1,1,4,1,NA,NA
"3116",399,71,1,1,1,3,1,NA,NA
"3117",399,72,1,1,1,4,1,NA,NA
"3118",399,73,1,1,1,2,1,NA,NA
"3119",399,74,1,1,1,4,1,NA,NA
"3120",399,75,1,1,1,5,1,NA,NA
"3121",399,76,1,1,1,5,1,NA,NA
"3122",399,77,1,1,1,4,1,NA,NA
"3123",399,78,1,1,1,3,0,NA,NA
"3124",399,79,1,1,1,3,0,NA,NA
"3125",399,80,1,1,1,4,0,NA,NA
"3126",399,81,1,1,1,4,0,NA,NA
"3127",399,82,1,1,1,3,0,NA,NA
"3128",399,83,1,1,1,4,0,NA,NA
"3129",399,84,1,1,1,3,0,NA,NA
"3130",399,85,1,1,1,3,0,NA,NA
"3131",399,86,1,1,1,2,0,NA,NA
"3132",399,87,1,1,1,4,1,NA,NA
"3133",399,88,1,1,1,6,1,NA,NA
"3134",399,89,1,1,1,2,1,NA,NA
"3135",399,90,1,1,1,3,1,NA,NA
"3136",399,91,1,1,1,3,1,NA,NA
"3137",399,92,1,1,1,4,1,NA,NA
"3138",399,93,1,1,1,3,1,NA,NA
"3139",399,94,1,1,1,4,1,NA,NA
"3140",399,95,1,1,1,4,1,NA,NA
"3141",399,96,1,1,1,2,1,NA,NA
"3142",399,97,1,1,1,2,0,NA,NA
"3143",399,98,1,1,1,2,0,NA,NA
"3144",399,99,1,1,1,4,0,NA,NA
"3145",399,100,1,1,1,2,0,NA,NA
"3146",399,101,1,1,1,2,0,NA,NA
"3147",399,102,1,1,1,3,1,NA,NA
"3148",399,103,1,1,1,4,1,NA,NA
"3149",399,104,1,1,1,2,1,NA,NA
"3150",399,105,1,1,1,2,1,NA,NA
"3151",395,1,1,1,1,1,0,NA,NA
"3152",395,2,1,1,1,4,0,NA,NA
"3153",395,3,1,1,1,1,0,NA,NA
"3154",395,4,1,1,1,3,0,NA,NA
"3155",395,5,1,1,1,1,1,NA,NA
"3156",395,6,1,1,1,1,1,NA,NA
"3157",395,7,1,1,1,3,1,NA,NA
"3158",395,8,1,1,1,2,1,NA,NA
"3159",395,9,1,1,1,4,0,NA,NA
"3160",395,10,1,1,1,1,0,NA,NA
"3161",395,11,1,1,1,1,0,NA,NA
"3162",395,12,1,1,1,1,0,NA,NA
"3163",395,13,1,1,1,3,0,NA,NA
"3164",395,14,1,1,1,4,0,NA,NA
"3165",395,15,1,1,1,1,0,NA,NA
"3166",395,16,1,1,1,3,0,NA,NA
"3167",395,17,1,1,1,3,0,NA,NA
"3168",395,18,1,1,1,3,0,NA,NA
"3169",395,19,1,1,1,2,0,NA,NA
"3170",395,20,1,1,1,3,0,NA,NA
"3171",395,21,1,1,1,1,0,NA,NA
"3172",395,22,1,1,1,2,0,NA,NA
"3173",395,23,1,1,1,1,1,NA,NA
"3174",395,24,1,1,1,3,1,NA,NA
"3175",395,25,1,1,1,1,1,NA,NA
"3176",395,26,1,1,1,3,1,NA,NA
"3177",395,27,1,1,1,5,1,NA,NA
"3178",395,28,1,1,1,3,1,NA,NA
"3179",395,29,1,1,1,2,1,NA,NA
"3180",395,30,1,1,1,2,1,NA,NA
"3181",395,31,1,1,1,2,1,NA,NA
"3182",395,32,1,1,1,1,1,NA,NA
"3183",395,33,1,1,1,5,1,NA,NA
"3184",395,34,1,1,1,2,1,NA,NA
"3185",395,35,1,1,1,6,1,NA,NA
"3186",395,36,1,1,1,1,1,NA,NA
"3187",395,37,1,1,1,4,0,NA,NA
"3188",395,38,1,1,1,3,0,NA,NA
"3189",395,39,1,1,1,2,0,NA,NA
"3190",395,40,1,1,1,1,0,NA,NA
"3191",395,41,1,1,1,2,0,NA,NA
"3192",395,42,1,1,1,1,0,NA,NA
"3193",395,43,1,1,1,2,0,NA,NA
"3194",395,44,1,1,1,1,0,NA,NA
"3195",395,45,1,1,1,1,0,NA,NA
"3196",395,46,1,1,1,1,0,NA,NA
"3197",395,47,1,1,1,1,1,NA,NA
"3198",395,48,1,1,1,4,1,NA,NA
"3199",395,49,1,1,1,2,1,NA,NA
"3200",395,50,1,1,1,4,1,NA,NA
"3201",395,51,1,1,1,4,1,NA,NA
"3202",395,52,1,1,1,2,1,NA,NA
"3203",395,53,1,1,1,5,1,NA,NA
"3204",395,54,1,1,1,1,1,NA,NA
"3205",395,55,1,1,1,4,1,NA,NA
"3206",395,56,1,1,1,2,1,NA,NA
"3207",395,57,1,1,1,5,0,NA,NA
"3208",395,58,1,1,1,6,0,NA,NA
"3209",395,59,1,1,1,1,0,NA,NA
"3210",395,60,1,1,1,1,0,NA,NA
"3211",395,61,1,1,1,3,0,NA,NA
"3212",395,62,1,1,1,1,0,NA,NA
"3213",395,63,1,1,1,1,0,NA,NA
"3214",395,64,1,1,1,1,0,NA,NA
"3215",395,65,1,1,1,4,0,NA,NA
"3216",395,66,1,1,1,5,0,NA,NA
"3217",395,67,1,1,1,2,0,NA,NA
"3218",395,68,1,1,1,4,1,NA,NA
"3219",395,69,1,1,1,4,1,NA,NA
"3220",395,70,1,1,1,3,1,NA,NA
"3221",395,71,1,1,1,4,1,NA,NA
"3222",395,72,1,1,1,1,1,NA,NA
"3223",395,73,1,1,1,2,1,NA,NA
"3224",395,74,1,1,1,3,1,NA,NA
"3225",395,75,1,1,1,2,1,NA,NA
"3226",395,76,1,1,1,2,1,NA,NA
"3227",395,77,1,1,1,3,1,NA,NA
"3228",395,78,1,1,1,3,0,NA,NA
"3229",395,79,1,1,1,4,0,NA,NA
"3230",395,80,1,1,1,2,0,NA,NA
"3231",395,81,1,1,1,4,0,NA,NA
"3232",395,82,1,1,1,2,0,NA,NA
"3233",395,83,1,1,1,4,0,NA,NA
"3234",395,84,1,1,1,5,0,NA,NA
"3235",395,85,1,1,1,1,0,NA,NA
"3236",395,86,1,1,1,3,0,NA,NA
"3237",395,87,1,1,1,4,1,NA,NA
"3238",395,88,1,1,1,5,1,NA,NA
"3239",395,89,1,1,1,2,1,NA,NA
"3240",395,90,1,1,1,1,1,NA,NA
"3241",395,91,1,1,1,6,1,NA,NA
"3242",395,92,1,1,1,1,1,NA,NA
"3243",395,93,1,1,1,2,1,NA,NA
"3244",395,94,1,1,1,4,1,NA,NA
"3245",395,95,1,1,1,3,1,NA,NA
"3246",395,96,1,1,1,1,1,NA,NA
"3247",395,97,1,1,1,5,0,NA,NA
"3248",395,98,1,1,1,1,0,NA,NA
"3249",395,99,1,1,1,2,0,NA,NA
"3250",395,100,1,1,1,4,0,NA,NA
"3251",395,101,1,1,1,6,0,NA,NA
"3252",395,102,1,1,1,2,1,NA,NA
"3253",395,103,1,1,1,3,1,NA,NA
"3254",395,104,1,1,1,1,1,NA,NA
"3255",395,105,1,1,1,2,1,NA,NA
"3256",388,1,1,1,1,1,0,NA,NA
"3257",388,2,1,1,1,1,0,NA,NA
"3258",388,3,1,1,1,2,0,NA,NA
"3259",388,4,1,1,1,3,0,NA,NA
"3260",388,5,1,1,1,4,1,NA,NA
"3261",388,6,1,1,1,3,1,NA,NA
"3262",388,7,1,1,1,2,1,NA,NA
"3263",388,8,1,1,1,4,1,NA,NA
"3264",388,9,1,1,1,4,0,NA,NA
"3265",388,10,1,1,1,1,0,NA,NA
"3266",388,11,1,1,1,2,0,NA,NA
"3267",388,12,1,1,1,2,0,NA,NA
"3268",388,13,1,1,1,3,0,NA,NA
"3269",388,14,1,1,1,4,0,NA,NA
"3270",388,15,1,1,1,2,0,NA,NA
"3271",388,16,1,1,1,4,0,NA,NA
"3272",388,17,1,1,1,2,0,NA,NA
"3273",388,18,1,1,1,2,0,NA,NA
"3274",388,19,1,1,1,3,0,NA,NA
"3275",388,20,1,1,1,1,0,NA,NA
"3276",388,21,1,1,1,4,0,NA,NA
"3277",388,22,1,1,1,4,0,NA,NA
"3278",388,23,1,1,1,2,1,NA,NA
"3279",388,24,1,1,1,4,1,NA,NA
"3280",388,25,1,1,1,1,1,NA,NA
"3281",388,26,1,1,1,4,1,NA,NA
"3282",388,27,1,1,1,3,1,NA,NA
"3283",388,28,1,1,1,4,1,NA,NA
"3284",388,29,1,1,1,4,1,NA,NA
"3285",388,30,1,1,1,2,1,NA,NA
"3286",388,31,1,1,1,3,1,NA,NA
"3287",388,32,1,1,1,4,1,NA,NA
"3288",388,33,1,1,1,4,1,NA,NA
"3289",388,34,1,1,1,2,1,NA,NA
"3290",388,35,1,1,1,2,1,NA,NA
"3291",388,36,1,1,1,2,1,NA,NA
"3292",388,37,1,1,1,3,0,NA,NA
"3293",388,38,1,1,1,4,0,NA,NA
"3294",388,39,1,1,1,3,0,NA,NA
"3295",388,40,1,1,1,2,0,NA,NA
"3296",388,41,1,1,1,4,0,NA,NA
"3297",388,42,1,1,1,2,0,NA,NA
"3298",388,43,1,1,1,2,0,NA,NA
"3299",388,44,1,1,1,3,0,NA,NA
"3300",388,45,1,1,1,4,0,NA,NA
"3301",388,46,1,1,1,1,0,NA,NA
"3302",388,47,1,1,1,4,1,NA,NA
"3303",388,48,1,1,1,4,1,NA,NA
"3304",388,49,1,1,1,4,1,NA,NA
"3305",388,50,1,1,1,4,1,NA,NA
"3306",388,51,1,1,1,3,1,NA,NA
"3307",388,52,1,1,1,2,1,NA,NA
"3308",388,53,1,1,1,4,1,NA,NA
"3309",388,54,1,1,1,2,1,NA,NA
"3310",388,55,1,1,1,2,1,NA,NA
"3311",388,56,1,1,1,1,1,NA,NA
"3312",388,57,1,1,1,4,0,NA,NA
"3313",388,58,1,1,1,2,0,NA,NA
"3314",388,59,1,1,1,2,0,NA,NA
"3315",388,60,1,1,1,1,0,NA,NA
"3316",388,61,1,1,1,2,0,NA,NA
"3317",388,62,1,1,1,2,0,NA,NA
"3318",388,63,1,1,1,1,0,NA,NA
"3319",388,64,1,1,1,2,0,NA,NA
"3320",388,65,1,1,1,2,0,NA,NA
"3321",388,66,1,1,1,4,0,NA,NA
"3322",388,67,1,1,1,2,0,NA,NA
"3323",388,68,1,1,1,4,1,NA,NA
"3324",388,69,1,1,1,2,1,NA,NA
"3325",388,70,1,1,1,4,1,NA,NA
"3326",388,71,1,1,1,3,1,NA,NA
"3327",388,72,1,1,1,4,1,NA,NA
"3328",388,73,1,1,1,3,1,NA,NA
"3329",388,74,1,1,1,3,1,NA,NA
"3330",388,75,1,1,1,4,1,NA,NA
"3331",388,76,1,1,1,3,1,NA,NA
"3332",388,77,1,1,1,4,1,NA,NA
"3333",388,78,1,1,1,2,0,NA,NA
"3334",388,79,1,1,1,4,0,NA,NA
"3335",388,80,1,1,1,2,0,NA,NA
"3336",388,81,1,1,1,3,0,NA,NA
"3337",388,82,1,1,1,2,0,NA,NA
"3338",388,83,1,1,1,4,0,NA,NA
"3339",388,84,1,1,1,4,0,NA,NA
"3340",388,85,1,1,1,3,0,NA,NA
"3341",388,86,1,1,1,2,0,NA,NA
"3342",388,87,1,1,1,3,1,NA,NA
"3343",388,88,1,1,1,4,1,NA,NA
"3344",388,89,1,1,1,4,1,NA,NA
"3345",388,90,1,1,1,4,1,NA,NA
"3346",388,91,1,1,1,2,1,NA,NA
"3347",388,92,1,1,1,4,1,NA,NA
"3348",388,93,1,1,1,4,1,NA,NA
"3349",388,94,1,1,1,2,1,NA,NA
"3350",388,95,1,1,1,2,1,NA,NA
"3351",388,96,1,1,1,3,1,NA,NA
"3352",388,97,1,1,1,4,0,NA,NA
"3353",388,98,1,1,1,4,0,NA,NA
"3354",388,99,1,1,1,4,0,NA,NA
"3355",388,100,1,1,1,4,0,NA,NA
"3356",388,101,1,1,1,4,0,NA,NA
"3357",388,102,1,1,1,2,1,NA,NA
"3358",388,103,1,1,1,4,1,NA,NA
"3359",388,104,1,1,1,4,1,NA,NA
"3360",388,105,1,1,1,4,1,NA,NA
"3361",387,1,1,1,1,5,0,NA,NA
"3362",387,2,1,1,1,4,0,NA,NA
"3363",387,3,1,1,1,5,0,NA,NA
"3364",387,4,1,1,1,5,0,NA,NA
"3365",387,5,1,1,1,5,1,NA,NA
"3366",387,6,1,1,1,5,1,NA,NA
"3367",387,7,1,1,1,5,1,NA,NA
"3368",387,8,1,1,1,4,1,NA,NA
"3369",387,9,1,1,1,5,0,NA,NA
