"","subject","within_identifier","statement_identifier","presentation_identifier","statement_number","statement_accuracy","statement_text","response","repeated","rt","trial"
"1","7","true_50",1,1,1,1,NA,1,1,0.997,NA
"2","7","true_50",2,1,2,1,NA,1,1,2.428,NA
"3","7","true_50",3,1,3,1,NA,1,1,3.914,NA
"4","7","true_50",4,1,4,1,NA,1,1,1.332,NA
"5","7","true_50",5,1,5,1,NA,1,1,0.489,NA
"6","7","true_60",6,1,6,1,NA,1,1,0.861,NA
"7","7","true_60",7,1,7,1,NA,0,1,3.38,NA
"8","7","true_60",8,1,8,1,NA,0,1,0.716,NA
"9","7","true_60",9,1,9,1,NA,1,1,1.036,NA
"10","7","true_60",10,1,10,1,NA,1,1,4.115,NA
"11","7","true_70",11,1,11,1,NA,1,1,5.328,NA
"12","7","true_70",12,1,12,1,NA,1,1,2.293,NA
"13","7","true_70",13,1,13,1,NA,1,1,1.279,NA
"14","7","true_70",14,1,14,1,NA,1,1,2.305,NA
"15","7","true_70",15,1,15,1,NA,1,1,0.769,NA
"16","7","false_50",16,1,16,1,NA,1,1,1.703,NA
"17","7","false_50",17,1,17,1,NA,1,1,3.336,NA
"18","7","false_50",18,1,18,1,NA,0,1,3.475,NA
"19","7","false_50",19,1,19,1,NA,0,1,4.465,NA
"20","7","false_50",20,1,20,1,NA,0,1,1.12,NA
"21","7","false_60",21,1,21,1,NA,0,1,1.762,NA
"22","7","false_60",22,1,22,1,NA,0,1,1.28,NA
"23","7","false_60",23,1,23,1,NA,0,1,0.907,NA
"24","7","false_60",24,1,24,1,NA,0,1,2.218,NA
"25","7","false_60",25,1,25,1,NA,0,1,0.945,NA
"26","7","false_70",26,1,26,1,NA,0,1,3.137,NA
"27","7","false_70",27,1,27,1,NA,1,1,6.031,NA
"28","7","false_70",28,1,28,1,NA,1,1,0.571,NA
"29","7","false_70",29,1,29,1,NA,0,1,0.717,NA
"30","7","false_70",30,1,30,1,NA,0,1,0.53,NA
"31","7","true_50",31,1,31,1,NA,0,0,3.795,NA
"32","7","true_50",32,1,32,1,NA,1,0,0.608,NA
"33","7","true_50",33,1,33,1,NA,0,0,2.003,NA
"34","7","true_50",34,1,34,1,NA,1,0,1.212,NA
"35","7","true_50",35,1,35,1,NA,1,0,0.849,NA
"36","7","true_60",36,1,36,1,NA,1,0,0.822,NA
"37","7","true_60",37,1,37,1,NA,1,0,2.895,NA
"38","7","true_60",38,1,38,1,NA,1,0,1.493,NA
"39","7","true_60",39,1,39,1,NA,1,0,1.128,NA
"40","7","true_60",40,1,40,1,NA,1,0,3.308,NA
"41","7","true_70",41,1,41,1,NA,1,0,2.039,NA
"42","7","true_70",42,1,42,1,NA,1,0,0.984,NA
"43","7","true_70",43,1,43,1,NA,1,0,0.78,NA
"44","7","true_70",44,1,44,1,NA,0,0,1.697,NA
"45","7","true_70",45,1,45,1,NA,1,0,1.009,NA
"46","7","false_50",46,1,46,1,NA,1,0,2.358,NA
"47","7","false_50",47,1,47,1,NA,1,0,6.185,NA
"48","7","false_50",48,1,48,1,NA,1,0,3.482,NA
"49","7","false_50",49,1,49,1,NA,0,0,3.059,NA
"50","7","false_50",50,1,50,1,NA,0,0,6.098,NA
"51","7","false_60",51,1,51,1,NA,0,0,1.399,NA
"52","7","false_60",52,1,52,1,NA,0,0,1.666,NA
"53","7","false_60",53,1,53,1,NA,0,0,0.653,NA
"54","7","false_60",54,1,54,1,NA,0,0,2.297,NA
"55","7","false_60",55,1,55,1,NA,0,0,3.112,NA
"56","7","false_70",56,1,56,1,NA,0,0,0.787,NA
"57","7","false_70",57,1,57,1,NA,0,0,0.987,NA
"58","7","false_70",58,1,58,1,NA,0,0,1.241,NA
"59","7","false_70",59,1,59,1,NA,0,0,1.265,NA
"60","7","false_70",60,1,60,1,NA,0,0,1.052,NA
"61","7","true_50",61,1,61,0,NA,0,1,2.124,NA
"62","7","true_50",62,1,62,0,NA,0,1,0.436,NA
"63","7","true_50",63,1,63,0,NA,0,1,1.01,NA
"64","7","true_50",64,1,64,0,NA,1,1,0.701,NA
"65","7","true_50",65,1,65,0,NA,1,1,0.835,NA
"66","7","true_60",66,1,66,0,NA,1,1,3.23,NA
"67","7","true_60",67,1,67,0,NA,1,1,0.649,NA
"68","7","true_60",68,1,68,0,NA,0,1,3.261,NA
"69","7","true_60",69,1,69,0,NA,1,1,2.081,NA
"70","7","true_60",70,1,70,0,NA,0,1,0.881,NA
"71","7","true_70",71,1,71,0,NA,1,1,1.516,NA
"72","7","true_70",72,1,72,0,NA,1,1,0.636,NA
"73","7","true_70",73,1,73,0,NA,1,1,1.57,NA
"74","7","true_70",74,1,74,0,NA,1,1,0.848,NA
"75","7","true_70",75,1,75,0,NA,1,1,2.133,NA
"76","7","false_50",76,1,76,0,NA,0,1,0.596,NA
"77","7","false_50",77,1,77,0,NA,0,1,1.201,NA
"78","7","false_50",78,1,78,0,NA,0,1,1.616,NA
"79","7","false_50",79,1,79,0,NA,0,1,0.745,NA
"80","7","false_50",80,1,80,0,NA,1,1,1.372,NA
"81","7","false_60",81,1,81,0,NA,0,1,0.787,NA
"82","7","false_60",82,1,82,0,NA,0,1,2.241,NA
"83","7","false_60",83,1,83,0,NA,0,1,2.606,NA
"84","7","false_60",84,1,84,0,NA,0,1,0.987,NA
"85","7","false_60",85,1,85,0,NA,1,1,0.45,NA
"86","7","false_70",86,1,86,0,NA,0,1,3.285,NA
"87","7","false_70",87,1,87,0,NA,0,1,0.543,NA
"88","7","false_70",88,1,88,0,NA,0,1,1.252,NA
"89","7","false_70",89,1,89,0,NA,0,1,1.586,NA
"90","7","false_70",90,1,90,0,NA,0,1,1.737,NA
"91","7","true_50",91,1,91,0,NA,0,0,3.393,NA
"92","7","true_50",92,1,92,0,NA,0,0,0.97,NA
"93","7","true_50",93,1,93,0,NA,1,0,0.73,NA
"94","7","true_50",94,1,94,0,NA,0,0,1.212,NA
"95","7","true_50",95,1,95,0,NA,1,0,1.823,NA
"96","7","true_60",96,1,96,0,NA,1,0,2.239,NA
"97","7","true_60",97,1,97,0,NA,1,0,2.041,NA
"98","7","true_60",98,1,98,0,NA,1,0,0.727,NA
"99","7","true_60",99,1,99,0,NA,1,0,2.175,NA
"100","7","true_60",100,1,100,0,NA,1,0,0.944,NA
"101","7","true_70",101,1,101,0,NA,1,0,1.238,NA
"102","7","true_70",102,1,102,0,NA,1,0,1.104,NA
"103","7","true_70",103,1,103,0,NA,1,0,1.318,NA
"104","7","true_70",104,1,104,0,NA,1,0,1.636,NA
"105","7","true_70",105,1,105,0,NA,1,0,1.306,NA
"106","7","false_50",106,1,106,0,NA,0,0,0.786,NA
"107","7","false_50",107,1,107,0,NA,1,0,3.122,NA
"108","7","false_50",108,1,108,0,NA,0,0,4.544,NA
"109","7","false_50",109,1,109,0,NA,0,0,2.927,NA
"110","7","false_50",110,1,110,0,NA,0,0,1.201,NA
"111","7","false_60",111,1,111,0,NA,1,0,4.285,NA
"112","7","false_60",112,1,112,0,NA,0,0,0.904,NA
"113","7","false_60",113,1,113,0,NA,0,0,3.189,NA
"114","7","false_60",114,1,114,0,NA,0,0,2.588,NA
"115","7","false_60",115,1,115,0,NA,0,0,6.694,NA
"116","7","false_70",116,1,116,0,NA,0,0,6.482,NA
"117","7","false_70",117,1,117,0,NA,0,0,0.65,NA
"118","7","false_70",118,1,118,0,NA,1,0,3.215,NA
"119","7","false_70",119,1,119,0,NA,0,0,0.891,NA
"120","7","false_70",120,1,120,0,NA,0,0,2.149,NA
"121","14","true_50",1,1,1,1,NA,1,1,2.278,NA
"122","14","true_50",2,1,2,1,NA,1,1,3.024,NA
"123","14","true_50",3,1,3,1,NA,1,1,7.685,NA
"124","14","true_50",4,1,4,1,NA,1,1,1.952,NA
"125","14","true_50",5,1,5,1,NA,0,1,2.24,NA
"126","14","true_60",6,1,6,1,NA,0,1,3.349,NA
"127","14","true_60",7,1,7,1,NA,1,1,3.542,NA
"128","14","true_60",8,1,8,1,NA,1,1,1.686,NA
"129","14","true_60",9,1,9,1,NA,0,1,6.111,NA
"130","14","true_60",10,1,10,1,NA,1,1,4.693,NA
"131","14","true_70",11,1,11,1,NA,0,1,2.13,NA
"132","14","true_70",12,1,12,1,NA,0,1,2.209,NA
"133","14","true_70",13,1,13,1,NA,0,1,6.669,NA
"134","14","true_70",14,1,14,1,NA,1,1,4.465,NA
"135","14","true_70",15,1,15,1,NA,0,1,3.642,NA
"136","14","false_50",16,1,16,1,NA,1,1,2.288,NA
"137","14","false_50",17,1,17,1,NA,1,1,1.917,NA
"138","14","false_50",18,1,18,1,NA,0,1,3.509,NA
"139","14","false_50",19,1,19,1,NA,1,1,3.129,NA
"140","14","false_50",20,1,20,1,NA,0,1,3.108,NA
"141","14","false_60",21,1,21,1,NA,0,1,2.371,NA
"142","14","false_60",22,1,22,1,NA,0,1,5.62,NA
"143","14","false_60",23,1,23,1,NA,1,1,3.942,NA
"144","14","false_60",24,1,24,1,NA,0,1,1.958,NA
"145","14","false_60",25,1,25,1,NA,0,1,4.415,NA
"146","14","false_70",26,1,26,1,NA,0,1,5.028,NA
"147","14","false_70",27,1,27,1,NA,0,1,6.736,NA
"148","14","false_70",28,1,28,1,NA,0,1,4.533,NA
"149","14","false_70",29,1,29,1,NA,0,1,3.441,NA
"150","14","false_70",30,1,30,1,NA,0,1,4.456,NA
"151","14","true_50",31,1,31,1,NA,0,0,5.084,NA
"152","14","true_50",32,1,32,1,NA,0,0,6.262,NA
"153","14","true_50",33,1,33,1,NA,0,0,3.443,NA
"154","14","true_50",34,1,34,1,NA,1,0,3.703,NA
"155","14","true_50",35,1,35,1,NA,1,0,3.625,NA
"156","14","true_60",36,1,36,1,NA,0,0,3.293,NA
"157","14","true_60",37,1,37,1,NA,0,0,7.581,NA
"158","14","true_60",38,1,38,1,NA,1,0,2.807,NA
"159","14","true_60",39,1,39,1,NA,0,0,4.651,NA
"160","14","true_60",40,1,40,1,NA,1,0,2.743,NA
"161","14","true_70",41,1,41,1,NA,0,0,4.373,NA
"162","14","true_70",42,1,42,1,NA,1,0,3.237,NA
"163","14","true_70",43,1,43,1,NA,1,0,4.773,NA
"164","14","true_70",44,1,44,1,NA,0,0,4.041,NA
"165","14","true_70",45,1,45,1,NA,0,0,10.893,NA
"166","14","false_50",46,1,46,1,NA,1,0,5.949,NA
"167","14","false_50",47,1,47,1,NA,1,0,8.664,NA
"168","14","false_50",48,1,48,1,NA,0,0,6.099,NA
"169","14","false_50",49,1,49,1,NA,0,0,5.778,NA
"170","14","false_50",50,1,50,1,NA,0,0,6.162,NA
"171","14","false_60",51,1,51,1,NA,1,0,3.701,NA
"172","14","false_60",52,1,52,1,NA,0,0,7.138,NA
"173","14","false_60",53,1,53,1,NA,1,0,3.116,NA
"174","14","false_60",54,1,54,1,NA,0,0,4.108,NA
"175","14","false_60",55,1,55,1,NA,0,0,3.186,NA
"176","14","false_70",56,1,56,1,NA,1,0,7.337,NA
"177","14","false_70",57,1,57,1,NA,0,0,5.272,NA
"178","14","false_70",58,1,58,1,NA,1,0,2.275,NA
"179","14","false_70",59,1,59,1,NA,0,0,6.94,NA
"180","14","false_70",60,1,60,1,NA,1,0,9.22,NA
"181","14","true_50",61,1,61,0,NA,1,1,3.026,NA
"182","14","true_50",62,1,62,0,NA,0,1,6.313,NA
"183","14","true_50",63,1,63,0,NA,0,1,3.83,NA
"184","14","true_50",64,1,64,0,NA,1,1,3.557,NA
"185","14","true_50",65,1,65,0,NA,1,1,1.732,NA
"186","14","true_60",66,1,66,0,NA,1,1,4.13,NA
"187","14","true_60",67,1,67,0,NA,1,1,2.366,NA
"188","14","true_60",68,1,68,0,NA,0,1,3.336,NA
"189","14","true_60",69,1,69,0,NA,1,1,7.474,NA
"190","14","true_60",70,1,70,0,NA,1,1,6.228,NA
"191","14","true_70",71,1,71,0,NA,1,1,2.599,NA
"192","14","true_70",72,1,72,0,NA,0,1,5.618,NA
"193","14","true_70",73,1,73,0,NA,0,1,3.626,NA
"194","14","true_70",74,1,74,0,NA,0,1,2.947,NA
"195","14","true_70",75,1,75,0,NA,0,1,2.85,NA
"196","14","false_50",76,1,76,0,NA,0,1,6.029,NA
"197","14","false_50",77,1,77,0,NA,0,1,3.643,NA
"198","14","false_50",78,1,78,0,NA,0,1,5.297,NA
"199","14","false_50",79,1,79,0,NA,0,1,3.748,NA
"200","14","false_50",80,1,80,0,NA,0,1,3.426,NA
"201","14","false_60",81,1,81,0,NA,0,1,2.077,NA
"202","14","false_60",82,1,82,0,NA,1,1,4.96,NA
"203","14","false_60",83,1,83,0,NA,0,1,3.015,NA
"204","14","false_60",84,1,84,0,NA,0,1,2.09,NA
"205","14","false_60",85,1,85,0,NA,0,1,5.458,NA
"206","14","false_70",86,1,86,0,NA,0,1,21.923,NA
"207","14","false_70",87,1,87,0,NA,1,1,2.782,NA
"208","14","false_70",88,1,88,0,NA,0,1,5.201,NA
"209","14","false_70",89,1,89,0,NA,0,1,5.054,NA
"210","14","false_70",90,1,90,0,NA,1,1,3.638,NA
"211","14","true_50",91,1,91,0,NA,0,0,2.828,NA
"212","14","true_50",92,1,92,0,NA,1,0,4.334,NA
"213","14","true_50",93,1,93,0,NA,0,0,4.336,NA
"214","14","true_50",94,1,94,0,NA,0,0,3.827,NA
"215","14","true_50",95,1,95,0,NA,0,0,2.251,NA
"216","14","true_60",96,1,96,0,NA,1,0,2.943,NA
"217","14","true_60",97,1,97,0,NA,1,0,5.04,NA
"218","14","true_60",98,1,98,0,NA,0,0,4.643,NA
"219","14","true_60",99,1,99,0,NA,0,0,7.007,NA
"220","14","true_60",100,1,100,0,NA,1,0,6.733,NA
"221","14","true_70",101,1,101,0,NA,0,0,7.315,NA
"222","14","true_70",102,1,102,0,NA,0,0,6.034,NA
"223","14","true_70",103,1,103,0,NA,1,0,5.967,NA
"224","14","true_70",104,1,104,0,NA,1,0,4.921,NA
"225","14","true_70",105,1,105,0,NA,0,0,7.032,NA
"226","14","false_50",106,1,106,0,NA,0,0,6.457,NA
"227","14","false_50",107,1,107,0,NA,0,0,4.802,NA
"228","14","false_50",108,1,108,0,NA,0,0,2.56,NA
"229","14","false_50",109,1,109,0,NA,1,0,3.974,NA
"230","14","false_50",110,1,110,0,NA,1,0,5.778,NA
"231","14","false_60",111,1,111,0,NA,0,0,3.495,NA
"232","14","false_60",112,1,112,0,NA,1,0,1.833,NA
"233","14","false_60",113,1,113,0,NA,0,0,4.455,NA
"234","14","false_60",114,1,114,0,NA,0,0,5.351,NA
"235","14","false_60",115,1,115,0,NA,0,0,3.385,NA
"236","14","false_70",116,1,116,0,NA,1,0,10.009,NA
"237","14","false_70",117,1,117,0,NA,0,0,2.999,NA
"238","14","false_70",118,1,118,0,NA,1,0,3.212,NA
"239","14","false_70",119,1,119,0,NA,0,0,4.361,NA
"240","14","false_70",120,1,120,0,NA,1,0,2.981,NA
"241","18","true_50",1,1,1,1,NA,0,1,5.434,NA
"242","18","true_50",2,1,2,1,NA,1,1,7.393,NA
"243","18","true_50",3,1,3,1,NA,0,1,4.726,NA
"244","18","true_50",4,1,4,1,NA,1,1,5.564,NA
"245","18","true_50",5,1,5,1,NA,1,1,3.853,NA
"246","18","true_60",6,1,6,1,NA,0,1,3.627,NA
"247","18","true_60",7,1,7,1,NA,1,1,6.286,NA
"248","18","true_60",8,1,8,1,NA,1,1,4.71,NA
"249","18","true_60",9,1,9,1,NA,1,1,6.139,NA
"250","18","true_60",10,1,10,1,NA,1,1,7.89,NA
"251","18","true_70",11,1,11,1,NA,1,1,6.628,NA
"252","18","true_70",12,1,12,1,NA,0,1,5.273,NA
"253","18","true_70",13,1,13,1,NA,1,1,3.063,NA
"254","18","true_70",14,1,14,1,NA,1,1,6.564,NA
"255","18","true_70",15,1,15,1,NA,1,1,6.793,NA
"256","18","false_50",16,1,16,1,NA,1,1,3.827,NA
"257","18","false_50",17,1,17,1,NA,1,1,4.012,NA
"258","18","false_50",18,1,18,1,NA,0,1,4.205,NA
"259","18","false_50",19,1,19,1,NA,0,1,2.99,NA
"260","18","false_50",20,1,20,1,NA,0,1,16.52,NA
"261","18","false_60",21,1,21,1,NA,0,1,6.437,NA
"262","18","false_60",22,1,22,1,NA,0,1,25.92,NA
"263","18","false_60",23,1,23,1,NA,0,1,7.209,NA
"264","18","false_60",24,1,24,1,NA,0,1,4.722,NA
"265","18","false_60",25,1,25,1,NA,1,1,11.431,NA
"266","18","false_70",26,1,26,1,NA,0,1,5.527,NA
"267","18","false_70",27,1,27,1,NA,1,1,3.37,NA
"268","18","false_70",28,1,28,1,NA,0,1,4.911,NA
"269","18","false_70",29,1,29,1,NA,0,1,3.856,NA
"270","18","false_70",30,1,30,1,NA,0,1,5.645,NA
"271","18","true_50",31,1,31,1,NA,1,0,3.922,NA
"272","18","true_50",32,1,32,1,NA,1,0,5.32,NA
"273","18","true_50",33,1,33,1,NA,1,0,4.545,NA
"274","18","true_50",34,1,34,1,NA,1,0,6.379,NA
"275","18","true_50",35,1,35,1,NA,0,0,3.053,NA
"276","18","true_60",36,1,36,1,NA,1,0,5.941,NA
"277","18","true_60",37,1,37,1,NA,1,0,4.76,NA
"278","18","true_60",38,1,38,1,NA,0,0,5.476,NA
"279","18","true_60",39,1,39,1,NA,1,0,9.156,NA
"280","18","true_60",40,1,40,1,NA,0,0,13.544,NA
"281","18","true_70",41,1,41,1,NA,1,0,7.369,NA
"282","18","true_70",42,1,42,1,NA,1,0,6.86,NA
"283","18","true_70",43,1,43,1,NA,0,0,8.907,NA
"284","18","true_70",44,1,44,1,NA,0,0,9.855,NA
"285","18","true_70",45,1,45,1,NA,1,0,20.153,NA
"286","18","false_50",46,1,46,1,NA,1,0,16.39,NA
"287","18","false_50",47,1,47,1,NA,0,0,3.083,NA
"288","18","false_50",48,1,48,1,NA,0,0,6.423,NA
"289","18","false_50",49,1,49,1,NA,1,0,8.197,NA
"290","18","false_50",50,1,50,1,NA,1,0,3.477,NA
"291","18","false_60",51,1,51,1,NA,0,0,4.9,NA
"292","18","false_60",52,1,52,1,NA,1,0,4.468,NA
"293","18","false_60",53,1,53,1,NA,0,0,4.058,NA
"294","18","false_60",54,1,54,1,NA,0,0,7.341,NA
"295","18","false_60",55,1,55,1,NA,0,0,3.964,NA
"296","18","false_70",56,1,56,1,NA,0,0,5.979,NA
"297","18","false_70",57,1,57,1,NA,0,0,9.577,NA
"298","18","false_70",58,1,58,1,NA,0,0,7.113,NA
"299","18","false_70",59,1,59,1,NA,0,0,8.026,NA
"300","18","false_70",60,1,60,1,NA,1,0,5.191,NA
"301","18","true_50",61,1,61,0,NA,0,1,6.635,NA
"302","18","true_50",62,1,62,0,NA,1,1,5.455,NA
"303","18","true_50",63,1,63,0,NA,0,1,9.292,NA
"304","18","true_50",64,1,64,0,NA,1,1,4.761,NA
"305","18","true_50",65,1,65,0,NA,0,1,10.175,NA
"306","18","true_60",66,1,66,0,NA,1,1,5.937,NA
"307","18","true_60",67,1,67,0,NA,1,1,10.062,NA
"308","18","true_60",68,1,68,0,NA,1,1,9.502,NA
"309","18","true_60",69,1,69,0,NA,1,1,6.406,NA
"310","18","true_60",70,1,70,0,NA,0,1,6.754,NA
"311","18","true_70",71,1,71,0,NA,1,1,8.452,NA
"312","18","true_70",72,1,72,0,NA,1,1,3.998,NA
"313","18","true_70",73,1,73,0,NA,1,1,8.259,NA
"314","18","true_70",74,1,74,0,NA,1,1,7.033,NA
"315","18","true_70",75,1,75,0,NA,1,1,10.147,NA
"316","18","false_50",76,1,76,0,NA,0,1,24.313,NA
"317","18","false_50",77,1,77,0,NA,1,1,4.653,NA
"318","18","false_50",78,1,78,0,NA,0,1,6.45,NA
"319","18","false_50",79,1,79,0,NA,1,1,4.59,NA
"320","18","false_50",80,1,80,0,NA,0,1,6.02,NA
"321","18","false_60",81,1,81,0,NA,1,1,4.038,NA
"322","18","false_60",82,1,82,0,NA,1,1,9.559,NA
"323","18","false_60",83,1,83,0,NA,1,1,4.701,NA
"324","18","false_60",84,1,84,0,NA,1,1,5.498,NA
"325","18","false_60",85,1,85,0,NA,0,1,7.397,NA
"326","18","false_70",86,1,86,0,NA,0,1,3.682,NA
"327","18","false_70",87,1,87,0,NA,1,1,3.585,NA
"328","18","false_70",88,1,88,0,NA,0,1,10.772,NA
"329","18","false_70",89,1,89,0,NA,0,1,3.59,NA
"330","18","false_70",90,1,90,0,NA,0,1,6.248,NA
"331","18","true_50",91,1,91,0,NA,1,0,7.008,NA
"332","18","true_50",92,1,92,0,NA,0,0,2.881,NA
"333","18","true_50",93,1,93,0,NA,1,0,7.473,NA
"334","18","true_50",94,1,94,0,NA,0,0,17.611,NA
"335","18","true_50",95,1,95,0,NA,0,0,3.95,NA
"336","18","true_60",96,1,96,0,NA,0,0,4.817,NA
"337","18","true_60",97,1,97,0,NA,0,0,8.642,NA
"338","18","true_60",98,1,98,0,NA,1,0,5.911,NA
"339","18","true_60",99,1,99,0,NA,1,0,2.998,NA
"340","18","true_60",100,1,100,0,NA,1,0,15.45,NA
"341","18","true_70",101,1,101,0,NA,1,0,5.588,NA
"342","18","true_70",102,1,102,0,NA,1,0,2.916,NA
"343","18","true_70",103,1,103,0,NA,1,0,5.873,NA
"344","18","true_70",104,1,104,0,NA,1,0,8.665,NA
"345","18","true_70",105,1,105,0,NA,1,0,4.775,NA
"346","18","false_50",106,1,106,0,NA,0,0,1.277,NA
"347","18","false_50",107,1,107,0,NA,0,0,11.791,NA
"348","18","false_50",108,1,108,0,NA,1,0,4.709,NA
"349","18","false_50",109,1,109,0,NA,1,0,3.988,NA
"350","18","false_50",110,1,110,0,NA,0,0,8.465,NA
"351","18","false_60",111,1,111,0,NA,1,0,6.725,NA
"352","18","false_60",112,1,112,0,NA,0,0,4.656,NA
"353","18","false_60",113,1,113,0,NA,0,0,5.109,NA
"354","18","false_60",114,1,114,0,NA,0,0,9.149,NA
"355","18","false_60",115,1,115,0,NA,0,0,7.862,NA
"356","18","false_70",116,1,116,0,NA,1,0,4.802,NA
"357","18","false_70",117,1,117,0,NA,0,0,4.071,NA
"358","18","false_70",118,1,118,0,NA,1,0,5.268,NA
"359","18","false_70",119,1,119,0,NA,1,0,6.042,NA
"360","18","false_70",120,1,120,0,NA,1,0,11.241,NA
"361","26","true_50",1,1,1,1,NA,1,1,1.597,NA
"362","26","true_50",2,1,2,1,NA,0,1,2.668,NA
"363","26","true_50",3,1,3,1,NA,1,1,3.812,NA
"364","26","true_50",4,1,4,1,NA,1,1,1.475,NA
"365","26","true_50",5,1,5,1,NA,0,1,6.178,NA
"366","26","true_60",6,1,6,1,NA,1,1,3.637,NA
"367","26","true_60",7,1,7,1,NA,1,1,6.002,NA
"368","26","true_60",8,1,8,1,NA,0,1,6.501,NA
"369","26","true_60",9,1,9,1,NA,1,1,2.407,NA
"370","26","true_60",10,1,10,1,NA,1,1,3.023,NA
"371","26","true_70",11,1,11,1,NA,1,1,2.475,NA
"372","26","true_70",12,1,12,1,NA,0,1,10.275,NA
"373","26","true_70",13,1,13,1,NA,1,1,5.482,NA
"374","26","true_70",14,1,14,1,NA,0,1,2.254,NA
"375","26","true_70",15,1,15,1,NA,0,1,2.936,NA
"376","26","false_50",16,1,16,1,NA,0,1,3.643,NA
"377","26","false_50",17,1,17,1,NA,1,1,5.497,NA
"378","26","false_50",18,1,18,1,NA,0,1,4.963,NA
"379","26","false_50",19,1,19,1,NA,0,1,4.805,NA
"380","26","false_50",20,1,20,1,NA,1,1,5.375,NA
"381","26","false_60",21,1,21,1,NA,1,1,4,NA
"382","26","false_60",22,1,22,1,NA,1,1,1.582,NA
"383","26","false_60",23,1,23,1,NA,1,1,6.751,NA
"384","26","false_60",24,1,24,1,NA,0,1,6.886,NA
"385","26","false_60",25,1,25,1,NA,1,1,1.726,NA
"386","26","false_70",26,1,26,1,NA,1,1,10.318,NA
"387","26","false_70",27,1,27,1,NA,0,1,5.829,NA
"388","26","false_70",28,1,28,1,NA,1,1,2.53,NA
"389","26","false_70",29,1,29,1,NA,0,1,6.125,NA
"390","26","false_70",30,1,30,1,NA,0,1,5.529,NA
"391","26","true_50",31,1,31,1,NA,0,0,2.109,NA
"392","26","true_50",32,1,32,1,NA,1,0,4.826,NA
"393","26","true_50",33,1,33,1,NA,0,0,3.697,NA
"394","26","true_50",34,1,34,1,NA,1,0,2.064,NA
"395","26","true_50",35,1,35,1,NA,1,0,4.815,NA
"396","26","true_60",36,1,36,1,NA,0,0,5.939,NA
"397","26","true_60",37,1,37,1,NA,1,0,3.917,NA
"398","26","true_60",38,1,38,1,NA,0,0,4.201,NA
"399","26","true_60",39,1,39,1,NA,1,0,4.264,NA
"400","26","true_60",40,1,40,1,NA,1,0,4.375,NA
"401","26","true_70",41,1,41,1,NA,1,0,6.418,NA
"402","26","true_70",42,1,42,1,NA,1,0,2.795,NA
"403","26","true_70",43,1,43,1,NA,0,0,6.885,NA
"404","26","true_70",44,1,44,1,NA,0,0,6.072,NA
"405","26","true_70",45,1,45,1,NA,1,0,3.679,NA
"406","26","false_50",46,1,46,1,NA,1,0,5.83,NA
"407","26","false_50",47,1,47,1,NA,0,0,10.264,NA
"408","26","false_50",48,1,48,1,NA,1,0,7.789,NA
"409","26","false_50",49,1,49,1,NA,0,0,4.431,NA
"410","26","false_50",50,1,50,1,NA,1,0,7.298,NA
"411","26","false_60",51,1,51,1,NA,0,0,7.811,NA
"412","26","false_60",52,1,52,1,NA,1,0,2.519,NA
"413","26","false_60",53,1,53,1,NA,0,0,3.524,NA
"414","26","false_60",54,1,54,1,NA,1,0,1.903,NA
"415","26","false_60",55,1,55,1,NA,1,0,4.614,NA
"416","26","false_70",56,1,56,1,NA,1,0,2.249,NA
"417","26","false_70",57,1,57,1,NA,0,0,3.707,NA
"418","26","false_70",58,1,58,1,NA,0,0,6.33,NA
"419","26","false_70",59,1,59,1,NA,0,0,3.306,NA
"420","26","false_70",60,1,60,1,NA,1,0,3.933,NA
"421","26","true_50",61,1,61,0,NA,1,1,2.225,NA
"422","26","true_50",62,1,62,0,NA,1,1,4.611,NA
"423","26","true_50",63,1,63,0,NA,1,1,6.86,NA
"424","26","true_50",64,1,64,0,NA,1,1,4.521,NA
"425","26","true_50",65,1,65,0,NA,1,1,2.959,NA
"426","26","true_60",66,1,66,0,NA,1,1,2.77,NA
"427","26","true_60",67,1,67,0,NA,1,1,3.025,NA
"428","26","true_60",68,1,68,0,NA,0,1,4.269,NA
"429","26","true_60",69,1,69,0,NA,0,1,2.774,NA
"430","26","true_60",70,1,70,0,NA,0,1,7.26,NA
"431","26","true_70",71,1,71,0,NA,0,1,4.405,NA
"432","26","true_70",72,1,72,0,NA,0,1,6.462,NA
"433","26","true_70",73,1,73,0,NA,0,1,3.331,NA
"434","26","true_70",74,1,74,0,NA,1,1,5.546,NA
"435","26","true_70",75,1,75,0,NA,0,1,3.372,NA
"436","26","false_50",76,1,76,0,NA,1,1,2.81,NA
"437","26","false_50",77,1,77,0,NA,1,1,3.08,NA
"438","26","false_50",78,1,78,0,NA,1,1,9.689,NA
"439","26","false_50",79,1,79,0,NA,0,1,7.587,NA
"440","26","false_50",80,1,80,0,NA,0,1,5.619,NA
"441","26","false_60",81,1,81,0,NA,0,1,3.613,NA
"442","26","false_60",82,1,82,0,NA,1,1,2.076,NA
"443","26","false_60",83,1,83,0,NA,0,1,2.681,NA
"444","26","false_60",84,1,84,0,NA,1,1,3.692,NA
"445","26","false_60",85,1,85,0,NA,1,1,2.624,NA
"446","26","false_70",86,1,86,0,NA,0,1,3.227,NA
"447","26","false_70",87,1,87,0,NA,1,1,1.539,NA
"448","26","false_70",88,1,88,0,NA,1,1,5.055,NA
"449","26","false_70",89,1,89,0,NA,1,1,4.882,NA
"450","26","false_70",90,1,90,0,NA,1,1,3.104,NA
"451","26","true_50",91,1,91,0,NA,0,0,7.767,NA
"452","26","true_50",92,1,92,0,NA,1,0,7.444,NA
"453","26","true_50",93,1,93,0,NA,0,0,5.509,NA
"454","26","true_50",94,1,94,0,NA,1,0,6.216,NA
"455","26","true_50",95,1,95,0,NA,1,0,3.117,NA
"456","26","true_60",96,1,96,0,NA,1,0,5.283,NA
"457","26","true_60",97,1,97,0,NA,1,0,8.156,NA
"458","26","true_60",98,1,98,0,NA,1,0,3.542,NA
"459","26","true_60",99,1,99,0,NA,0,0,7.116,NA
"460","26","true_60",100,1,100,0,NA,1,0,7.14,NA
"461","26","true_70",101,1,101,0,NA,1,0,4.387,NA
"462","26","true_70",102,1,102,0,NA,1,0,2.316,NA
"463","26","true_70",103,1,103,0,NA,0,0,3.852,NA
"464","26","true_70",104,1,104,0,NA,1,0,3.321,NA
"465","26","true_70",105,1,105,0,NA,0,0,3.761,NA
"466","26","false_50",106,1,106,0,NA,0,0,3.35,NA
"467","26","false_50",107,1,107,0,NA,1,0,2.036,NA
"468","26","false_50",108,1,108,0,NA,0,0,5.339,NA
"469","26","false_50",109,1,109,0,NA,1,0,2.996,NA
"470","26","false_50",110,1,110,0,NA,1,0,2.515,NA
"471","26","false_60",111,1,111,0,NA,0,0,7.439,NA
"472","26","false_60",112,1,112,0,NA,1,0,8.487,NA
"473","26","false_60",113,1,113,0,NA,0,0,11.95,NA
"474","26","false_60",114,1,114,0,NA,1,0,1.943,NA
"475","26","false_60",115,1,115,0,NA,0,0,3.265,NA
"476","26","false_70",116,1,116,0,NA,1,0,3.825,NA
"477","26","false_70",117,1,117,0,NA,0,0,3.562,NA
"478","26","false_70",118,1,118,0,NA,1,0,2.211,NA
"479","26","false_70",119,1,119,0,NA,1,0,2.959,NA
"480","26","false_70",120,1,120,0,NA,1,0,9.022,NA
"481","9","true_50",1,1,1,1,NA,1,1,3.135,NA
"482","9","true_50",2,1,2,1,NA,0,1,6.398,NA
"483","9","true_50",3,1,3,1,NA,1,1,1.893,NA
"484","9","true_50",4,1,4,1,NA,1,1,2.304,NA
"485","9","true_50",5,1,5,1,NA,0,1,4.097,NA
"486","9","true_60",6,1,6,1,NA,0,1,4.052,NA
"487","9","true_60",7,1,7,1,NA,0,1,5.474,NA
"488","9","true_60",8,1,8,1,NA,1,1,2.261,NA
"489","9","true_60",9,1,9,1,NA,1,1,5.372,NA
"490","9","true_60",10,1,10,1,NA,1,1,8.065,NA
"491","9","true_70",11,1,11,1,NA,1,1,6.021,NA
"492","9","true_70",12,1,12,1,NA,1,1,4.515,NA
"493","9","true_70",13,1,13,1,NA,1,1,12.967,NA
"494","9","true_70",14,1,14,1,NA,1,1,4.024,NA
"495","9","true_70",15,1,15,1,NA,1,1,4.119,NA
"496","9","false_50",16,1,16,1,NA,0,1,14.151,NA
"497","9","false_50",17,1,17,1,NA,0,1,2.416,NA
"498","9","false_50",18,1,18,1,NA,1,1,4.011,NA
"499","9","false_50",19,1,19,1,NA,1,1,10.908,NA
"500","9","false_50",20,1,20,1,NA,0,1,5.194,NA
"501","9","false_60",21,1,21,1,NA,1,1,4.88,NA
"502","9","false_60",22,1,22,1,NA,1,1,5.301,NA
"503","9","false_60",23,1,23,1,NA,0,1,7.04,NA
"504","9","false_60",24,1,24,1,NA,0,1,1.841,NA
"505","9","false_60",25,1,25,1,NA,0,1,3.292,NA
"506","9","false_70",26,1,26,1,NA,1,1,5.744,NA
"507","9","false_70",27,1,27,1,NA,1,1,10.447,NA
"508","9","false_70",28,1,28,1,NA,0,1,9.82,NA
"509","9","false_70",29,1,29,1,NA,1,1,12.137,NA
"510","9","false_70",30,1,30,1,NA,0,1,5.868,NA
"511","9","true_50",31,1,31,1,NA,0,0,1.884,NA
"512","9","true_50",32,1,32,1,NA,1,0,1.737,NA
"513","9","true_50",33,1,33,1,NA,0,0,8.267,NA
"514","9","true_50",34,1,34,1,NA,0,0,7.968,NA
"515","9","true_50",35,1,35,1,NA,1,0,3.118,NA
"516","9","true_60",36,1,36,1,NA,1,0,12.019,NA
"517","9","true_60",37,1,37,1,NA,1,0,13.319,NA
"518","9","true_60",38,1,38,1,NA,0,0,6.827,NA
"519","9","true_60",39,1,39,1,NA,1,0,18.359,NA
"520","9","true_60",40,1,40,1,NA,1,0,2.613,NA
"521","9","true_70",41,1,41,1,NA,1,0,6.659,NA
"522","9","true_70",42,1,42,1,NA,1,0,3.643,NA
"523","9","true_70",43,1,43,1,NA,1,0,5.513,NA
"524","9","true_70",44,1,44,1,NA,1,0,7.346,NA
"525","9","true_70",45,1,45,1,NA,1,0,8.066,NA
"526","9","false_50",46,1,46,1,NA,0,0,2.669,NA
"527","9","false_50",47,1,47,1,NA,1,0,2.765,NA
"528","9","false_50",48,1,48,1,NA,0,0,4.966,NA
"529","9","false_50",49,1,49,1,NA,1,0,4.444,NA
"530","9","false_50",50,1,50,1,NA,1,0,7.685,NA
"531","9","false_60",51,1,51,1,NA,1,0,6.178,NA
"532","9","false_60",52,1,52,1,NA,0,0,3.841,NA
"533","9","false_60",53,1,53,1,NA,0,0,7.771,NA
"534","9","false_60",54,1,54,1,NA,1,0,16.309,NA
"535","9","false_60",55,1,55,1,NA,1,0,4.527,NA
"536","9","false_70",56,1,56,1,NA,1,0,6.461,NA
"537","9","false_70",57,1,57,1,NA,1,0,2.177,NA
"538","9","false_70",58,1,58,1,NA,1,0,3.362,NA
"539","9","false_70",59,1,59,1,NA,0,0,4.194,NA
"540","9","false_70",60,1,60,1,NA,0,0,4.357,NA
"541","9","true_50",61,1,61,0,NA,1,1,5.797,NA
"542","9","true_50",62,1,62,0,NA,0,1,6.179,NA
"543","9","true_50",63,1,63,0,NA,1,1,4.602,NA
"544","9","true_50",64,1,64,0,NA,0,1,3.431,NA
"545","9","true_50",65,1,65,0,NA,1,1,3.457,NA
"546","9","true_60",66,1,66,0,NA,1,1,9.755,NA
"547","9","true_60",67,1,67,0,NA,0,1,19.619,NA
"548","9","true_60",68,1,68,0,NA,0,1,7.617,NA
"549","9","true_60",69,1,69,0,NA,0,1,15.349,NA
"550","9","true_60",70,1,70,0,NA,0,1,5.237,NA
"551","9","true_70",71,1,71,0,NA,1,1,13.883,NA
"552","9","true_70",72,1,72,0,NA,1,1,5.333,NA
"553","9","true_70",73,1,73,0,NA,1,1,4.954,NA
"554","9","true_70",74,1,74,0,NA,0,1,22.54,NA
"555","9","true_70",75,1,75,0,NA,0,1,3.842,NA
"556","9","false_50",76,1,76,0,NA,1,1,22.455,NA
"557","9","false_50",77,1,77,0,NA,1,1,3.135,NA
"558","9","false_50",78,1,78,0,NA,1,1,5.979,NA
"559","9","false_50",79,1,79,0,NA,1,1,11.676,NA
"560","9","false_50",80,1,80,0,NA,0,1,4.672,NA
"561","9","false_60",81,1,81,0,NA,1,1,4.05,NA
"562","9","false_60",82,1,82,0,NA,1,1,2.117,NA
"563","9","false_60",83,1,83,0,NA,1,1,11.899,NA
"564","9","false_60",84,1,84,0,NA,0,1,3.335,NA
"565","9","false_60",85,1,85,0,NA,1,1,6.203,NA
"566","9","false_70",86,1,86,0,NA,0,1,12.762,NA
"567","9","false_70",87,1,87,0,NA,1,1,12.121,NA
"568","9","false_70",88,1,88,0,NA,1,1,3.457,NA
"569","9","false_70",89,1,89,0,NA,0,1,7.521,NA
"570","9","false_70",90,1,90,0,NA,1,1,6.217,NA
"571","9","true_50",91,1,91,0,NA,1,0,14.185,NA
"572","9","true_50",92,1,92,0,NA,0,0,3.517,NA
"573","9","true_50",93,1,93,0,NA,1,0,6.285,NA
"574","9","true_50",94,1,94,0,NA,0,0,17.01,NA
"575","9","true_50",95,1,95,0,NA,1,0,2.247,NA
"576","9","true_60",96,1,96,0,NA,1,0,34.613,NA
"577","9","true_60",97,1,97,0,NA,1,0,4.502,NA
"578","9","true_60",98,1,98,0,NA,0,0,13.442,NA
"579","9","true_60",99,1,99,0,NA,1,0,3.784,NA
"580","9","true_60",100,1,100,0,NA,1,0,3.92,NA
"581","9","true_70",101,1,101,0,NA,1,0,7.176,NA
"582","9","true_70",102,1,102,0,NA,1,0,4.077,NA
"583","9","true_70",103,1,103,0,NA,1,0,3.952,NA
"584","9","true_70",104,1,104,0,NA,1,0,11.667,NA
"585","9","true_70",105,1,105,0,NA,1,0,56.988,NA
"586","9","false_50",106,1,106,0,NA,1,0,4.938,NA
"587","9","false_50",107,1,107,0,NA,1,0,6.443,NA
"588","9","false_50",108,1,108,0,NA,1,0,5.429,NA
"589","9","false_50",109,1,109,0,NA,1,0,6.455,NA
"590","9","false_50",110,1,110,0,NA,1,0,5.271,NA
"591","9","false_60",111,1,111,0,NA,0,0,3.25,NA
"592","9","false_60",112,1,112,0,NA,0,0,7.252,NA
"593","9","false_60",113,1,113,0,NA,1,0,6.771,NA
"594","9","false_60",114,1,114,0,NA,0,0,4.981,NA
"595","9","false_60",115,1,115,0,NA,0,0,11.002,NA
"596","9","false_70",116,1,116,0,NA,0,0,5.323,NA
"597","9","false_70",117,1,117,0,NA,0,0,2.138,NA
"598","9","false_70",118,1,118,0,NA,0,0,8.758,NA
"599","9","false_70",119,1,119,0,NA,0,0,11.988,NA
"600","9","false_70",120,1,120,0,NA,1,0,3.853,NA
"601","15","true_50",1,1,1,1,NA,1,1,3.934,NA
"602","15","true_50",2,1,2,1,NA,0,1,2.882,NA
"603","15","true_50",3,1,3,1,NA,1,1,3.961,NA
"604","15","true_50",4,1,4,1,NA,0,1,3.216,NA
"605","15","true_50",5,1,5,1,NA,1,1,1.523,NA
"606","15","true_60",6,1,6,1,NA,1,1,4.818,NA
"607","15","true_60",7,1,7,1,NA,0,1,1.849,NA
"608","15","true_60",8,1,8,1,NA,1,1,4.554,NA
"609","15","true_60",9,1,9,1,NA,0,1,3.233,NA
"610","15","true_60",10,1,10,1,NA,1,1,1.961,NA
"611","15","true_70",11,1,11,1,NA,1,1,5.397,NA
"612","15","true_70",12,1,12,1,NA,1,1,2.117,NA
"613","15","true_70",13,1,13,1,NA,1,1,4.117,NA
"614","15","true_70",14,1,14,1,NA,1,1,2.792,NA
"615","15","true_70",15,1,15,1,NA,1,1,3.734,NA
"616","15","false_50",16,1,16,1,NA,0,1,3.515,NA
"617","15","false_50",17,1,17,1,NA,0,1,13.167,NA
"618","15","false_50",18,1,18,1,NA,0,1,7.855,NA
"619","15","false_50",19,1,19,1,NA,1,1,2.272,NA
"620","15","false_50",20,1,20,1,NA,0,1,8.353,NA
"621","15","false_60",21,1,21,1,NA,0,1,5.144,NA
"622","15","false_60",22,1,22,1,NA,0,1,3.609,NA
"623","15","false_60",23,1,23,1,NA,0,1,3.359,NA
"624","15","false_60",24,1,24,1,NA,0,1,4.922,NA
"625","15","false_60",25,1,25,1,NA,0,1,3.061,NA
"626","15","false_70",26,1,26,1,NA,0,1,4.979,NA
"627","15","false_70",27,1,27,1,NA,1,1,2.047,NA
"628","15","false_70",28,1,28,1,NA,1,1,2.893,NA
"629","15","false_70",29,1,29,1,NA,1,1,3.089,NA
"630","15","false_70",30,1,30,1,NA,1,1,1.749,NA
"631","15","true_50",31,1,31,1,NA,0,0,4.737,NA
"632","15","true_50",32,1,32,1,NA,0,0,7.22,NA
"633","15","true_50",33,1,33,1,NA,0,0,5.245,NA
"634","15","true_50",34,1,34,1,NA,1,0,2.766,NA
"635","15","true_50",35,1,35,1,NA,0,0,4.948,NA
"636","15","true_60",36,1,36,1,NA,0,0,3.642,NA
"637","15","true_60",37,1,37,1,NA,1,0,6.102,NA
"638","15","true_60",38,1,38,1,NA,0,0,6.654,NA
"639","15","true_60",39,1,39,1,NA,1,0,8.421,NA
"640","15","true_60",40,1,40,1,NA,1,0,2.905,NA
"641","15","true_70",41,1,41,1,NA,1,0,3.748,NA
"642","15","true_70",42,1,42,1,NA,1,0,4.145,NA
"643","15","true_70",43,1,43,1,NA,1,0,4.725,NA
"644","15","true_70",44,1,44,1,NA,1,0,3.285,NA
"645","15","true_70",45,1,45,1,NA,1,0,4.762,NA
"646","15","false_50",46,1,46,1,NA,1,0,3.643,NA
"647","15","false_50",47,1,47,1,NA,1,0,2.652,NA
"648","15","false_50",48,1,48,1,NA,1,0,2.875,NA
"649","15","false_50",49,1,49,1,NA,1,0,4.536,NA
"650","15","false_50",50,1,50,1,NA,1,0,3.133,NA
"651","15","false_60",51,1,51,1,NA,0,0,2.712,NA
"652","15","false_60",52,1,52,1,NA,0,0,4.175,NA
"653","15","false_60",53,1,53,1,NA,1,0,7.513,NA
"654","15","false_60",54,1,54,1,NA,0,0,4.781,NA
"655","15","false_60",55,1,55,1,NA,0,0,4.627,NA
"656","15","false_70",56,1,56,1,NA,0,0,2.782,NA
"657","15","false_70",57,1,57,1,NA,0,0,5.764,NA
"658","15","false_70",58,1,58,1,NA,0,0,3.544,NA
"659","15","false_70",59,1,59,1,NA,1,0,3.216,NA
"660","15","false_70",60,1,60,1,NA,0,0,7.444,NA
"661","15","true_50",61,1,61,0,NA,1,1,3.833,NA
"662","15","true_50",62,1,62,0,NA,0,1,2.529,NA
"663","15","true_50",63,1,63,0,NA,1,1,5.272,NA
"664","15","true_50",64,1,64,0,NA,1,1,2.144,NA
"665","15","true_50",65,1,65,0,NA,1,1,2.958,NA
"666","15","true_60",66,1,66,0,NA,0,1,4.473,NA
"667","15","true_60",67,1,67,0,NA,0,1,1.642,NA
"668","15","true_60",68,1,68,0,NA,1,1,3.861,NA
"669","15","true_60",69,1,69,0,NA,1,1,2.169,NA
"670","15","true_60",70,1,70,0,NA,1,1,3.004,NA
"671","15","true_70",71,1,71,0,NA,1,1,1.987,NA
"672","15","true_70",72,1,72,0,NA,1,1,2.287,NA
"673","15","true_70",73,1,73,0,NA,1,1,4.976,NA
"674","15","true_70",74,1,74,0,NA,1,1,2.029,NA
"675","15","true_70",75,1,75,0,NA,1,1,2.86,NA
"676","15","false_50",76,1,76,0,NA,0,1,2.43,NA
"677","15","false_50",77,1,77,0,NA,1,1,1.654,NA
"678","15","false_50",78,1,78,0,NA,1,1,2.227,NA
"679","15","false_50",79,1,79,0,NA,1,1,1.835,NA
"680","15","false_50",80,1,80,0,NA,0,1,2.135,NA
"681","15","false_60",81,1,81,0,NA,0,1,5.792,NA
"682","15","false_60",82,1,82,0,NA,0,1,7.416,NA
"683","15","false_60",83,1,83,0,NA,0,1,3.863,NA
"684","15","false_60",84,1,84,0,NA,0,1,4.021,NA
"685","15","false_60",85,1,85,0,NA,1,1,1.428,NA
"686","15","false_70",86,1,86,0,NA,0,1,3.398,NA
"687","15","false_70",87,1,87,0,NA,0,1,4.683,NA
"688","15","false_70",88,1,88,0,NA,0,1,6.454,NA
"689","15","false_70",89,1,89,0,NA,0,1,5.384,NA
"690","15","false_70",90,1,90,0,NA,0,1,4.924,NA
"691","15","true_50",91,1,91,0,NA,1,0,6.269,NA
"692","15","true_50",92,1,92,0,NA,1,0,4.344,NA
"693","15","true_50",93,1,93,0,NA,1,0,3.848,NA
"694","15","true_50",94,1,94,0,NA,0,0,3.247,NA
"695","15","true_50",95,1,95,0,NA,1,0,2.072,NA
"696","15","true_60",96,1,96,0,NA,0,0,4.233,NA
"697","15","true_60",97,1,97,0,NA,1,0,3.526,NA
"698","15","true_60",98,1,98,0,NA,1,0,2.565,NA
"699","15","true_60",99,1,99,0,NA,1,0,5.835,NA
"700","15","true_60",100,1,100,0,NA,1,0,3.625,NA
"701","15","true_70",101,1,101,0,NA,1,0,4.597,NA
"702","15","true_70",102,1,102,0,NA,0,0,4.666,NA
"703","15","true_70",103,1,103,0,NA,1,0,6.889,NA
"704","15","true_70",104,1,104,0,NA,1,0,4.092,NA
"705","15","true_70",105,1,105,0,NA,1,0,2.86,NA
"706","15","false_50",106,1,106,0,NA,0,0,3.315,NA
"707","15","false_50",107,1,107,0,NA,0,0,28.23,NA
"708","15","false_50",108,1,108,0,NA,1,0,4.045,NA
"709","15","false_50",109,1,109,0,NA,1,0,4.58,NA
"710","15","false_50",110,1,110,0,NA,1,0,4.507,NA
"711","15","false_60",111,1,111,0,NA,0,0,6.019,NA
"712","15","false_60",112,1,112,0,NA,0,0,7.467,NA
"713","15","false_60",113,1,113,0,NA,1,0,10.422,NA
"714","15","false_60",114,1,114,0,NA,0,0,3.049,NA
"715","15","false_60",115,1,115,0,NA,0,0,4.303,NA
"716","15","false_70",116,1,116,0,NA,1,0,10.251,NA
"717","15","false_70",117,1,117,0,NA,0,0,4.035,NA
"718","15","false_70",118,1,118,0,NA,0,0,4.894,NA
"719","15","false_70",119,1,119,0,NA,0,0,5.568,NA
"720","15","false_70",120,1,120,0,NA,1,0,3.483,NA
"721","19","true_50",1,1,1,1,NA,0,1,7.644,NA
"722","19","true_50",2,1,2,1,NA,0,1,8.544,NA
"723","19","true_50",3,1,3,1,NA,1,1,4.667,NA
"724","19","true_50",4,1,4,1,NA,1,1,4.032,NA
"725","19","true_50",5,1,5,1,NA,0,1,4.983,NA
"726","19","true_60",6,1,6,1,NA,1,1,6.725,NA
"727","19","true_60",7,1,7,1,NA,1,1,6.839,NA
"728","19","true_60",8,1,8,1,NA,0,1,3.005,NA
"729","19","true_60",9,1,9,1,NA,0,1,3.758,NA
"730","19","true_60",10,1,10,1,NA,0,1,5.669,NA
"731","19","true_70",11,1,11,1,NA,1,1,5.839,NA
"732","19","true_70",12,1,12,1,NA,0,1,5.302,NA
"733","19","true_70",13,1,13,1,NA,1,1,4.288,NA
"734","19","true_70",14,1,14,1,NA,0,1,5.193,NA
"735","19","true_70",15,1,15,1,NA,1,1,5.471,NA
"736","19","false_50",16,1,16,1,NA,1,1,4.144,NA
"737","19","false_50",17,1,17,1,NA,1,1,10.175,NA
"738","19","false_50",18,1,18,1,NA,1,1,4.794,NA
"739","19","false_50",19,1,19,1,NA,1,1,4.078,NA
"740","19","false_50",20,1,20,1,NA,1,1,5.328,NA
"741","19","false_60",21,1,21,1,NA,0,1,6.223,NA
"742","19","false_60",22,1,22,1,NA,1,1,5.681,NA
"743","19","false_60",23,1,23,1,NA,0,1,5.814,NA
"744","19","false_60",24,1,24,1,NA,1,1,8.8,NA
"745","19","false_60",25,1,25,1,NA,1,1,5.399,NA
"746","19","false_70",26,1,26,1,NA,1,1,4.683,NA
"747","19","false_70",27,1,27,1,NA,0,1,6.724,NA
"748","19","false_70",28,1,28,1,NA,1,1,3.512,NA
"749","19","false_70",29,1,29,1,NA,0,1,5.024,NA
"750","19","false_70",30,1,30,1,NA,0,1,10.406,NA
"751","19","true_50",31,1,31,1,NA,1,0,3.6,NA
"752","19","true_50",32,1,32,1,NA,0,0,4.668,NA
"753","19","true_50",33,1,33,1,NA,1,0,6.838,NA
"754","19","true_50",34,1,34,1,NA,1,0,3.499,NA
"755","19","true_50",35,1,35,1,NA,0,0,0.855,NA
"756","19","true_60",36,1,36,1,NA,1,0,5.219,NA
"757","19","true_60",37,1,37,1,NA,1,0,4.5,NA
"758","19","true_60",38,1,38,1,NA,0,0,5.322,NA
"759","19","true_60",39,1,39,1,NA,1,0,6.665,NA
"760","19","true_60",40,1,40,1,NA,1,0,5.202,NA
"761","19","true_70",41,1,41,1,NA,0,0,4.97,NA
"762","19","true_70",42,1,42,1,NA,1,0,4.215,NA
"763","19","true_70",43,1,43,1,NA,0,0,6.798,NA
"764","19","true_70",44,1,44,1,NA,1,0,6.36,NA
"765","19","true_70",45,1,45,1,NA,1,0,5.679,NA
"766","19","false_50",46,1,46,1,NA,0,0,5.576,NA
"767","19","false_50",47,1,47,1,NA,0,0,5.107,NA
"768","19","false_50",48,1,48,1,NA,1,0,3.511,NA
"769","19","false_50",49,1,49,1,NA,1,0,5.469,NA
"770","19","false_50",50,1,50,1,NA,0,0,9.894,NA
"771","19","false_60",51,1,51,1,NA,0,0,4.544,NA
"772","19","false_60",52,1,52,1,NA,1,0,10.092,NA
"773","19","false_60",53,1,53,1,NA,0,0,6.926,NA
"774","19","false_60",54,1,54,1,NA,1,0,8.12,NA
"775","19","false_60",55,1,55,1,NA,1,0,17.256,NA
"776","19","false_70",56,1,56,1,NA,0,0,3.602,NA
"777","19","false_70",57,1,57,1,NA,1,0,3.5,NA
"778","19","false_70",58,1,58,1,NA,0,0,4.291,NA
"779","19","false_70",59,1,59,1,NA,0,0,5.727,NA
"780","19","false_70",60,1,60,1,NA,0,0,6.264,NA
"781","19","true_50",61,1,61,0,NA,0,1,9.628,NA
"782","19","true_50",62,1,62,0,NA,1,1,3.439,NA
"783","19","true_50",63,1,63,0,NA,1,1,4.274,NA
"784","19","true_50",64,1,64,0,NA,0,1,3.306,NA
"785","19","true_50",65,1,65,0,NA,1,1,6.163,NA
"786","19","true_60",66,1,66,0,NA,1,1,5.721,NA
"787","19","true_60",67,1,67,0,NA,1,1,2.861,NA
"788","19","true_60",68,1,68,0,NA,0,1,2.601,NA
"789","19","true_60",69,1,69,0,NA,0,1,6.391,NA
"790","19","true_60",70,1,70,0,NA,1,1,6.102,NA
"791","19","true_70",71,1,71,0,NA,1,1,4.092,NA
"792","19","true_70",72,1,72,0,NA,1,1,4.739,NA
"793","19","true_70",73,1,73,0,NA,0,1,5.571,NA
"794","19","true_70",74,1,74,0,NA,1,1,7.489,NA
"795","19","true_70",75,1,75,0,NA,1,1,3.751,NA
"796","19","false_50",76,1,76,0,NA,1,1,6.403,NA
"797","19","false_50",77,1,77,0,NA,1,1,6.515,NA
"798","19","false_50",78,1,78,0,NA,0,1,5.838,NA
"799","19","false_50",79,1,79,0,NA,0,1,4.039,NA
"800","19","false_50",80,1,80,0,NA,0,1,4.207,NA
"801","19","false_60",81,1,81,0,NA,1,1,10.656,NA
"802","19","false_60",82,1,82,0,NA,1,1,3.374,NA
"803","19","false_60",83,1,83,0,NA,1,1,4.849,NA
"804","19","false_60",84,1,84,0,NA,0,1,7.505,NA
"805","19","false_60",85,1,85,0,NA,1,1,6.626,NA
"806","19","false_70",86,1,86,0,NA,1,1,7.921,NA
"807","19","false_70",87,1,87,0,NA,0,1,7.358,NA
"808","19","false_70",88,1,88,0,NA,1,1,5.412,NA
"809","19","false_70",89,1,89,0,NA,0,1,5.037,NA
"810","19","false_70",90,1,90,0,NA,0,1,4.559,NA
"811","19","true_50",91,1,91,0,NA,0,0,7.586,NA
"812","19","true_50",92,1,92,0,NA,1,0,11.034,NA
"813","19","true_50",93,1,93,0,NA,0,0,6.756,NA
"814","19","true_50",94,1,94,0,NA,0,0,4.531,NA
"815","19","true_50",95,1,95,0,NA,1,0,6.417,NA
"816","19","true_60",96,1,96,0,NA,1,0,5.905,NA
"817","19","true_60",97,1,97,0,NA,0,0,3.896,NA
"818","19","true_60",98,1,98,0,NA,1,0,4.372,NA
"819","19","true_60",99,1,99,0,NA,0,0,4.5,NA
"820","19","true_60",100,1,100,0,NA,1,0,9.457,NA
"821","19","true_70",101,1,101,0,NA,1,0,11.993,NA
"822","19","true_70",102,1,102,0,NA,0,0,9.954,NA
"823","19","true_70",103,1,103,0,NA,1,0,4.891,NA
"824","19","true_70",104,1,104,0,NA,1,0,10.454,NA
"825","19","true_70",105,1,105,0,NA,0,0,7.547,NA
"826","19","false_50",106,1,106,0,NA,0,0,4.743,NA
"827","19","false_50",107,1,107,0,NA,1,0,6.176,NA
"828","19","false_50",108,1,108,0,NA,1,0,4.074,NA
"829","19","false_50",109,1,109,0,NA,0,0,5.8,NA
"830","19","false_50",110,1,110,0,NA,0,0,9.096,NA
"831","19","false_60",111,1,111,0,NA,1,0,5.02,NA
"832","19","false_60",112,1,112,0,NA,1,0,5.894,NA
"833","19","false_60",113,1,113,0,NA,0,0,4.176,NA
"834","19","false_60",114,1,114,0,NA,0,0,4.109,NA
"835","19","false_60",115,1,115,0,NA,0,0,8.447,NA
"836","19","false_70",116,1,116,0,NA,1,0,5.82,NA
"837","19","false_70",117,1,117,0,NA,1,0,4.936,NA
"838","19","false_70",118,1,118,0,NA,1,0,3.906,NA
"839","19","false_70",119,1,119,0,NA,1,0,4.177,NA
"840","19","false_70",120,1,120,0,NA,1,0,6.893,NA
"841","27","true_50",1,1,1,1,NA,1,1,1.582,NA
"842","27","true_50",2,1,2,1,NA,1,1,3.704,NA
"843","27","true_50",3,1,3,1,NA,1,1,2.523,NA
"844","27","true_50",4,1,4,1,NA,1,1,1.58,NA
"845","27","true_50",5,1,5,1,NA,1,1,1.034,NA
"846","27","true_60",6,1,6,1,NA,1,1,3.472,NA
"847","27","true_60",7,1,7,1,NA,1,1,1.003,NA
"848","27","true_60",8,1,8,1,NA,1,1,1.358,NA
"849","27","true_60",9,1,9,1,NA,1,1,2.581,NA
"850","27","true_60",10,1,10,1,NA,1,1,2.131,NA
"851","27","true_70",11,1,11,1,NA,1,1,1.016,NA
"852","27","true_70",12,1,12,1,NA,1,1,2.371,NA
"853","27","true_70",13,1,13,1,NA,1,1,2.765,NA
"854","27","true_70",14,1,14,1,NA,1,1,1.118,NA
"855","27","true_70",15,1,15,1,NA,1,1,1.471,NA
"856","27","false_50",16,1,16,1,NA,1,1,1.228,NA
"857","27","false_50",17,1,17,1,NA,1,1,1.794,NA
"858","27","false_50",18,1,18,1,NA,1,1,1.808,NA
"859","27","false_50",19,1,19,1,NA,0,1,12.568,NA
"860","27","false_50",20,1,20,1,NA,1,1,1.426,NA
"861","27","false_60",21,1,21,1,NA,1,1,1.64,NA
"862","27","false_60",22,1,22,1,NA,1,1,1.513,NA
"863","27","false_60",23,1,23,1,NA,1,1,1.425,NA
"864","27","false_60",24,1,24,1,NA,1,1,1.033,NA
"865","27","false_60",25,1,25,1,NA,1,1,1.766,NA
"866","27","false_70",26,1,26,1,NA,1,1,1.583,NA
"867","27","false_70",27,1,27,1,NA,1,1,2.596,NA
"868","27","false_70",28,1,28,1,NA,1,1,1.327,NA
"869","27","false_70",29,1,29,1,NA,1,1,1.287,NA
"870","27","false_70",30,1,30,1,NA,1,1,2.579,NA
"871","27","true_50",31,1,31,1,NA,0,0,2.6,NA
"872","27","true_50",32,1,32,1,NA,1,0,5.513,NA
"873","27","true_50",33,1,33,1,NA,0,0,3.177,NA
"874","27","true_50",34,1,34,1,NA,1,0,6.313,NA
"875","27","true_50",35,1,35,1,NA,0,0,7.992,NA
"876","27","true_60",36,1,36,1,NA,0,0,2.402,NA
"877","27","true_60",37,1,37,1,NA,1,0,4.888,NA
"878","27","true_60",38,1,38,1,NA,0,0,3.164,NA
"879","27","true_60",39,1,39,1,NA,1,0,3.512,NA
"880","27","true_60",40,1,40,1,NA,1,0,2.089,NA
"881","27","true_70",41,1,41,1,NA,1,0,4.425,NA
"882","27","true_70",42,1,42,1,NA,0,0,3.825,NA
"883","27","true_70",43,1,43,1,NA,1,0,2.497,NA
"884","27","true_70",44,1,44,1,NA,1,0,1.779,NA
"885","27","true_70",45,1,45,1,NA,1,0,21.872,NA
"886","27","false_50",46,1,46,1,NA,0,0,3.065,NA
"887","27","false_50",47,1,47,1,NA,0,0,10.498,NA
"888","27","false_50",48,1,48,1,NA,0,0,8.019,NA
"889","27","false_50",49,1,49,1,NA,1,0,2.44,NA
"890","27","false_50",50,1,50,1,NA,0,0,8.292,NA
"891","27","false_60",51,1,51,1,NA,0,0,4.659,NA
"892","27","false_60",52,1,52,1,NA,0,0,2.457,NA
"893","27","false_60",53,1,53,1,NA,0,0,3.067,NA
"894","27","false_60",54,1,54,1,NA,0,0,2.869,NA
"895","27","false_60",55,1,55,1,NA,1,0,3.101,NA
"896","27","false_70",56,1,56,1,NA,0,0,4.137,NA
"897","27","false_70",57,1,57,1,NA,0,0,2.538,NA
"898","27","false_70",58,1,58,1,NA,0,0,10.364,NA
"899","27","false_70",59,1,59,1,NA,0,0,4.036,NA
"900","27","false_70",60,1,60,1,NA,1,0,3.018,NA
"901","27","true_50",61,1,61,0,NA,1,1,1.343,NA
"902","27","true_50",62,1,62,0,NA,1,1,1.397,NA
"903","27","true_50",63,1,63,0,NA,1,1,1.259,NA
"904","27","true_50",64,1,64,0,NA,1,1,2.075,NA
"905","27","true_50",65,1,65,0,NA,1,1,2.25,NA
"906","27","true_60",66,1,66,0,NA,1,1,2.047,NA
"907","27","true_60",67,1,67,0,NA,1,1,7.635,NA
"908","27","true_60",68,1,68,0,NA,1,1,2.285,NA
"909","27","true_60",69,1,69,0,NA,1,1,2.78,NA
"910","27","true_60",70,1,70,0,NA,1,1,1.383,NA
"911","27","true_70",71,1,71,0,NA,1,1,1.778,NA
"912","27","true_70",72,1,72,0,NA,1,1,5.146,NA
"913","27","true_70",73,1,73,0,NA,1,1,1.692,NA
"914","27","true_70",74,1,74,0,NA,1,1,3.34,NA
"915","27","true_70",75,1,75,0,NA,1,1,3.835,NA
"916","27","false_50",76,1,76,0,NA,1,1,1.917,NA
"917","27","false_50",77,1,77,0,NA,1,1,1.903,NA
"918","27","false_50",78,1,78,0,NA,1,1,4.074,NA
"919","27","false_50",79,1,79,0,NA,1,1,3.526,NA
"920","27","false_50",80,1,80,0,NA,0,1,3.031,NA
"921","27","false_60",81,1,81,0,NA,0,1,3.641,NA
"922","27","false_60",82,1,82,0,NA,1,1,4.019,NA
"923","27","false_60",83,1,83,0,NA,1,1,1.358,NA
"924","27","false_60",84,1,84,0,NA,1,1,1.045,NA
"925","27","false_60",85,1,85,0,NA,1,1,1.735,NA
"926","27","false_70",86,1,86,0,NA,1,1,4.383,NA
"927","27","false_70",87,1,87,0,NA,1,1,1.227,NA
"928","27","false_70",88,1,88,0,NA,1,1,1.315,NA
"929","27","false_70",89,1,89,0,NA,1,1,1.343,NA
"930","27","false_70",90,1,90,0,NA,1,1,1.09,NA
"931","27","true_50",91,1,91,0,NA,0,0,5.089,NA
"932","27","true_50",92,1,92,0,NA,1,0,3.044,NA
"933","27","true_50",93,1,93,0,NA,1,0,2.906,NA
"934","27","true_50",94,1,94,0,NA,0,0,4.262,NA
"935","27","true_50",95,1,95,0,NA,0,0,5.035,NA
"936","27","true_60",96,1,96,0,NA,0,0,8.657,NA
"937","27","true_60",97,1,97,0,NA,1,0,2.16,NA
"938","27","true_60",98,1,98,0,NA,0,0,6.107,NA
"939","27","true_60",99,1,99,0,NA,0,0,7.487,NA
"940","27","true_60",100,1,100,0,NA,1,0,3.298,NA
"941","27","true_70",101,1,101,0,NA,1,0,2.804,NA
"942","27","true_70",102,1,102,0,NA,1,0,2.498,NA
"943","27","true_70",103,1,103,0,NA,1,0,5.555,NA
"944","27","true_70",104,1,104,0,NA,0,0,4.189,NA
"945","27","true_70",105,1,105,0,NA,1,0,3.086,NA
"946","27","false_50",106,1,106,0,NA,0,0,2.741,NA
"947","27","false_50",107,1,107,0,NA,0,0,4.023,NA
"948","27","false_50",108,1,108,0,NA,0,0,2.515,NA
"949","27","false_50",109,1,109,0,NA,0,0,11.558,NA
"950","27","false_50",110,1,110,0,NA,0,0,2.781,NA
"951","27","false_60",111,1,111,0,NA,1,0,5.514,NA
"952","27","false_60",112,1,112,0,NA,0,0,1.966,NA
"953","27","false_60",113,1,113,0,NA,0,0,3.64,NA
"954","27","false_60",114,1,114,0,NA,0,0,2.597,NA
"955","27","false_60",115,1,115,0,NA,0,0,3.106,NA
"956","27","false_70",116,1,116,0,NA,0,0,2.782,NA
"957","27","false_70",117,1,117,0,NA,1,0,5.806,NA
"958","27","false_70",118,1,118,0,NA,0,0,5.443,NA
"959","27","false_70",119,1,119,0,NA,0,0,6.668,NA
"960","27","false_70",120,1,120,0,NA,0,0,5.585,NA
"961","23","true_50",1,1,1,1,NA,1,1,1.663,NA
"962","23","true_50",2,1,2,1,NA,0,1,5.514,NA
"963","23","true_50",3,1,3,1,NA,1,1,2.588,NA
"964","23","true_50",4,1,4,1,NA,0,1,2.806,NA
"965","23","true_50",5,1,5,1,NA,0,1,5.87,NA
"966","23","true_60",6,1,6,1,NA,1,1,5.277,NA
"967","23","true_60",7,1,7,1,NA,1,1,2.196,NA
"968","23","true_60",8,1,8,1,NA,1,1,2.351,NA
"969","23","true_60",9,1,9,1,NA,1,1,2.521,NA
"970","23","true_60",10,1,10,1,NA,0,1,6.278,NA
"971","23","true_70",11,1,11,1,NA,1,1,2.73,NA
"972","23","true_70",12,1,12,1,NA,0,1,2.886,NA
"973","23","true_70",13,1,13,1,NA,1,1,3.602,NA
"974","23","true_70",14,1,14,1,NA,1,1,4.544,NA
"975","23","true_70",15,1,15,1,NA,1,1,3.731,NA
"976","23","false_50",16,1,16,1,NA,1,1,6.483,NA
"977","23","false_50",17,1,17,1,NA,1,1,7.02,NA
"978","23","false_50",18,1,18,1,NA,1,1,4.152,NA
"979","23","false_50",19,1,19,1,NA,0,1,8.044,NA
"980","23","false_50",20,1,20,1,NA,0,1,6.611,NA
"981","23","false_60",21,1,21,1,NA,1,1,10.761,NA
"982","23","false_60",22,1,22,1,NA,0,1,3.478,NA
"983","23","false_60",23,1,23,1,NA,0,1,12.908,NA
"984","23","false_60",24,1,24,1,NA,0,1,2.173,NA
"985","23","false_60",25,1,25,1,NA,0,1,14.237,NA
"986","23","false_70",26,1,26,1,NA,0,1,4.969,NA
"987","23","false_70",27,1,27,1,NA,0,1,4.632,NA
"988","23","false_70",28,1,28,1,NA,0,1,11.48,NA
"989","23","false_70",29,1,29,1,NA,0,1,4.699,NA
"990","23","false_70",30,1,30,1,NA,1,1,7.34,NA
"991","23","true_50",31,1,31,1,NA,1,0,9.001,NA
"992","23","true_50",32,1,32,1,NA,1,0,2.124,NA
"993","23","true_50",33,1,33,1,NA,0,0,2.296,NA
"994","23","true_50",34,1,34,1,NA,0,0,3.505,NA
"995","23","true_50",35,1,35,1,NA,0,0,5.824,NA
"996","23","true_60",36,1,36,1,NA,1,0,3.971,NA
"997","23","true_60",37,1,37,1,NA,1,0,3.756,NA
"998","23","true_60",38,1,38,1,NA,0,0,4.166,NA
"999","23","true_60",39,1,39,1,NA,1,0,13.238,NA
"1000","23","true_60",40,1,40,1,NA,1,0,3.912,NA
"1001","23","true_70",41,1,41,1,NA,0,0,17.4,NA
"1002","23","true_70",42,1,42,1,NA,0,0,6.711,NA
"1003","23","true_70",43,1,43,1,NA,1,0,5.389,NA
"1004","23","true_70",44,1,44,1,NA,1,0,6.386,NA
"1005","23","true_70",45,1,45,1,NA,1,0,2.674,NA
"1006","23","false_50",46,1,46,1,NA,1,0,5.333,NA
"1007","23","false_50",47,1,47,1,NA,0,0,11.004,NA
"1008","23","false_50",48,1,48,1,NA,1,0,2.476,NA
"1009","23","false_50",49,1,49,1,NA,0,0,3.999,NA
"1010","23","false_50",50,1,50,1,NA,0,0,6.221,NA
"1011","23","false_60",51,1,51,1,NA,0,0,3.608,NA
"1012","23","false_60",52,1,52,1,NA,0,0,2.506,NA
"1013","23","false_60",53,1,53,1,NA,0,0,3.899,NA
"1014","23","false_60",54,1,54,1,NA,0,0,6.675,NA
"1015","23","false_60",55,1,55,1,NA,0,0,2.802,NA
"1016","23","false_70",56,1,56,1,NA,0,0,2.791,NA
"1017","23","false_70",57,1,57,1,NA,0,0,3.759,NA
"1018","23","false_70",58,1,58,1,NA,0,0,5.927,NA
"1019","23","false_70",59,1,59,1,NA,1,0,2.405,NA
"1020","23","false_70",60,1,60,1,NA,1,0,4.037,NA
"1021","23","true_50",61,1,61,0,NA,0,1,7.402,NA
"1022","23","true_50",62,1,62,0,NA,0,1,6.866,NA
"1023","23","true_50",63,1,63,0,NA,0,1,8.567,NA
"1024","23","true_50",64,1,64,0,NA,0,1,8.131,NA
"1025","23","true_50",65,1,65,0,NA,1,1,7.19,NA
"1026","23","true_60",66,1,66,0,NA,1,1,3.676,NA
"1027","23","true_60",67,1,67,0,NA,1,1,10.59,NA
"1028","23","true_60",68,1,68,0,NA,1,1,5.148,NA
"1029","23","true_60",69,1,69,0,NA,0,1,6.402,NA
"1030","23","true_60",70,1,70,0,NA,1,1,3.926,NA
"1031","23","true_70",71,1,71,0,NA,1,1,3.698,NA
"1032","23","true_70",72,1,72,0,NA,0,1,3.974,NA
"1033","23","true_70",73,1,73,0,NA,1,1,3.504,NA
"1034","23","true_70",74,1,74,0,NA,0,1,3.228,NA
"1035","23","true_70",75,1,75,0,NA,1,1,3.913,NA
"1036","23","false_50",76,1,76,0,NA,0,1,3.171,NA
"1037","23","false_50",77,1,77,0,NA,0,1,13.603,NA
"1038","23","false_50",78,1,78,0,NA,1,1,4.126,NA
"1039","23","false_50",79,1,79,0,NA,1,1,4.404,NA
"1040","23","false_50",80,1,80,0,NA,0,1,3.817,NA
"1041","23","false_60",81,1,81,0,NA,0,1,5.066,NA
"1042","23","false_60",82,1,82,0,NA,1,1,5.839,NA
"1043","23","false_60",83,1,83,0,NA,0,1,5.641,NA
"1044","23","false_60",84,1,84,0,NA,0,1,5.32,NA
"1045","23","false_60",85,1,85,0,NA,0,1,4.503,NA
"1046","23","false_70",86,1,86,0,NA,0,1,6.853,NA
"1047","23","false_70",87,1,87,0,NA,0,1,2.226,NA
"1048","23","false_70",88,1,88,0,NA,0,1,5.431,NA
"1049","23","false_70",89,1,89,0,NA,0,1,12.477,NA
"1050","23","false_70",90,1,90,0,NA,1,1,6.09,NA
"1051","23","true_50",91,1,91,0,NA,1,0,7.805,NA
"1052","23","true_50",92,1,92,0,NA,0,0,10.368,NA
"1053","23","true_50",93,1,93,0,NA,1,0,3.786,NA
"1054","23","true_50",94,1,94,0,NA,0,0,3.9,NA
"1055","23","true_50",95,1,95,0,NA,0,0,3.044,NA
"1056","23","true_60",96,1,96,0,NA,1,0,7.017,NA
"1057","23","true_60",97,1,97,0,NA,1,0,3.759,NA
"1058","23","true_60",98,1,98,0,NA,1,0,2.914,NA
"1059","23","true_60",99,1,99,0,NA,0,0,6.179,NA
"1060","23","true_60",100,1,100,0,NA,1,0,5.291,NA
"1061","23","true_70",101,1,101,0,NA,0,0,7.107,NA
"1062","23","true_70",102,1,102,0,NA,1,0,6.404,NA
"1063","23","true_70",103,1,103,0,NA,0,0,6.093,NA
"1064","23","true_70",104,1,104,0,NA,1,0,7.41,NA
"1065","23","true_70",105,1,105,0,NA,1,0,5.769,NA
"1066","23","false_50",106,1,106,0,NA,1,0,4.055,NA
"1067","23","false_50",107,1,107,0,NA,1,0,6.835,NA
"1068","23","false_50",108,1,108,0,NA,1,0,5.654,NA
"1069","23","false_50",109,1,109,0,NA,0,0,8.711,NA
"1070","23","false_50",110,1,110,0,NA,0,0,5.646,NA
"1071","23","false_60",111,1,111,0,NA,0,0,12.574,NA
"1072","23","false_60",112,1,112,0,NA,0,0,11.661,NA
"1073","23","false_60",113,1,113,0,NA,0,0,2.904,NA
"1074","23","false_60",114,1,114,0,NA,0,0,6.573,NA
"1075","23","false_60",115,1,115,0,NA,0,0,6.223,NA
"1076","23","false_70",116,1,116,0,NA,0,0,12.732,NA
"1077","23","false_70",117,1,117,0,NA,0,0,4.577,NA
"1078","23","false_70",118,1,118,0,NA,0,0,4.94,NA
"1079","23","false_70",119,1,119,0,NA,0,0,3.505,NA
"1080","23","false_70",120,1,120,0,NA,1,0,17.774,NA
"1081","4","true_50",1,1,1,1,NA,1,1,2.202,NA
"1082","4","true_50",2,1,2,1,NA,1,1,2.16,NA
"1083","4","true_50",3,1,3,1,NA,1,1,2.31,NA
"1084","4","true_50",4,1,4,1,NA,1,1,1.679,NA
"1085","4","true_50",5,1,5,1,NA,1,1,7.554,NA
"1086","4","true_60",6,1,6,1,NA,1,1,1.972,NA
"1087","4","true_60",7,1,7,1,NA,1,1,2.52,NA
"1088","4","true_60",8,1,8,1,NA,1,1,7.719,NA
"1089","4","true_60",9,1,9,1,NA,1,1,2.849,NA
"1090","4","true_60",10,1,10,1,NA,1,1,3.223,NA
"1091","4","true_70",11,1,11,1,NA,1,1,2.374,NA
"1092","4","true_70",12,1,12,1,NA,1,1,3.355,NA
"1093","4","true_70",13,1,13,1,NA,1,1,1.881,NA
"1094","4","true_70",14,1,14,1,NA,0,1,9.179,NA
"1095","4","true_70",15,1,15,1,NA,0,1,3.901,NA
"1096","4","false_50",16,1,16,1,NA,1,1,1.84,NA
"1097","4","false_50",17,1,17,1,NA,1,1,4.032,NA
"1098","4","false_50",18,1,18,1,NA,1,1,5.087,NA
"1099","4","false_50",19,1,19,1,NA,0,1,2.351,NA
"1100","4","false_50",20,1,20,1,NA,1,1,4.85,NA
"1101","4","false_60",21,1,21,1,NA,1,1,1.746,NA
"1102","4","false_60",22,1,22,1,NA,1,1,5.378,NA
"1103","4","false_60",23,1,23,1,NA,1,1,4.35,NA
"1104","4","false_60",24,1,24,1,NA,0,1,4.044,NA
"1105","4","false_60",25,1,25,1,NA,1,1,4.823,NA
"1106","4","false_70",26,1,26,1,NA,1,1,1.544,NA
"1107","4","false_70",27,1,27,1,NA,1,1,5.185,NA
"1108","4","false_70",28,1,28,1,NA,1,1,3.196,NA
"1109","4","false_70",29,1,29,1,NA,1,1,7.434,NA
"1110","4","false_70",30,1,30,1,NA,0,1,3.699,NA
"1111","4","true_50",31,1,31,1,NA,1,0,4.771,NA
"1112","4","true_50",32,1,32,1,NA,0,0,4.556,NA
"1113","4","true_50",33,1,33,1,NA,0,0,2.676,NA
"1114","4","true_50",34,1,34,1,NA,1,0,5.015,NA
"1115","4","true_50",35,1,35,1,NA,1,0,7.893,NA
"1116","4","true_60",36,1,36,1,NA,1,0,2.916,NA
"1117","4","true_60",37,1,37,1,NA,0,0,4.185,NA
"1118","4","true_60",38,1,38,1,NA,1,0,4.168,NA
"1119","4","true_60",39,1,39,1,NA,1,0,1.89,NA
"1120","4","true_60",40,1,40,1,NA,1,0,5.106,NA
"1121","4","true_70",41,1,41,1,NA,0,0,6.255,NA
"1122","4","true_70",42,1,42,1,NA,1,0,3.182,NA
"1123","4","true_70",43,1,43,1,NA,1,0,5.471,NA
"1124","4","true_70",44,1,44,1,NA,1,0,5.092,NA
"1125","4","true_70",45,1,45,1,NA,1,0,3.09,NA
"1126","4","false_50",46,1,46,1,NA,0,0,4.06,NA
"1127","4","false_50",47,1,47,1,NA,0,0,2.784,NA
"1128","4","false_50",48,1,48,1,NA,0,0,6.59,NA
"1129","4","false_50",49,1,49,1,NA,0,0,2.703,NA
"1130","4","false_50",50,1,50,1,NA,0,0,6.628,NA
"1131","4","false_60",51,1,51,1,NA,0,0,3.994,NA
"1132","4","false_60",52,1,52,1,NA,0,0,3.224,NA
"1133","4","false_60",53,1,53,1,NA,0,0,2.301,NA
"1134","4","false_60",54,1,54,1,NA,0,0,4.649,NA
"1135","4","false_60",55,1,55,1,NA,0,0,3.133,NA
"1136","4","false_70",56,1,56,1,NA,0,0,2.73,NA
"1137","4","false_70",57,1,57,1,NA,0,0,4.259,NA
"1138","4","false_70",58,1,58,1,NA,1,0,6.138,NA
"1139","4","false_70",59,1,59,1,NA,0,0,9.603,NA
"1140","4","false_70",60,1,60,1,NA,0,0,3.079,NA
"1141","4","true_50",61,1,61,0,NA,0,1,4.896,NA
"1142","4","true_50",62,1,62,0,NA,0,1,3.466,NA
"1143","4","true_50",63,1,63,0,NA,1,1,1.679,NA
"1144","4","true_50",64,1,64,0,NA,1,1,1.571,NA
"1145","4","true_50",65,1,65,0,NA,1,1,1.718,NA
"1146","4","true_60",66,1,66,0,NA,1,1,2.509,NA
"1147","4","true_60",67,1,67,0,NA,1,1,2.378,NA
"1148","4","true_60",68,1,68,0,NA,0,1,2.795,NA
"1149","4","true_60",69,1,69,0,NA,1,1,2.351,NA
"1150","4","true_60",70,1,70,0,NA,1,1,5.445,NA
"1151","4","true_70",71,1,71,0,NA,1,1,1.96,NA
"1152","4","true_70",72,1,72,0,NA,1,1,4.113,NA
"1153","4","true_70",73,1,73,0,NA,1,1,1.879,NA
"1154","4","true_70",74,1,74,0,NA,1,1,3.894,NA
"1155","4","true_70",75,1,75,0,NA,1,1,4.97,NA
"1156","4","false_50",76,1,76,0,NA,1,1,7.376,NA
"1157","4","false_50",77,1,77,0,NA,1,1,5.816,NA
"1158","4","false_50",78,1,78,0,NA,0,1,4.358,NA
"1159","4","false_50",79,1,79,0,NA,0,1,3.171,NA
"1160","4","false_50",80,1,80,0,NA,0,1,4.42,NA
"1161","4","false_60",81,1,81,0,NA,0,1,6.077,NA
"1162","4","false_60",82,1,82,0,NA,1,1,1.99,NA
"1163","4","false_60",83,1,83,0,NA,1,1,7.068,NA
"1164","4","false_60",84,1,84,0,NA,1,1,6.102,NA
"1165","4","false_60",85,1,85,0,NA,1,1,2.954,NA
"1166","4","false_70",86,1,86,0,NA,1,1,4.027,NA
"1167","4","false_70",87,1,87,0,NA,0,1,3.302,NA
"1168","4","false_70",88,1,88,0,NA,0,1,3.673,NA
"1169","4","false_70",89,1,89,0,NA,1,1,4.224,NA
"1170","4","false_70",90,1,90,0,NA,1,1,2.362,NA
"1171","4","true_50",91,1,91,0,NA,0,0,3.629,NA
"1172","4","true_50",92,1,92,0,NA,1,0,2.388,NA
"1173","4","true_50",93,1,93,0,NA,1,0,3.356,NA
"1174","4","true_50",94,1,94,0,NA,1,0,10.39,NA
"1175","4","true_50",95,1,95,0,NA,1,0,2.51,NA
"1176","4","true_60",96,1,96,0,NA,1,0,2.283,NA
"1177","4","true_60",97,1,97,0,NA,1,0,3.761,NA
"1178","4","true_60",98,1,98,0,NA,1,0,4.299,NA
"1179","4","true_60",99,1,99,0,NA,0,0,4.058,NA
"1180","4","true_60",100,1,100,0,NA,1,0,4.604,NA
"1181","4","true_70",101,1,101,0,NA,1,0,3.087,NA
"1182","4","true_70",102,1,102,0,NA,1,0,1.853,NA
"1183","4","true_70",103,1,103,0,NA,1,0,4.712,NA
"1184","4","true_70",104,1,104,0,NA,0,0,1.638,NA
"1185","4","true_70",105,1,105,0,NA,1,0,2.471,NA
"1186","4","false_50",106,1,106,0,NA,0,0,2.848,NA
"1187","4","false_50",107,1,107,0,NA,0,0,1.814,NA
"1188","4","false_50",108,1,108,0,NA,0,0,2.809,NA
"1189","4","false_50",109,1,109,0,NA,0,0,4.103,NA
"1190","4","false_50",110,1,110,0,NA,0,0,2.524,NA
"1191","4","false_60",111,1,111,0,NA,0,0,3.132,NA
"1192","4","false_60",112,1,112,0,NA,0,0,3.081,NA
"1193","4","false_60",113,1,113,0,NA,0,0,7.492,NA
"1194","4","false_60",114,1,114,0,NA,0,0,3.411,NA
"1195","4","false_60",115,1,115,0,NA,0,0,6.02,NA
"1196","4","false_70",116,1,116,0,NA,0,0,3.094,NA
"1197","4","false_70",117,1,117,0,NA,0,0,1.775,NA
"1198","4","false_70",118,1,118,0,NA,1,0,6.38,NA
"1199","4","false_70",119,1,119,0,NA,0,0,9.294,NA
"1200","4","false_70",120,1,120,0,NA,0,0,2.611,NA
"1201","5","true_50",1,1,1,1,NA,1,1,2.563,NA
"1202","5","true_50",2,1,2,1,NA,0,1,2.767,NA
"1203","5","true_50",3,1,3,1,NA,1,1,9.446,NA
"1204","5","true_50",4,1,4,1,NA,1,1,1.733,NA
"1205","5","true_50",5,1,5,1,NA,0,1,1.074,NA
"1206","5","true_60",6,1,6,1,NA,1,1,2.577,NA
"1207","5","true_60",7,1,7,1,NA,1,1,4.029,NA
"1208","5","true_60",8,1,8,1,NA,1,1,4.148,NA
"1209","5","true_60",9,1,9,1,NA,1,1,4.381,NA
"1210","5","true_60",10,1,10,1,NA,0,1,3.734,NA
"1211","5","true_70",11,1,11,1,NA,1,1,2.675,NA
"1212","5","true_70",12,1,12,1,NA,0,1,8.421,NA
"1213","5","true_70",13,1,13,1,NA,1,1,4.772,NA
"1214","5","true_70",14,1,14,1,NA,0,1,4.643,NA
"1215","5","true_70",15,1,15,1,NA,1,1,2.837,NA
"1216","5","false_50",16,1,16,1,NA,0,1,1.198,NA
"1217","5","false_50",17,1,17,1,NA,1,1,6.587,NA
"1218","5","false_50",18,1,18,1,NA,1,1,2.886,NA
"1219","5","false_50",19,1,19,1,NA,0,1,2.838,NA
"1220","5","false_50",20,1,20,1,NA,0,1,3.457,NA
"1221","5","false_60",21,1,21,1,NA,1,1,1.343,NA
"1222","5","false_60",22,1,22,1,NA,1,1,2.526,NA
"1223","5","false_60",23,1,23,1,NA,0,1,10.787,NA
"1224","5","false_60",24,1,24,1,NA,1,1,3.82,NA
"1225","5","false_60",25,1,25,1,NA,0,1,4.615,NA
"1226","5","false_70",26,1,26,1,NA,1,1,5.817,NA
"1227","5","false_70",27,1,27,1,NA,0,1,2.379,NA
"1228","5","false_70",28,1,28,1,NA,0,1,3.051,NA
"1229","5","false_70",29,1,29,1,NA,0,1,4.772,NA
"1230","5","false_70",30,1,30,1,NA,0,1,2.274,NA
"1231","5","true_50",31,1,31,1,NA,1,0,2.379,NA
"1232","5","true_50",32,1,32,1,NA,1,0,3.371,NA
"1233","5","true_50",33,1,33,1,NA,1,0,4.447,NA
"1234","5","true_50",34,1,34,1,NA,0,0,6.303,NA
"1235","5","true_50",35,1,35,1,NA,0,0,6.119,NA
"1236","5","true_60",36,1,36,1,NA,0,0,3.915,NA
"1237","5","true_60",37,1,37,1,NA,0,0,4.262,NA
"1238","5","true_60",38,1,38,1,NA,0,0,4.436,NA
"1239","5","true_60",39,1,39,1,NA,0,0,1.708,NA
"1240","5","true_60",40,1,40,1,NA,0,0,6.078,NA
"1241","5","true_70",41,1,41,1,NA,1,0,3.024,NA
"1242","5","true_70",42,1,42,1,NA,0,0,4.221,NA
"1243","5","true_70",43,1,43,1,NA,1,0,2.644,NA
"1244","5","true_70",44,1,44,1,NA,1,0,3.842,NA
"1245","5","true_70",45,1,45,1,NA,1,0,3.479,NA
"1246","5","false_50",46,1,46,1,NA,0,0,2.835,NA
"1247","5","false_50",47,1,47,1,NA,0,0,4.397,NA
"1248","5","false_50",48,1,48,1,NA,0,0,14.332,NA
"1249","5","false_50",49,1,49,1,NA,0,0,6.818,NA
"1250","5","false_50",50,1,50,1,NA,0,0,5.931,NA
"1251","5","false_60",51,1,51,1,NA,1,0,4.315,NA
"1252","5","false_60",52,1,52,1,NA,1,0,5.633,NA
"1253","5","false_60",53,1,53,1,NA,1,0,2.216,NA
"1254","5","false_60",54,1,54,1,NA,1,0,4.933,NA
"1255","5","false_60",55,1,55,1,NA,1,0,1.799,NA
"1256","5","false_70",56,1,56,1,NA,1,0,2.351,NA
"1257","5","false_70",57,1,57,1,NA,1,0,4.138,NA
"1258","5","false_70",58,1,58,1,NA,0,0,3.911,NA
"1259","5","false_70",59,1,59,1,NA,0,0,3.626,NA
"1260","5","false_70",60,1,60,1,NA,1,0,1.636,NA
"1261","5","true_50",61,1,61,0,NA,1,1,4.101,NA
"1262","5","true_50",62,1,62,0,NA,1,1,2.982,NA
"1263","5","true_50",63,1,63,0,NA,1,1,4.585,NA
"1264","5","true_50",64,1,64,0,NA,0,1,2.758,NA
"1265","5","true_50",65,1,65,0,NA,1,1,2.725,NA
"1266","5","true_60",66,1,66,0,NA,1,1,1.94,NA
"1267","5","true_60",67,1,67,0,NA,1,1,1.181,NA
"1268","5","true_60",68,1,68,0,NA,1,1,3.215,NA
"1269","5","true_60",69,1,69,0,NA,1,1,5.134,NA
"1270","5","true_60",70,1,70,0,NA,1,1,1.69,NA
"1271","5","true_70",71,1,71,0,NA,1,1,1.733,NA
"1272","5","true_70",72,1,72,0,NA,0,1,1.598,NA
"1273","5","true_70",73,1,73,0,NA,1,1,2.824,NA
"1274","5","true_70",74,1,74,0,NA,1,1,1.786,NA
"1275","5","true_70",75,1,75,0,NA,1,1,2.295,NA
"1276","5","false_50",76,1,76,0,NA,0,1,3.026,NA
"1277","5","false_50",77,1,77,0,NA,0,1,4.25,NA
"1278","5","false_50",78,1,78,0,NA,1,1,3.627,NA
"1279","5","false_50",79,1,79,0,NA,1,1,5.081,NA
"1280","5","false_50",80,1,80,0,NA,1,1,6.778,NA
"1281","5","false_60",81,1,81,0,NA,0,1,3.331,NA
"1282","5","false_60",82,1,82,0,NA,0,1,3.309,NA
"1283","5","false_60",83,1,83,0,NA,1,1,5.97,NA
"1284","5","false_60",84,1,84,0,NA,1,1,5.191,NA
"1285","5","false_60",85,1,85,0,NA,1,1,7.525,NA
"1286","5","false_70",86,1,86,0,NA,0,1,5.449,NA
"1287","5","false_70",87,1,87,0,NA,0,1,3.223,NA
"1288","5","false_70",88,1,88,0,NA,0,1,3.484,NA
"1289","5","false_70",89,1,89,0,NA,1,1,1.823,NA
"1290","5","false_70",90,1,90,0,NA,1,1,3.555,NA
"1291","5","true_50",91,1,91,0,NA,1,0,2.685,NA
"1292","5","true_50",92,1,92,0,NA,1,0,1.837,NA
"1293","5","true_50",93,1,93,0,NA,0,0,2.759,NA
"1294","5","true_50",94,1,94,0,NA,0,0,3.119,NA
"1295","5","true_50",95,1,95,0,NA,1,0,2.982,NA
"1296","5","true_60",96,1,96,0,NA,1,0,4.394,NA
"1297","5","true_60",97,1,97,0,NA,0,0,4.413,NA
"1298","5","true_60",98,1,98,0,NA,1,0,2.283,NA
"1299","5","true_60",99,1,99,0,NA,1,0,1.85,NA
"1300","5","true_60",100,1,100,0,NA,1,0,3.008,NA
"1301","5","true_70",101,1,101,0,NA,0,0,2.326,NA
"1302","5","true_70",102,1,102,0,NA,1,0,3.655,NA
"1303","5","true_70",103,1,103,0,NA,1,0,2.483,NA
"1304","5","true_70",104,1,104,0,NA,0,0,4.948,NA
"1305","5","true_70",105,1,105,0,NA,1,0,10.958,NA
"1306","5","false_50",106,1,106,0,NA,0,0,6.887,NA
"1307","5","false_50",107,1,107,0,NA,0,0,5.978,NA
"1308","5","false_50",108,1,108,0,NA,0,0,3.187,NA
"1309","5","false_50",109,1,109,0,NA,0,0,9.31,NA
"1310","5","false_50",110,1,110,0,NA,1,0,6.011,NA
"1311","5","false_60",111,1,111,0,NA,0,0,5.618,NA
"1312","5","false_60",112,1,112,0,NA,1,0,3.104,NA
"1313","5","false_60",113,1,113,0,NA,0,0,4.355,NA
"1314","5","false_60",114,1,114,0,NA,0,0,3.454,NA
"1315","5","false_60",115,1,115,0,NA,0,0,2.636,NA
"1316","5","false_70",116,1,116,0,NA,1,0,3.21,NA
"1317","5","false_70",117,1,117,0,NA,0,0,3.657,NA
"1318","5","false_70",118,1,118,0,NA,0,0,4.814,NA
"1319","5","false_70",119,1,119,0,NA,0,0,3.944,NA
"1320","5","false_70",120,1,120,0,NA,0,0,2.151,NA
"1321","12","true_50",1,1,1,1,NA,0,1,4.878,NA
"1322","12","true_50",2,1,2,1,NA,1,1,1.861,NA
"1323","12","true_50",3,1,3,1,NA,1,1,4.11,NA
"1324","12","true_50",4,1,4,1,NA,1,1,4.056,NA
"1325","12","true_50",5,1,5,1,NA,1,1,1.688,NA
"1326","12","true_60",6,1,6,1,NA,1,1,3.761,NA
"1327","12","true_60",7,1,7,1,NA,1,1,3.904,NA
"1328","12","true_60",8,1,8,1,NA,1,1,8.476,NA
"1329","12","true_60",9,1,9,1,NA,0,1,11.546,NA
"1330","12","true_60",10,1,10,1,NA,1,1,1.62,NA
"1331","12","true_70",11,1,11,1,NA,0,1,2.227,NA
"1332","12","true_70",12,1,12,1,NA,1,1,1.766,NA
"1333","12","true_70",13,1,13,1,NA,1,1,2.845,NA
"1334","12","true_70",14,1,14,1,NA,1,1,1.164,NA
"1335","12","true_70",15,1,15,1,NA,1,1,2.861,NA
"1336","12","false_50",16,1,16,1,NA,0,1,3.532,NA
"1337","12","false_50",17,1,17,1,NA,0,1,4.656,NA
"1338","12","false_50",18,1,18,1,NA,0,1,2.633,NA
"1339","12","false_50",19,1,19,1,NA,1,1,2.577,NA
"1340","12","false_50",20,1,20,1,NA,0,1,9.584,NA
"1341","12","false_60",21,1,21,1,NA,0,1,2.428,NA
"1342","12","false_60",22,1,22,1,NA,1,1,1.446,NA
"1343","12","false_60",23,1,23,1,NA,1,1,6.607,NA
"1344","12","false_60",24,1,24,1,NA,1,1,4.049,NA
"1345","12","false_60",25,1,25,1,NA,1,1,2.989,NA
"1346","12","false_70",26,1,26,1,NA,0,1,2.44,NA
"1347","12","false_70",27,1,27,1,NA,0,1,5.685,NA
"1348","12","false_70",28,1,28,1,NA,1,1,2.75,NA
"1349","12","false_70",29,1,29,1,NA,0,1,11.45,NA
"1350","12","false_70",30,1,30,1,NA,0,1,7.058,NA
"1351","12","true_50",31,1,31,1,NA,1,0,15.319,NA
"1352","12","true_50",32,1,32,1,NA,1,0,2.734,NA
"1353","12","true_50",33,1,33,1,NA,1,0,2.777,NA
"1354","12","true_50",34,1,34,1,NA,0,0,4.488,NA
"1355","12","true_50",35,1,35,1,NA,0,0,3.061,NA
"1356","12","true_60",36,1,36,1,NA,0,0,7.13,NA
"1357","12","true_60",37,1,37,1,NA,0,0,7.859,NA
"1358","12","true_60",38,1,38,1,NA,1,0,2.909,NA
"1359","12","true_60",39,1,39,1,NA,0,0,1.665,NA
"1360","12","true_60",40,1,40,1,NA,1,0,8.995,NA
"1361","12","true_70",41,1,41,1,NA,0,0,14.479,NA
"1362","12","true_70",42,1,42,1,NA,1,0,3.379,NA
"1363","12","true_70",43,1,43,1,NA,1,0,2.036,NA
"1364","12","true_70",44,1,44,1,NA,1,0,6.189,NA
"1365","12","true_70",45,1,45,1,NA,0,0,2.445,NA
"1366","12","false_50",46,1,46,1,NA,1,0,1.955,NA
"1367","12","false_50",47,1,47,1,NA,0,0,3.037,NA
"1368","12","false_50",48,1,48,1,NA,1,0,4.335,NA
"1369","12","false_50",49,1,49,1,NA,0,0,2.215,NA
"1370","12","false_50",50,1,50,1,NA,1,0,4.836,NA
"1371","12","false_60",51,1,51,1,NA,0,0,2.013,NA
"1372","12","false_60",52,1,52,1,NA,1,0,3.477,NA
"1373","12","false_60",53,1,53,1,NA,0,0,4.486,NA
"1374","12","false_60",54,1,54,1,NA,0,0,3.679,NA
"1375","12","false_60",55,1,55,1,NA,1,0,14.271,NA
"1376","12","false_70",56,1,56,1,NA,0,0,3.235,NA
"1377","12","false_70",57,1,57,1,NA,0,0,2.392,NA
"1378","12","false_70",58,1,58,1,NA,0,0,4.932,NA
"1379","12","false_70",59,1,59,1,NA,0,0,3.102,NA
"1380","12","false_70",60,1,60,1,NA,0,0,2.042,NA
"1381","12","true_50",61,1,61,0,NA,1,1,3.85,NA
"1382","12","true_50",62,1,62,0,NA,1,1,4.52,NA
"1383","12","true_50",63,1,63,0,NA,1,1,2.979,NA
"1384","12","true_50",64,1,64,0,NA,1,1,2.102,NA
"1385","12","true_50",65,1,65,0,NA,0,1,2.618,NA
"1386","12","true_60",66,1,66,0,NA,1,1,2.788,NA
"1387","12","true_60",67,1,67,0,NA,1,1,2.643,NA
"1388","12","true_60",68,1,68,0,NA,1,1,2.588,NA
"1389","12","true_60",69,1,69,0,NA,0,1,2.068,NA
"1390","12","true_60",70,1,70,0,NA,1,1,2.226,NA
"1391","12","true_70",71,1,71,0,NA,0,1,15.468,NA
"1392","12","true_70",72,1,72,0,NA,1,1,1.919,NA
"1393","12","true_70",73,1,73,0,NA,1,1,3.356,NA
"1394","12","true_70",74,1,74,0,NA,1,1,2.509,NA
"1395","12","true_70",75,1,75,0,NA,1,1,3.611,NA
"1396","12","false_50",76,1,76,0,NA,1,1,2.039,NA
"1397","12","false_50",77,1,77,0,NA,1,1,1.701,NA
"1398","12","false_50",78,1,78,0,NA,0,1,2.74,NA
"1399","12","false_50",79,1,79,0,NA,1,1,8.423,NA
"1400","12","false_50",80,1,80,0,NA,1,1,2.008,NA
"1401","12","false_60",81,1,81,0,NA,0,1,8.787,NA
"1402","12","false_60",82,1,82,0,NA,0,1,2.521,NA
"1403","12","false_60",83,1,83,0,NA,0,1,2.189,NA
"1404","12","false_60",84,1,84,0,NA,0,1,2.191,NA
"1405","12","false_60",85,1,85,0,NA,1,1,1.888,NA
"1406","12","false_70",86,1,86,0,NA,0,1,3.505,NA
"1407","12","false_70",87,1,87,0,NA,0,1,2.604,NA
"1408","12","false_70",88,1,88,0,NA,0,1,5.43,NA
"1409","12","false_70",89,1,89,0,NA,1,1,12.535,NA
"1410","12","false_70",90,1,90,0,NA,0,1,3.436,NA
"1411","12","true_50",91,1,91,0,NA,1,0,3.258,NA
"1412","12","true_50",92,1,92,0,NA,1,0,2.251,NA
"1413","12","true_50",93,1,93,0,NA,1,0,4.267,NA
"1414","12","true_50",94,1,94,0,NA,1,0,2.026,NA
"1415","12","true_50",95,1,95,0,NA,0,0,1.678,NA
"1416","12","true_60",96,1,96,0,NA,1,0,2.209,NA
"1417","12","true_60",97,1,97,0,NA,0,0,4.39,NA
"1418","12","true_60",98,1,98,0,NA,1,0,7.427,NA
"1419","12","true_60",99,1,99,0,NA,1,0,2.373,NA
"1420","12","true_60",100,1,100,0,NA,1,0,3.475,NA
"1421","12","true_70",101,1,101,0,NA,0,0,3.388,NA
"1422","12","true_70",102,1,102,0,NA,1,0,3.196,NA
"1423","12","true_70",103,1,103,0,NA,1,0,12.964,NA
"1424","12","true_70",104,1,104,0,NA,1,0,4.227,NA
"1425","12","true_70",105,1,105,0,NA,1,0,12.684,NA
"1426","12","false_50",106,1,106,0,NA,0,0,2.121,NA
"1427","12","false_50",107,1,107,0,NA,1,0,5.829,NA
"1428","12","false_50",108,1,108,0,NA,1,0,2.413,NA
"1429","12","false_50",109,1,109,0,NA,0,0,1.973,NA
"1430","12","false_50",110,1,110,0,NA,1,0,1.557,NA
"1431","12","false_60",111,1,111,0,NA,0,0,2.122,NA
"1432","12","false_60",112,1,112,0,NA,0,0,2.696,NA
"1433","12","false_60",113,1,113,0,NA,0,0,2.549,NA
"1434","12","false_60",114,1,114,0,NA,0,0,3.336,NA
"1435","12","false_60",115,1,115,0,NA,1,0,3.649,NA
"1436","12","false_70",116,1,116,0,NA,1,0,2.037,NA
"1437","12","false_70",117,1,117,0,NA,1,0,1.515,NA
"1438","12","false_70",118,1,118,0,NA,0,0,8.912,NA
"1439","12","false_70",119,1,119,0,NA,1,0,1.649,NA
"1440","12","false_70",120,1,120,0,NA,0,0,5.804,NA
"1441","22","true_50",1,1,1,1,NA,1,1,3.39,NA
"1442","22","true_50",2,1,2,1,NA,0,1,7.354,NA
"1443","22","true_50",3,1,3,1,NA,1,1,1.661,NA
"1444","22","true_50",4,1,4,1,NA,1,1,1.391,NA
"1445","22","true_50",5,1,5,1,NA,0,1,3.509,NA
"1446","22","true_60",6,1,6,1,NA,1,1,4.489,NA
"1447","22","true_60",7,1,7,1,NA,0,1,7.041,NA
"1448","22","true_60",8,1,8,1,NA,1,1,2.535,NA
"1449","22","true_60",9,1,9,1,NA,1,1,5.261,NA
"1450","22","true_60",10,1,10,1,NA,0,1,8.563,NA
"1451","22","true_70",11,1,11,1,NA,1,1,3.611,NA
"1452","22","true_70",12,1,12,1,NA,1,1,4.82,NA
"1453","22","true_70",13,1,13,1,NA,0,1,6.375,NA
"1454","22","true_70",14,1,14,1,NA,0,1,9.467,NA
"1455","22","true_70",15,1,15,1,NA,0,1,5.024,NA
"1456","22","false_50",16,1,16,1,NA,1,1,3.948,NA
"1457","22","false_50",17,1,17,1,NA,1,1,3.517,NA
"1458","22","false_50",18,1,18,1,NA,0,1,5.431,NA
"1459","22","false_50",19,1,19,1,NA,1,1,5.97,NA
"1460","22","false_50",20,1,20,1,NA,1,1,1.566,NA
"1461","22","false_60",21,1,21,1,NA,1,1,9.36,NA
"1462","22","false_60",22,1,22,1,NA,1,1,7.875,NA
"1463","22","false_60",23,1,23,1,NA,0,1,6.751,NA
"1464","22","false_60",24,1,24,1,NA,0,1,8.027,NA
"1465","22","false_60",25,1,25,1,NA,1,1,2.039,NA
"1466","22","false_70",26,1,26,1,NA,1,1,1.125,NA
"1467","22","false_70",27,1,27,1,NA,1,1,4.581,NA
"1468","22","false_70",28,1,28,1,NA,1,1,4.255,NA
"1469","22","false_70",29,1,29,1,NA,0,1,4.301,NA
"1470","22","false_70",30,1,30,1,NA,0,1,6.168,NA
"1471","22","true_50",31,1,31,1,NA,1,0,10.419,NA
"1472","22","true_50",32,1,32,1,NA,0,0,6.894,NA
"1473","22","true_50",33,1,33,1,NA,0,0,5.428,NA
"1474","22","true_50",34,1,34,1,NA,1,0,5.472,NA
"1475","22","true_50",35,1,35,1,NA,1,0,3.92,NA
"1476","22","true_60",36,1,36,1,NA,1,0,3.146,NA
"1477","22","true_60",37,1,37,1,NA,0,0,8.566,NA
"1478","22","true_60",38,1,38,1,NA,0,0,7.68,NA
"1479","22","true_60",39,1,39,1,NA,0,0,8.484,NA
"1480","22","true_60",40,1,40,1,NA,1,0,4.055,NA
"1481","22","true_70",41,1,41,1,NA,1,0,9.768,NA
"1482","22","true_70",42,1,42,1,NA,0,0,3.954,NA
"1483","22","true_70",43,1,43,1,NA,0,0,8.431,NA
"1484","22","true_70",44,1,44,1,NA,1,0,1.749,NA
"1485","22","true_70",45,1,45,1,NA,0,0,4.099,NA
"1486","22","false_50",46,1,46,1,NA,1,0,4.219,NA
"1487","22","false_50",47,1,47,1,NA,1,0,4.569,NA
"1488","22","false_50",48,1,48,1,NA,1,0,4.186,NA
"1489","22","false_50",49,1,49,1,NA,1,0,2.888,NA
"1490","22","false_50",50,1,50,1,NA,1,0,4.297,NA
"1491","22","false_60",51,1,51,1,NA,1,0,3.654,NA
"1492","22","false_60",52,1,52,1,NA,1,0,6.773,NA
"1493","22","false_60",53,1,53,1,NA,1,0,3.454,NA
"1494","22","false_60",54,1,54,1,NA,0,0,8.172,NA
"1495","22","false_60",55,1,55,1,NA,1,0,4.603,NA
"1496","22","false_70",56,1,56,1,NA,0,0,4.192,NA
"1497","22","false_70",57,1,57,1,NA,1,0,3.827,NA
"1498","22","false_70",58,1,58,1,NA,0,0,6.319,NA
"1499","22","false_70",59,1,59,1,NA,0,0,6.762,NA
"1500","22","false_70",60,1,60,1,NA,1,0,6.69,NA
"1501","22","true_50",61,1,61,0,NA,1,1,5.08,NA
"1502","22","true_50",62,1,62,0,NA,1,1,2.807,NA
"1503","22","true_50",63,1,63,0,NA,0,1,6.618,NA
"1504","22","true_50",64,1,64,0,NA,1,1,4.771,NA
"1505","22","true_50",65,1,65,0,NA,1,1,2.522,NA
"1506","22","true_60",66,1,66,0,NA,0,1,4.667,NA
"1507","22","true_60",67,1,67,0,NA,0,1,3.829,NA
"1508","22","true_60",68,1,68,0,NA,1,1,2.575,NA
"1509","22","true_60",69,1,69,0,NA,1,1,4.638,NA
"1510","22","true_60",70,1,70,0,NA,1,1,1.543,NA
"1511","22","true_70",71,1,71,0,NA,0,1,4.481,NA
"1512","22","true_70",72,1,72,0,NA,1,1,3.857,NA
"1513","22","true_70",73,1,73,0,NA,1,1,5.481,NA
"1514","22","true_70",74,1,74,0,NA,1,1,3.963,NA
"1515","22","true_70",75,1,75,0,NA,0,1,13.9,NA
"1516","22","false_50",76,1,76,0,NA,0,1,5.864,NA
"1517","22","false_50",77,1,77,0,NA,1,1,4.274,NA
"1518","22","false_50",78,1,78,0,NA,0,1,7.503,NA
"1519","22","false_50",79,1,79,0,NA,0,1,5.781,NA
"1520","22","false_50",80,1,80,0,NA,1,1,2.614,NA
"1521","22","false_60",81,1,81,0,NA,1,1,4.11,NA
"1522","22","false_60",82,1,82,0,NA,1,1,2.173,NA
"1523","22","false_60",83,1,83,0,NA,1,1,4.444,NA
"1524","22","false_60",84,1,84,0,NA,0,1,5.622,NA
"1525","22","false_60",85,1,85,0,NA,0,1,5.246,NA
"1526","22","false_70",86,1,86,0,NA,0,1,4.999,NA
"1527","22","false_70",87,1,87,0,NA,1,1,6.234,NA
"1528","22","false_70",88,1,88,0,NA,0,1,4.667,NA
"1529","22","false_70",89,1,89,0,NA,1,1,3.884,NA
"1530","22","false_70",90,1,90,0,NA,1,1,4.233,NA
"1531","22","true_50",91,1,91,0,NA,0,0,4.288,NA
"1532","22","true_50",92,1,92,0,NA,1,0,5.403,NA
"1533","22","true_50",93,1,93,0,NA,0,0,4.642,NA
"1534","22","true_50",94,1,94,0,NA,0,0,3.779,NA
"1535","22","true_50",95,1,95,0,NA,0,0,6.533,NA
"1536","22","true_60",96,1,96,0,NA,0,0,5.281,NA
"1537","22","true_60",97,1,97,0,NA,0,0,6.022,NA
"1538","22","true_60",98,1,98,0,NA,0,0,4.051,NA
"1539","22","true_60",99,1,99,0,NA,1,0,4.297,NA
"1540","22","true_60",100,1,100,0,NA,0,0,6.155,NA
"1541","22","true_70",101,1,101,0,NA,0,0,6.627,NA
"1542","22","true_70",102,1,102,0,NA,0,0,12.222,NA
"1543","22","true_70",103,1,103,0,NA,1,0,2.241,NA
"1544","22","true_70",104,1,104,0,NA,0,0,3.592,NA
"1545","22","true_70",105,1,105,0,NA,0,0,6.236,NA
"1546","22","false_50",106,1,106,0,NA,1,0,5.012,NA
"1547","22","false_50",107,1,107,0,NA,1,0,2.429,NA
"1548","22","false_50",108,1,108,0,NA,1,0,11.284,NA
"1549","22","false_50",109,1,109,0,NA,0,0,4.636,NA
"1550","22","false_50",110,1,110,0,NA,1,0,6.492,NA
"1551","22","false_60",111,1,111,0,NA,0,0,8.97,NA
"1552","22","false_60",112,1,112,0,NA,1,0,5.615,NA
"1553","22","false_60",113,1,113,0,NA,0,0,4.596,NA
"1554","22","false_60",114,1,114,0,NA,0,0,5.768,NA
"1555","22","false_60",115,1,115,0,NA,0,0,3.751,NA
"1556","22","false_70",116,1,116,0,NA,1,0,5.683,NA
"1557","22","false_70",117,1,117,0,NA,1,0,4.583,NA
"1558","22","false_70",118,1,118,0,NA,0,0,4.103,NA
"1559","22","false_70",119,1,119,0,NA,1,0,2.347,NA
"1560","22","false_70",120,1,120,0,NA,0,0,5.027,NA
"1561","30","true_50",1,1,1,1,NA,0,1,4.4,NA
"1562","30","true_50",2,1,2,1,NA,0,1,5.553,NA
"1563","30","true_50",3,1,3,1,NA,1,1,5.581,NA
"1564","30","true_50",4,1,4,1,NA,0,1,4.632,NA
"1565","30","true_50",5,1,5,1,NA,1,1,5.297,NA
"1566","30","true_60",6,1,6,1,NA,1,1,21.924,NA
"1567","30","true_60",7,1,7,1,NA,1,1,3.028,NA
"1568","30","true_60",8,1,8,1,NA,1,1,3.594,NA
"1569","30","true_60",9,1,9,1,NA,1,1,3.945,NA
"1570","30","true_60",10,1,10,1,NA,1,1,3.515,NA
"1571","30","true_70",11,1,11,1,NA,1,1,2.128,NA
"1572","30","true_70",12,1,12,1,NA,1,1,3.782,NA
"1573","30","true_70",13,1,13,1,NA,1,1,8.025,NA
"1574","30","true_70",14,1,14,1,NA,1,1,2.507,NA
"1575","30","true_70",15,1,15,1,NA,1,1,7.942,NA
"1576","30","false_50",16,1,16,1,NA,1,1,1.756,NA
"1577","30","false_50",17,1,17,1,NA,1,1,10.022,NA
"1578","30","false_50",18,1,18,1,NA,1,1,2.491,NA
"1579","30","false_50",19,1,19,1,NA,1,1,7.848,NA
"1580","30","false_50",20,1,20,1,NA,1,1,3.365,NA
"1581","30","false_60",21,1,21,1,NA,0,1,2.2,NA
"1582","30","false_60",22,1,22,1,NA,0,1,2.952,NA
"1583","30","false_60",23,1,23,1,NA,0,1,12.143,NA
"1584","30","false_60",24,1,24,1,NA,0,1,2.147,NA
"1585","30","false_60",25,1,25,1,NA,0,1,5.154,NA
"1586","30","false_70",26,1,26,1,NA,0,1,2.171,NA
"1587","30","false_70",27,1,27,1,NA,1,1,2.235,NA
"1588","30","false_70",28,1,28,1,NA,0,1,3.774,NA
"1589","30","false_70",29,1,29,1,NA,0,1,2.346,NA
"1590","30","false_70",30,1,30,1,NA,0,1,2.978,NA
"1591","30","true_50",31,1,31,1,NA,0,0,4.122,NA
"1592","30","true_50",32,1,32,1,NA,1,0,7.823,NA
"1593","30","true_50",33,1,33,1,NA,1,0,2.132,NA
"1594","30","true_50",34,1,34,1,NA,1,0,2.884,NA
"1595","30","true_50",35,1,35,1,NA,1,0,3.865,NA
"1596","30","true_60",36,1,36,1,NA,1,0,3.15,NA
"1597","30","true_60",37,1,37,1,NA,1,0,3.395,NA
"1598","30","true_60",38,1,38,1,NA,1,0,5.191,NA
"1599","30","true_60",39,1,39,1,NA,0,0,3.732,NA
"1600","30","true_60",40,1,40,1,NA,1,0,5.017,NA
"1601","30","true_70",41,1,41,1,NA,1,0,3.609,NA
"1602","30","true_70",42,1,42,1,NA,1,0,5.38,NA
"1603","30","true_70",43,1,43,1,NA,1,0,8.129,NA
"1604","30","true_70",44,1,44,1,NA,1,0,2.558,NA
"1605","30","true_70",45,1,45,1,NA,1,0,2.708,NA
"1606","30","false_50",46,1,46,1,NA,0,0,8.159,NA
"1607","30","false_50",47,1,47,1,NA,1,0,3.328,NA
"1608","30","false_50",48,1,48,1,NA,0,0,7.313,NA
"1609","30","false_50",49,1,49,1,NA,0,0,9.474,NA
"1610","30","false_50",50,1,50,1,NA,1,0,2.357,NA
"1611","30","false_60",51,1,51,1,NA,0,0,3.717,NA
"1612","30","false_60",52,1,52,1,NA,0,0,3.007,NA
"1613","30","false_60",53,1,53,1,NA,1,0,3.957,NA
"1614","30","false_60",54,1,54,1,NA,0,0,4.415,NA
"1615","30","false_60",55,1,55,1,NA,0,0,2.726,NA
"1616","30","false_70",56,1,56,1,NA,1,0,5.356,NA
"1617","30","false_70",57,1,57,1,NA,1,0,5.502,NA
"1618","30","false_70",58,1,58,1,NA,0,0,2.213,NA
"1619","30","false_70",59,1,59,1,NA,1,0,3.632,NA
"1620","30","false_70",60,1,60,1,NA,1,0,6.386,NA
"1621","30","true_50",61,1,61,0,NA,0,1,5.084,NA
"1622","30","true_50",62,1,62,0,NA,0,1,2.94,NA
"1623","30","true_50",63,1,63,0,NA,0,1,2.149,NA
"1624","30","true_50",64,1,64,0,NA,1,1,4.345,NA
"1625","30","true_50",65,1,65,0,NA,0,1,6.581,NA
"1626","30","true_60",66,1,66,0,NA,1,1,6.613,NA
"1627","30","true_60",67,1,67,0,NA,1,1,5.824,NA
"1628","30","true_60",68,1,68,0,NA,1,1,5.377,NA
"1629","30","true_60",69,1,69,0,NA,1,1,12.371,NA
"1630","30","true_60",70,1,70,0,NA,1,1,3.35,NA
"1631","30","true_70",71,1,71,0,NA,1,1,5.665,NA
"1632","30","true_70",72,1,72,0,NA,1,1,2.478,NA
"1633","30","true_70",73,1,73,0,NA,0,1,1.931,NA
"1634","30","true_70",74,1,74,0,NA,1,1,4.707,NA
"1635","30","true_70",75,1,75,0,NA,1,1,2.308,NA
"1636","30","false_50",76,1,76,0,NA,1,1,4.334,NA
"1637","30","false_50",77,1,77,0,NA,1,1,6.738,NA
"1638","30","false_50",78,1,78,0,NA,1,1,15.26,NA
"1639","30","false_50",79,1,79,0,NA,1,1,3.232,NA
"1640","30","false_50",80,1,80,0,NA,0,1,10.859,NA
"1641","30","false_60",81,1,81,0,NA,1,1,6.625,NA
"1642","30","false_60",82,1,82,0,NA,1,1,2.962,NA
"1643","30","false_60",83,1,83,0,NA,1,1,4.751,NA
"1644","30","false_60",84,1,84,0,NA,0,1,12.201,NA
"1645","30","false_60",85,1,85,0,NA,0,1,2.212,NA
"1646","30","false_70",86,1,86,0,NA,0,1,6.969,NA
"1647","30","false_70",87,1,87,0,NA,0,1,2.376,NA
"1648","30","false_70",88,1,88,0,NA,0,1,4.646,NA
"1649","30","false_70",89,1,89,0,NA,1,1,2.845,NA
"1650","30","false_70",90,1,90,0,NA,0,1,17.153,NA
"1651","30","true_50",91,1,91,0,NA,0,0,6.965,NA
"1652","30","true_50",92,1,92,0,NA,1,0,4.576,NA
"1653","30","true_50",93,1,93,0,NA,1,0,2.695,NA
"1654","30","true_50",94,1,94,0,NA,0,0,2.604,NA
"1655","30","true_50",95,1,95,0,NA,0,0,3.5,NA
"1656","30","true_60",96,1,96,0,NA,1,0,5.741,NA
"1657","30","true_60",97,1,97,0,NA,0,0,17.7,NA
"1658","30","true_60",98,1,98,0,NA,1,0,2.464,NA
"1659","30","true_60",99,1,99,0,NA,1,0,6.882,NA
"1660","30","true_60",100,1,100,0,NA,1,0,5.205,NA
"1661","30","true_70",101,1,101,0,NA,1,0,2.481,NA
"1662","30","true_70",102,1,102,0,NA,1,0,2.077,NA
"1663","30","true_70",103,1,103,0,NA,0,0,5.568,NA
"1664","30","true_70",104,1,104,0,NA,1,0,2.598,NA
"1665","30","true_70",105,1,105,0,NA,1,0,5.768,NA
"1666","30","false_50",106,1,106,0,NA,0,0,8.845,NA
"1667","30","false_50",107,1,107,0,NA,1,0,5.18,NA
"1668","30","false_50",108,1,108,0,NA,0,0,2.336,NA
"1669","30","false_50",109,1,109,0,NA,0,0,4.561,NA
"1670","30","false_50",110,1,110,0,NA,0,0,4.655,NA
"1671","30","false_60",111,1,111,0,NA,0,0,2.362,NA
"1672","30","false_60",112,1,112,0,NA,1,0,4.156,NA
"1673","30","false_60",113,1,113,0,NA,0,0,2.497,NA
"1674","30","false_60",114,1,114,0,NA,1,0,4.357,NA
"1675","30","false_60",115,1,115,0,NA,0,0,2.895,NA
"1676","30","false_70",116,1,116,0,NA,0,0,3.799,NA
"1677","30","false_70",117,1,117,0,NA,0,0,7.959,NA
"1678","30","false_70",118,1,118,0,NA,0,0,5.087,NA
"1679","30","false_70",119,1,119,0,NA,0,0,2.361,NA
"1680","30","false_70",120,1,120,0,NA,0,0,13.964,NA
"1681","1","true_50",1,1,1,1,NA,1,1,8.458,NA
"1682","1","true_50",2,1,2,1,NA,1,1,5.478,NA
"1683","1","true_50",3,1,3,1,NA,0,1,11.247,NA
"1684","1","true_50",4,1,4,1,NA,1,1,3.92,NA
"1685","1","true_50",5,1,5,1,NA,0,1,5.937,NA
"1686","1","true_60",6,1,6,1,NA,1,1,1.646,NA
"1687","1","true_60",7,1,7,1,NA,1,1,9.568,NA
"1688","1","true_60",8,1,8,1,NA,1,1,2.014,NA
"1689","1","true_60",9,1,9,1,NA,0,1,6.998,NA
"1690","1","true_60",10,1,10,1,NA,1,1,9.905,NA
"1691","1","true_70",11,1,11,1,NA,1,1,5.809,NA
"1692","1","true_70",12,1,12,1,NA,1,1,3.293,NA
"1693","1","true_70",13,1,13,1,NA,1,1,6.162,NA
"1694","1","true_70",14,1,14,1,NA,1,1,5.46,NA
"1695","1","true_70",15,1,15,1,NA,1,1,3.333,NA
"1696","1","false_50",16,1,16,1,NA,1,1,5.778,NA
"1697","1","false_50",17,1,17,1,NA,0,1,7.965,NA
"1698","1","false_50",18,1,18,1,NA,0,1,7.935,NA
"1699","1","false_50",19,1,19,1,NA,0,1,4.84,NA
"1700","1","false_50",20,1,20,1,NA,1,1,2.016,NA
"1701","1","false_60",21,1,21,1,NA,0,1,8.67,NA
"1702","1","false_60",22,1,22,1,NA,0,1,9.102,NA
"1703","1","false_60",23,1,23,1,NA,1,1,10.157,NA
"1704","1","false_60",24,1,24,1,NA,0,1,9.872,NA
"1705","1","false_60",25,1,25,1,NA,0,1,9.626,NA
"1706","1","false_70",26,1,26,1,NA,0,1,4.227,NA
"1707","1","false_70",27,1,27,1,NA,0,1,1.921,NA
"1708","1","false_70",28,1,28,1,NA,0,1,7.111,NA
"1709","1","false_70",29,1,29,1,NA,0,1,2.14,NA
"1710","1","false_70",30,1,30,1,NA,0,1,3.842,NA
"1711","1","true_50",31,1,31,1,NA,0,0,4.431,NA
"1712","1","true_50",32,1,32,1,NA,0,0,10.401,NA
"1713","1","true_50",33,1,33,1,NA,1,0,2.105,NA
"1714","1","true_50",34,1,34,1,NA,0,0,6.507,NA
"1715","1","true_50",35,1,35,1,NA,0,0,6.345,NA
"1716","1","true_60",36,1,36,1,NA,0,0,7.359,NA
"1717","1","true_60",37,1,37,1,NA,1,0,9.625,NA
"1718","1","true_60",38,1,38,1,NA,1,0,1.885,NA
"1719","1","true_60",39,1,39,1,NA,1,0,2.864,NA
"1720","1","true_60",40,1,40,1,NA,0,0,4.346,NA
"1721","1","true_70",41,1,41,1,NA,1,0,6.905,NA
"1722","1","true_70",42,1,42,1,NA,1,0,4.113,NA
"1723","1","true_70",43,1,43,1,NA,1,0,3.379,NA
"1724","1","true_70",44,1,44,1,NA,1,0,2.946,NA
"1725","1","true_70",45,1,45,1,NA,1,0,9.964,NA
"1726","1","false_50",46,1,46,1,NA,1,0,3.738,NA
"1727","1","false_50",47,1,47,1,NA,1,0,5.54,NA
"1728","1","false_50",48,1,48,1,NA,1,0,6.67,NA
"1729","1","false_50",49,1,49,1,NA,1,0,5.896,NA
"1730","1","false_50",50,1,50,1,NA,0,0,5.908,NA
"1731","1","false_60",51,1,51,1,NA,1,0,4.583,NA
"1732","1","false_60",52,1,52,1,NA,0,0,4.069,NA
"1733","1","false_60",53,1,53,1,NA,0,0,4.795,NA
"1734","1","false_60",54,1,54,1,NA,0,0,6.128,NA
"1735","1","false_60",55,1,55,1,NA,0,0,3.975,NA
"1736","1","false_70",56,1,56,1,NA,0,0,6.917,NA
"1737","1","false_70",57,1,57,1,NA,0,0,4.617,NA
"1738","1","false_70",58,1,58,1,NA,0,0,2.866,NA
"1739","1","false_70",59,1,59,1,NA,0,0,4.468,NA
"1740","1","false_70",60,1,60,1,NA,1,0,9.263,NA
"1741","1","true_50",61,1,61,0,NA,1,1,7.352,NA
"1742","1","true_50",62,1,62,0,NA,1,1,4.555,NA
"1743","1","true_50",63,1,63,0,NA,0,1,4.592,NA
"1744","1","true_50",64,1,64,0,NA,0,1,5.513,NA
"1745","1","true_50",65,1,65,0,NA,1,1,5.48,NA
"1746","1","true_60",66,1,66,0,NA,1,1,5.778,NA
"1747","1","true_60",67,1,67,0,NA,1,1,5.734,NA
"1748","1","true_60",68,1,68,0,NA,1,1,5.414,NA
"1749","1","true_60",69,1,69,0,NA,1,1,6.189,NA
"1750","1","true_60",70,1,70,0,NA,1,1,5.511,NA
"1751","1","true_70",71,1,71,0,NA,0,1,3.375,NA
"1752","1","true_70",72,1,72,0,NA,1,1,5.43,NA
"1753","1","true_70",73,1,73,0,NA,1,1,6.706,NA
"1754","1","true_70",74,1,74,0,NA,0,1,5.528,NA
"1755","1","true_70",75,1,75,0,NA,1,1,3.615,NA
"1756","1","false_50",76,1,76,0,NA,0,1,3.909,NA
"1757","1","false_50",77,1,77,0,NA,0,1,4.209,NA
"1758","1","false_50",78,1,78,0,NA,0,1,7.531,NA
"1759","1","false_50",79,1,79,0,NA,0,1,8.185,NA
"1760","1","false_50",80,1,80,0,NA,0,1,5.052,NA
"1761","1","false_60",81,1,81,0,NA,0,1,2.103,NA
"1762","1","false_60",82,1,82,0,NA,0,1,6.542,NA
"1763","1","false_60",83,1,83,0,NA,1,1,4.082,NA
"1764","1","false_60",84,1,84,0,NA,1,1,11.648,NA
"1765","1","false_60",85,1,85,0,NA,1,1,4.021,NA
"1766","1","false_70",86,1,86,0,NA,0,1,3.202,NA
"1767","1","false_70",87,1,87,0,NA,1,1,9.2,NA
"1768","1","false_70",88,1,88,0,NA,0,1,3.984,NA
"1769","1","false_70",89,1,89,0,NA,1,1,7.568,NA
"1770","1","false_70",90,1,90,0,NA,0,1,5.757,NA
"1771","1","true_50",91,1,91,0,NA,1,0,6.023,NA
"1772","1","true_50",92,1,92,0,NA,0,0,3.749,NA
"1773","1","true_50",93,1,93,0,NA,0,0,6.556,NA
"1774","1","true_50",94,1,94,0,NA,0,0,6.165,NA
"1775","1","true_50",95,1,95,0,NA,0,0,7.536,NA
"1776","1","true_60",96,1,96,0,NA,1,0,5.357,NA
"1777","1","true_60",97,1,97,0,NA,1,0,6.399,NA
"1778","1","true_60",98,1,98,0,NA,0,0,4.59,NA
"1779","1","true_60",99,1,99,0,NA,1,0,4.79,NA
"1780","1","true_60",100,1,100,0,NA,0,0,6.357,NA
"1781","1","true_70",101,1,101,0,NA,1,0,5.377,NA
"1782","1","true_70",102,1,102,0,NA,0,0,55.005,NA
"1783","1","true_70",103,1,103,0,NA,1,0,9.813,NA
"1784","1","true_70",104,1,104,0,NA,1,0,2.293,NA
"1785","1","true_70",105,1,105,0,NA,1,0,4.082,NA
"1786","1","false_50",106,1,106,0,NA,0,0,6.983,NA
"1787","1","false_50",107,1,107,0,NA,0,0,3.721,NA
"1788","1","false_50",108,1,108,0,NA,0,0,11.017,NA
"1789","1","false_50",109,1,109,0,NA,0,0,4.489,NA
"1790","1","false_50",110,1,110,0,NA,1,0,6.679,NA
"1791","1","false_60",111,1,111,0,NA,0,0,6.066,NA
"1792","1","false_60",112,1,112,0,NA,0,0,4.895,NA
"1793","1","false_60",113,1,113,0,NA,0,0,2.649,NA
"1794","1","false_60",114,1,114,0,NA,0,0,7.453,NA
"1795","1","false_60",115,1,115,0,NA,0,0,5.145,NA
"1796","1","false_70",116,1,116,0,NA,0,0,5.965,NA
"1797","1","false_70",117,1,117,0,NA,0,0,6.053,NA
"1798","1","false_70",118,1,118,0,NA,0,0,4.75,NA
"1799","1","false_70",119,1,119,0,NA,1,0,4.041,NA
"1800","1","false_70",120,1,120,0,NA,0,0,5.312,NA
"1801","2","true_50",1,1,1,1,NA,1,1,4.112,NA
"1802","2","true_50",2,1,2,1,NA,1,1,3.375,NA
"1803","2","true_50",3,1,3,1,NA,1,1,1.69,NA
"1804","2","true_50",4,1,4,1,NA,1,1,3.044,NA
"1805","2","true_50",5,1,5,1,NA,1,1,3.184,NA
"1806","2","true_60",6,1,6,1,NA,1,1,1.684,NA
"1807","2","true_60",7,1,7,1,NA,1,1,3.037,NA
"1808","2","true_60",8,1,8,1,NA,1,1,2.781,NA
"1809","2","true_60",9,1,9,1,NA,1,1,2.482,NA
"1810","2","true_60",10,1,10,1,NA,1,1,5.349,NA
"1811","2","true_70",11,1,11,1,NA,1,1,2.056,NA
"1812","2","true_70",12,1,12,1,NA,1,1,3.831,NA
"1813","2","true_70",13,1,13,1,NA,1,1,4.457,NA
"1814","2","true_70",14,1,14,1,NA,1,1,3.682,NA
"1815","2","true_70",15,1,15,1,NA,1,1,3.31,NA
"1816","2","false_50",16,1,16,1,NA,1,1,2.93,NA
"1817","2","false_50",17,1,17,1,NA,1,1,4.756,NA
"1818","2","false_50",18,1,18,1,NA,1,1,3.558,NA
"1819","2","false_50",19,1,19,1,NA,1,1,3.979,NA
"1820","2","false_50",20,1,20,1,NA,0,1,4.275,NA
"1821","2","false_60",21,1,21,1,NA,0,1,3.529,NA
"1822","2","false_60",22,1,22,1,NA,0,1,7.175,NA
"1823","2","false_60",23,1,23,1,NA,1,1,2.97,NA
"1824","2","false_60",24,1,24,1,NA,0,1,4.334,NA
"1825","2","false_60",25,1,25,1,NA,1,1,2.161,NA
"1826","2","false_70",26,1,26,1,NA,1,1,8.675,NA
"1827","2","false_70",27,1,27,1,NA,1,1,1.771,NA
"1828","2","false_70",28,1,28,1,NA,0,1,3.177,NA
"1829","2","false_70",29,1,29,1,NA,1,1,1.925,NA
"1830","2","false_70",30,1,30,1,NA,1,1,5.447,NA
"1831","2","true_50",31,1,31,1,NA,1,0,2.643,NA
"1832","2","true_50",32,1,32,1,NA,0,0,9.538,NA
"1833","2","true_50",33,1,33,1,NA,1,0,2.11,NA
"1834","2","true_50",34,1,34,1,NA,1,0,3.024,NA
"1835","2","true_50",35,1,35,1,NA,1,0,5.346,NA
"1836","2","true_60",36,1,36,1,NA,1,0,4.183,NA
"1837","2","true_60",37,1,37,1,NA,1,0,3.006,NA
"1838","2","true_60",38,1,38,1,NA,1,0,3.446,NA
"1839","2","true_60",39,1,39,1,NA,0,0,4.146,NA
"1840","2","true_60",40,1,40,1,NA,1,0,4.406,NA
"1841","2","true_70",41,1,41,1,NA,1,0,3.156,NA
"1842","2","true_70",42,1,42,1,NA,1,0,3.704,NA
"1843","2","true_70",43,1,43,1,NA,1,0,3.393,NA
"1844","2","true_70",44,1,44,1,NA,0,0,5.015,NA
"1845","2","true_70",45,1,45,1,NA,1,0,3.366,NA
"1846","2","false_50",46,1,46,1,NA,0,0,2.634,NA
"1847","2","false_50",47,1,47,1,NA,0,0,2.888,NA
"1848","2","false_50",48,1,48,1,NA,1,0,2.815,NA
"1849","2","false_50",49,1,49,1,NA,1,0,2.984,NA
"1850","2","false_50",50,1,50,1,NA,1,0,2.172,NA
"1851","2","false_60",51,1,51,1,NA,0,0,5.661,NA
"1852","2","false_60",52,1,52,1,NA,1,0,4.84,NA
"1853","2","false_60",53,1,53,1,NA,1,0,3.936,NA
"1854","2","false_60",54,1,54,1,NA,0,0,3.193,NA
"1855","2","false_60",55,1,55,1,NA,0,0,2.993,NA
"1856","2","false_70",56,1,56,1,NA,1,0,3.213,NA
"1857","2","false_70",57,1,57,1,NA,0,0,3.909,NA
"1858","2","false_70",58,1,58,1,NA,1,0,8.574,NA
"1859","2","false_70",59,1,59,1,NA,0,0,6.871,NA
"1860","2","false_70",60,1,60,1,NA,1,0,4.141,NA
"1861","2","true_50",61,1,61,0,NA,1,1,2.846,NA
"1862","2","true_50",62,1,62,0,NA,1,1,2.213,NA
"1863","2","true_50",63,1,63,0,NA,1,1,3.361,NA
"1864","2","true_50",64,1,64,0,NA,0,1,7.144,NA
"1865","2","true_50",65,1,65,0,NA,1,1,3.654,NA
"1866","2","true_60",66,1,66,0,NA,1,1,1.343,NA
"1867","2","true_60",67,1,67,0,NA,1,1,3.911,NA
"1868","2","true_60",68,1,68,0,NA,1,1,5.033,NA
"1869","2","true_60",69,1,69,0,NA,1,1,3.694,NA
"1870","2","true_60",70,1,70,0,NA,1,1,6.893,NA
"1871","2","true_70",71,1,71,0,NA,1,1,1.382,NA
"1872","2","true_70",72,1,72,0,NA,1,1,2.92,NA
"1873","2","true_70",73,1,73,0,NA,1,1,1.61,NA
"1874","2","true_70",74,1,74,0,NA,1,1,2.165,NA
"1875","2","true_70",75,1,75,0,NA,1,1,4.321,NA
"1876","2","false_50",76,1,76,0,NA,1,1,2.073,NA
"1877","2","false_50",77,1,77,0,NA,0,1,3.629,NA
"1878","2","false_50",78,1,78,0,NA,1,1,12.986,NA
"1879","2","false_50",79,1,79,0,NA,0,1,4.231,NA
"1880","2","false_50",80,1,80,0,NA,1,1,15.933,NA
"1881","2","false_60",81,1,81,0,NA,1,1,2.092,NA
"1882","2","false_60",82,1,82,0,NA,1,1,3.25,NA
"1883","2","false_60",83,1,83,0,NA,0,1,3.658,NA
"1884","2","false_60",84,1,84,0,NA,1,1,2.393,NA
"1885","2","false_60",85,1,85,0,NA,1,1,1.721,NA
"1886","2","false_70",86,1,86,0,NA,1,1,8.664,NA
"1887","2","false_70",87,1,87,0,NA,1,1,3.624,NA
"1888","2","false_70",88,1,88,0,NA,0,1,3.367,NA
"1889","2","false_70",89,1,89,0,NA,1,1,1.948,NA
"1890","2","false_70",90,1,90,0,NA,1,1,2.441,NA
"1891","2","true_50",91,1,91,0,NA,0,0,2.836,NA
"1892","2","true_50",92,1,92,0,NA,1,0,30.327,NA
"1893","2","true_50",93,1,93,0,NA,1,0,7.276,NA
"1894","2","true_50",94,1,94,0,NA,0,0,3.505,NA
"1895","2","true_50",95,1,95,0,NA,0,0,7.26,NA
"1896","2","true_60",96,1,96,0,NA,1,0,2.764,NA
"1897","2","true_60",97,1,97,0,NA,1,0,3.661,NA
"1898","2","true_60",98,1,98,0,NA,0,0,3.696,NA
"1899","2","true_60",99,1,99,0,NA,1,0,5.941,NA
"1900","2","true_60",100,1,100,0,NA,1,0,5.052,NA
"1901","2","true_70",101,1,101,0,NA,0,0,5.152,NA
"1902","2","true_70",102,1,102,0,NA,1,0,3.369,NA
"1903","2","true_70",103,1,103,0,NA,1,0,3.925,NA
"1904","2","true_70",104,1,104,0,NA,1,0,4.188,NA
"1905","2","true_70",105,1,105,0,NA,1,0,2.587,NA
"1906","2","false_50",106,1,106,0,NA,1,0,5.14,NA
"1907","2","false_50",107,1,107,0,NA,0,0,5.241,NA
"1908","2","false_50",108,1,108,0,NA,1,0,4.354,NA
"1909","2","false_50",109,1,109,0,NA,1,0,3.644,NA
"1910","2","false_50",110,1,110,0,NA,0,0,3.801,NA
"1911","2","false_60",111,1,111,0,NA,1,0,5.1,NA
"1912","2","false_60",112,1,112,0,NA,0,0,4.873,NA
"1913","2","false_60",113,1,113,0,NA,0,0,3.362,NA
"1914","2","false_60",114,1,114,0,NA,1,0,2.618,NA
"1915","2","false_60",115,1,115,0,NA,0,0,2.26,NA
"1916","2","false_70",116,1,116,0,NA,0,0,3.705,NA
"1917","2","false_70",117,1,117,0,NA,0,0,8.233,NA
"1918","2","false_70",118,1,118,0,NA,1,0,4.97,NA
"1919","2","false_70",119,1,119,0,NA,0,0,4.314,NA
"1920","2","false_70",120,1,120,0,NA,0,0,9.274,NA
"1921","3","true_50",1,1,1,1,NA,0,1,1.367,NA
"1922","3","true_50",2,1,2,1,NA,1,1,1.692,NA
"1923","3","true_50",3,1,3,1,NA,1,1,2.527,NA
"1924","3","true_50",4,1,4,1,NA,1,1,1.508,NA
"1925","3","true_50",5,1,5,1,NA,1,1,0.944,NA
"1926","3","true_60",6,1,6,1,NA,1,1,1.241,NA
"1927","3","true_60",7,1,7,1,NA,0,1,1.591,NA
"1928","3","true_60",8,1,8,1,NA,1,1,2.536,NA
"1929","3","true_60",9,1,9,1,NA,1,1,0.918,NA
"1930","3","true_60",10,1,10,1,NA,1,1,2.967,NA
"1931","3","true_70",11,1,11,1,NA,1,1,2.931,NA
"1932","3","true_70",12,1,12,1,NA,0,1,0.763,NA
"1933","3","true_70",13,1,13,1,NA,0,1,1.586,NA
"1934","3","true_70",14,1,14,1,NA,1,1,1.727,NA
"1935","3","true_70",15,1,15,1,NA,0,1,0.969,NA
"1936","3","false_50",16,1,16,1,NA,1,1,2.146,NA
"1937","3","false_50",17,1,17,1,NA,0,1,1.398,NA
"1938","3","false_50",18,1,18,1,NA,1,1,1.403,NA
"1939","3","false_50",19,1,19,1,NA,1,1,2.368,NA
"1940","3","false_50",20,1,20,1,NA,1,1,1.64,NA
"1941","3","false_60",21,1,21,1,NA,0,1,0.961,NA
"1942","3","false_60",22,1,22,1,NA,1,1,0.988,NA
"1943","3","false_60",23,1,23,1,NA,1,1,1.28,NA
"1944","3","false_60",24,1,24,1,NA,1,1,2.174,NA
"1945","3","false_60",25,1,25,1,NA,1,1,2.788,NA
"1946","3","false_70",26,1,26,1,NA,1,1,0.917,NA
"1947","3","false_70",27,1,27,1,NA,0,1,1.013,NA
"1948","3","false_70",28,1,28,1,NA,1,1,1.722,NA
"1949","3","false_70",29,1,29,1,NA,0,1,1.593,NA
"1950","3","false_70",30,1,30,1,NA,1,1,3.565,NA
"1951","3","true_50",31,1,31,1,NA,0,0,1.926,NA
"1952","3","true_50",32,1,32,1,NA,0,0,0.819,NA
"1953","3","true_50",33,1,33,1,NA,0,0,1.069,NA
"1954","3","true_50",34,1,34,1,NA,0,0,0.912,NA
"1955","3","true_50",35,1,35,1,NA,0,0,1.929,NA
"1956","3","true_60",36,1,36,1,NA,0,0,1.714,NA
"1957","3","true_60",37,1,37,1,NA,0,0,1.241,NA
"1958","3","true_60",38,1,38,1,NA,0,0,1.353,NA
"1959","3","true_60",39,1,39,1,NA,0,0,1.379,NA
"1960","3","true_60",40,1,40,1,NA,0,0,1.319,NA
"1961","3","true_70",41,1,41,1,NA,0,0,4.232,NA
"1962","3","true_70",42,1,42,1,NA,0,0,2.094,NA
"1963","3","true_70",43,1,43,1,NA,0,0,1.374,NA
"1964","3","true_70",44,1,44,1,NA,0,0,1.725,NA
"1965","3","true_70",45,1,45,1,NA,0,0,1.129,NA
"1966","3","false_50",46,1,46,1,NA,0,0,0.917,NA
"1967","3","false_50",47,1,47,1,NA,0,0,4.244,NA
"1968","3","false_50",48,1,48,1,NA,0,0,0.942,NA
"1969","3","false_50",49,1,49,1,NA,0,0,1.267,NA
"1970","3","false_50",50,1,50,1,NA,0,0,1.016,NA
"1971","3","false_60",51,1,51,1,NA,0,0,0.958,NA
"1972","3","false_60",52,1,52,1,NA,0,0,1.015,NA
"1973","3","false_60",53,1,53,1,NA,0,0,2.117,NA
"1974","3","false_60",54,1,54,1,NA,0,0,1.34,NA
"1975","3","false_60",55,1,55,1,NA,0,0,1.875,NA
"1976","3","false_70",56,1,56,1,NA,0,0,1.05,NA
"1977","3","false_70",57,1,57,1,NA,0,0,1.497,NA
"1978","3","false_70",58,1,58,1,NA,0,0,1.054,NA
"1979","3","false_70",59,1,59,1,NA,0,0,1.196,NA
"1980","3","false_70",60,1,60,1,NA,1,0,4.356,NA
"1981","3","true_50",61,1,61,0,NA,0,1,1.123,NA
"1982","3","true_50",62,1,62,0,NA,1,1,1.912,NA
"1983","3","true_50",63,1,63,0,NA,1,1,3.961,NA
"1984","3","true_50",64,1,64,0,NA,1,1,0.763,NA
"1985","3","true_50",65,1,65,0,NA,1,1,1.518,NA
"1986","3","true_60",66,1,66,0,NA,1,1,1.186,NA
"1987","3","true_60",67,1,67,0,NA,1,1,1.04,NA
"1988","3","true_60",68,1,68,0,NA,1,1,1.18,NA
"1989","3","true_60",69,1,69,0,NA,1,1,1.733,NA
"1990","3","true_60",70,1,70,0,NA,1,1,1.567,NA
"1991","3","true_70",71,1,71,0,NA,0,1,1.982,NA
"1992","3","true_70",72,1,72,0,NA,1,1,1.726,NA
"1993","3","true_70",73,1,73,0,NA,1,1,1.318,NA
"1994","3","true_70",74,1,74,0,NA,0,1,1.728,NA
"1995","3","true_70",75,1,75,0,NA,1,1,1.203,NA
"1996","3","false_50",76,1,76,0,NA,1,1,1.672,NA
"1997","3","false_50",77,1,77,0,NA,1,1,1.982,NA
"1998","3","false_50",78,1,78,0,NA,0,1,1.19,NA
"1999","3","false_50",79,1,79,0,NA,1,1,1.26,NA
"2000","3","false_50",80,1,80,0,NA,1,1,0.766,NA
"2001","3","false_60",81,1,81,0,NA,1,1,1.155,NA
"2002","3","false_60",82,1,82,0,NA,1,1,1.08,NA
"2003","3","false_60",83,1,83,0,NA,1,1,1.509,NA
"2004","3","false_60",84,1,84,0,NA,1,1,2.09,NA
"2005","3","false_60",85,1,85,0,NA,1,1,0.797,NA
"2006","3","false_70",86,1,86,0,NA,1,1,1.02,NA
"2007","3","false_70",87,1,87,0,NA,1,1,1.26,NA
"2008","3","false_70",88,1,88,0,NA,1,1,2.525,NA
"2009","3","false_70",89,1,89,0,NA,0,1,1.19,NA
"2010","3","false_70",90,1,90,0,NA,1,1,0.932,NA
"2011","3","true_50",91,1,91,0,NA,1,0,4.332,NA
"2012","3","true_50",92,1,92,0,NA,0,0,1.16,NA
"2013","3","true_50",93,1,93,0,NA,0,0,1.114,NA
"2014","3","true_50",94,1,94,0,NA,0,0,1.46,NA
"2015","3","true_50",95,1,95,0,NA,0,0,1.195,NA
"2016","3","true_60",96,1,96,0,NA,0,0,1.002,NA
"2017","3","true_60",97,1,97,0,NA,0,0,1.887,NA
"2018","3","true_60",98,1,98,0,NA,0,0,1.29,NA
"2019","3","true_60",99,1,99,0,NA,0,0,1.153,NA
"2020","3","true_60",100,1,100,0,NA,0,0,0.942,NA
"2021","3","true_70",101,1,101,0,NA,0,0,1.125,NA
"2022","3","true_70",102,1,102,0,NA,0,0,0.689,NA
"2023","3","true_70",103,1,103,0,NA,0,0,1.146,NA
"2024","3","true_70",104,1,104,0,NA,0,0,1.25,NA
"2025","3","true_70",105,1,105,0,NA,0,0,1.639,NA
"2026","3","false_50",106,1,106,0,NA,0,0,1.196,NA
"2027","3","false_50",107,1,107,0,NA,0,0,1.284,NA
"2028","3","false_50",108,1,108,0,NA,0,0,0.932,NA
"2029","3","false_50",109,1,109,0,NA,0,0,1.479,NA
"2030","3","false_50",110,1,110,0,NA,0,0,1.22,NA
"2031","3","false_60",111,1,111,0,NA,0,0,1.271,NA
"2032","3","false_60",112,1,112,0,NA,0,0,1.777,NA
"2033","3","false_60",113,1,113,0,NA,0,0,3.161,NA
"2034","3","false_60",114,1,114,0,NA,0,0,0.872,NA
"2035","3","false_60",115,1,115,0,NA,0,0,1.8,NA
"2036","3","false_70",116,1,116,0,NA,0,0,1.022,NA
"2037","3","false_70",117,1,117,0,NA,0,0,1.314,NA
"2038","3","false_70",118,1,118,0,NA,0,0,1.021,NA
"2039","3","false_70",119,1,119,0,NA,0,0,1.409,NA
"2040","3","false_70",120,1,120,0,NA,0,0,1.151,NA
"2041","6","true_50",1,1,1,1,NA,1,1,3.809,NA
"2042","6","true_50",2,1,2,1,NA,1,1,5.488,NA
"2043","6","true_50",3,1,3,1,NA,1,1,20.403,NA
"2044","6","true_50",4,1,4,1,NA,0,1,4.214,NA
"2045","6","true_50",5,1,5,1,NA,0,1,8.051,NA
"2046","6","true_60",6,1,6,1,NA,1,1,9.466,NA
"2047","6","true_60",7,1,7,1,NA,0,1,5.178,NA
"2048","6","true_60",8,1,8,1,NA,0,1,6.728,NA
"2049","6","true_60",9,1,9,1,NA,1,1,4.027,NA
"2050","6","true_60",10,1,10,1,NA,1,1,5.537,NA
"2051","6","true_70",11,1,11,1,NA,1,1,5.222,NA
"2052","6","true_70",12,1,12,1,NA,0,1,5.046,NA
"2053","6","true_70",13,1,13,1,NA,1,1,4.937,NA
"2054","6","true_70",14,1,14,1,NA,1,1,7.713,NA
"2055","6","true_70",15,1,15,1,NA,1,1,4.159,NA
"2056","6","false_50",16,1,16,1,NA,0,1,3.788,NA
"2057","6","false_50",17,1,17,1,NA,1,1,15.431,NA
"2058","6","false_50",18,1,18,1,NA,0,1,4.54,NA
"2059","6","false_50",19,1,19,1,NA,0,1,5.977,NA
"2060","6","false_50",20,1,20,1,NA,1,1,6.78,NA
"2061","6","false_60",21,1,21,1,NA,0,1,4.065,NA
"2062","6","false_60",22,1,22,1,NA,0,1,9.373,NA
"2063","6","false_60",23,1,23,1,NA,0,1,6.62,NA
"2064","6","false_60",24,1,24,1,NA,0,1,21.326,NA
"2065","6","false_60",25,1,25,1,NA,0,1,7.455,NA
"2066","6","false_70",26,1,26,1,NA,0,1,5.272,NA
"2067","6","false_70",27,1,27,1,NA,0,1,4.223,NA
"2068","6","false_70",28,1,28,1,NA,0,1,8.742,NA
"2069","6","false_70",29,1,29,1,NA,0,1,6.192,NA
"2070","6","false_70",30,1,30,1,NA,0,1,1.73,NA
"2071","6","true_50",31,1,31,1,NA,0,0,8.538,NA
"2072","6","true_50",32,1,32,1,NA,1,0,7.075,NA
"2073","6","true_50",33,1,33,1,NA,0,0,6.44,NA
"2074","6","true_50",34,1,34,1,NA,0,0,4.934,NA
"2075","6","true_50",35,1,35,1,NA,0,0,9.688,NA
"2076","6","true_60",36,1,36,1,NA,1,0,6.433,NA
"2077","6","true_60",37,1,37,1,NA,1,0,3.563,NA
"2078","6","true_60",38,1,38,1,NA,0,0,8.401,NA
"2079","6","true_60",39,1,39,1,NA,1,0,4.69,NA
"2080","6","true_60",40,1,40,1,NA,0,0,7.461,NA
"2081","6","true_70",41,1,41,1,NA,1,0,5.968,NA
"2082","6","true_70",42,1,42,1,NA,1,0,7.009,NA
"2083","6","true_70",43,1,43,1,NA,1,0,4.407,NA
"2084","6","true_70",44,1,44,1,NA,1,0,4.724,NA
"2085","6","true_70",45,1,45,1,NA,1,0,8.782,NA
"2086","6","false_50",46,1,46,1,NA,1,0,4.409,NA
"2087","6","false_50",47,1,47,1,NA,0,0,8.719,NA
"2088","6","false_50",48,1,48,1,NA,0,0,4.867,NA
"2089","6","false_50",49,1,49,1,NA,0,0,6.211,NA
"2090","6","false_50",50,1,50,1,NA,0,0,6.912,NA
"2091","6","false_60",51,1,51,1,NA,1,0,6.153,NA
"2092","6","false_60",52,1,52,1,NA,0,0,7.873,NA
"2093","6","false_60",53,1,53,1,NA,0,0,5.001,NA
