"","subject","within_identifier","statement_identifier","presentation_identifier","statement_number","statement_accuracy","statement_text","response","repeated","rt","trial"
"1","1","false_70",1,1,1,1,NA,37,1,7.259,NA
"2","1","false_70",2,1,2,1,NA,100,1,8.227,NA
"3","1","false_70",3,1,3,1,NA,60,1,3.378,NA
"4","1","false_70",4,1,4,1,NA,100,1,4.899,NA
"5","1","false_70",5,1,5,1,NA,60,1,5.605,NA
"6","1","false_80",6,1,6,1,NA,100,1,6.54,NA
"7","1","false_80",7,1,7,1,NA,0,1,7.034,NA
"8","1","false_80",8,1,8,1,NA,55,1,7.958,NA
"9","1","false_80",9,1,9,1,NA,43,1,9.899,NA
"10","1","false_80",10,1,10,1,NA,45,1,5.212,NA
"11","1","false_90",11,1,11,1,NA,29,1,6.193,NA
"12","1","false_90",12,1,12,1,NA,35,1,5.812,NA
"13","1","false_90",13,1,13,1,NA,58,1,11.312,NA
"14","1","false_90",14,1,14,1,NA,40,1,9.576,NA
"15","1","false_90",15,1,15,1,NA,39,1,6.846,NA
"16","1","true_70",16,1,16,1,NA,80,1,9.425,NA
"17","1","true_70",17,1,17,1,NA,100,1,5.056,NA
"18","1","true_70",18,1,18,1,NA,45,1,7.595,NA
"19","1","true_70",19,1,19,1,NA,55,1,3.727,NA
"20","1","true_70",20,1,20,1,NA,60,1,7.725,NA
"21","1","true_80",21,1,21,1,NA,65,1,5.83,NA
"22","1","true_80",22,1,22,1,NA,75,1,6.732,NA
"23","1","true_80",23,1,23,1,NA,100,1,5.69,NA
"24","1","true_80",24,1,24,1,NA,55,1,2.99,NA
"25","1","true_80",25,1,25,1,NA,60,1,9.068,NA
"26","1","true_90",26,1,26,1,NA,60,1,9.327,NA
"27","1","true_90",27,1,27,1,NA,70,1,8.369,NA
"28","1","true_90",28,1,28,1,NA,60,1,6.133,NA
"29","1","true_90",29,1,29,1,NA,91,1,8.691,NA
"30","1","true_90",30,1,30,1,NA,56,1,7.002,NA
"31","1","false_70",31,1,31,1,NA,40,0,5.001,NA
"32","1","false_70",32,1,32,1,NA,55,0,6.381,NA
"33","1","false_70",33,1,33,1,NA,65,0,5.23,NA
"34","1","false_70",34,1,34,1,NA,55,0,6.869,NA
"35","1","false_70",35,1,35,1,NA,5,0,8.933,NA
"36","1","false_80",36,1,36,1,NA,32,0,7.18,NA
"37","1","false_80",37,1,37,1,NA,42,0,7.014,NA
"38","1","false_80",38,1,38,1,NA,45,0,4.758,NA
"39","1","false_80",39,1,39,1,NA,0,0,5.299,NA
"40","1","false_80",40,1,40,1,NA,45,0,7.28,NA
"41","1","false_90",41,1,41,1,NA,30,0,15.125,NA
"42","1","false_90",42,1,42,1,NA,55,0,6.7,NA
"43","1","false_90",43,1,43,1,NA,25,0,6.219,NA
"44","1","false_90",44,1,44,1,NA,100,0,4.629,NA
"45","1","false_90",45,1,45,1,NA,44,0,6.334,NA
"46","1","true_70",46,1,46,1,NA,0,0,12.918,NA
"47","1","true_70",47,1,47,1,NA,59,0,8.37,NA
"48","1","true_70",48,1,48,1,NA,60,0,6.481,NA
"49","1","true_70",49,1,49,1,NA,60,0,7.015,NA
"50","1","true_70",50,1,50,1,NA,60,0,6.329,NA
"51","1","true_80",51,1,51,1,NA,65,0,5.913,NA
"52","1","true_80",52,1,52,1,NA,100,0,5.928,NA
"53","1","true_80",53,1,53,1,NA,90,0,5.994,NA
"54","1","true_80",54,1,54,1,NA,85,0,10.405,NA
"55","1","true_80",55,1,55,1,NA,81,0,5.167,NA
"56","1","true_90",56,1,56,1,NA,65,0,6.316,NA
"57","1","true_90",57,1,57,1,NA,55,0,6.505,NA
"58","1","true_90",58,1,58,1,NA,75,0,7.823,NA
"59","1","true_90",59,1,59,1,NA,65,0,6.907,NA
"60","1","true_90",60,1,60,1,NA,25,0,5.685,NA
"61","1","false_70",61,1,61,0,NA,69,1,3.889,NA
"62","1","false_70",62,1,62,0,NA,35,1,4.911,NA
"63","1","false_70",63,1,63,0,NA,40,1,6.747,NA
"64","1","false_70",64,1,64,0,NA,13,1,8.294,NA
"65","1","false_70",65,1,65,0,NA,60,1,6.657,NA
"66","1","false_80",66,1,66,0,NA,41,1,7.052,NA
"67","1","false_80",67,1,67,0,NA,45,1,6.855,NA
"68","1","false_80",68,1,68,0,NA,100,1,6.419,NA
"69","1","false_80",69,1,69,0,NA,80,1,7.096,NA
"70","1","false_80",70,1,70,0,NA,55,1,3.756,NA
"71","1","false_90",71,1,71,0,NA,24,1,11.512,NA
"72","1","false_90",72,1,72,0,NA,91,1,6.38,NA
"73","1","false_90",73,1,73,0,NA,100,1,5.337,NA
"74","1","false_90",74,1,74,0,NA,100,1,8.659,NA
"75","1","false_90",75,1,75,0,NA,53,1,6.161,NA
"76","1","true_70",76,1,76,0,NA,65,1,6.953,NA
"77","1","true_70",77,1,77,0,NA,60,1,6.603,NA
"78","1","true_70",78,1,78,0,NA,82,1,5.914,NA
"79","1","true_70",79,1,79,0,NA,74,1,16.931,NA
"80","1","true_70",80,1,80,0,NA,65,1,5.792,NA
"81","1","true_80",81,1,81,0,NA,100,1,4.314,NA
"82","1","true_80",82,1,82,0,NA,60,1,5.365,NA
"83","1","true_80",83,1,83,0,NA,90,1,5.579,NA
"84","1","true_80",84,1,84,0,NA,90,1,4.606,NA
"85","1","true_80",85,1,85,0,NA,40,1,7.353,NA
"86","1","true_90",86,1,86,0,NA,45,1,7.805,NA
"87","1","true_90",87,1,87,0,NA,100,1,8.589,NA
"88","1","true_90",88,1,88,0,NA,60,1,10.119,NA
"89","1","true_90",89,1,89,0,NA,55,1,5.369,NA
"90","1","true_90",90,1,90,0,NA,75,1,7.97,NA
"91","1","false_70",91,1,91,0,NA,45,0,6.939,NA
"92","1","false_70",92,1,92,0,NA,20,0,5.189,NA
"93","1","false_70",93,1,93,0,NA,34,0,9.801,NA
"94","1","false_70",94,1,94,0,NA,45,0,4.253,NA
"95","1","false_70",95,1,95,0,NA,30,0,6.183,NA
"96","1","false_80",96,1,96,0,NA,18,0,12.532,NA
"97","1","false_80",97,1,97,0,NA,100,0,5.956,NA
"98","1","false_80",98,1,98,0,NA,45,0,9.968,NA
"99","1","false_80",99,1,99,0,NA,41,0,8.691,NA
"100","1","false_80",100,1,100,0,NA,52,0,8.207,NA
"101","1","false_90",101,1,101,0,NA,35,0,6.392,NA
"102","1","false_90",102,1,102,0,NA,0,0,8.8,NA
"103","1","false_90",103,1,103,0,NA,0,0,15.193,NA
"104","1","false_90",104,1,104,0,NA,12,0,9.633,NA
"105","1","false_90",105,1,105,0,NA,45,0,5.916,NA
"106","1","true_70",106,1,106,0,NA,45,0,4.617,NA
"107","1","true_70",107,1,107,0,NA,68,0,7.227,NA
"108","1","true_70",108,1,108,0,NA,100,0,6.063,NA
"109","1","true_70",109,1,109,0,NA,58,0,5.119,NA
"110","1","true_70",110,1,110,0,NA,15,0,6.147,NA
"111","1","true_80",111,1,111,0,NA,59,0,4.65,NA
"112","1","true_80",112,1,112,0,NA,60,0,4.797,NA
"113","1","true_80",113,1,113,0,NA,82,0,5.465,NA
"114","1","true_80",114,1,114,0,NA,73,0,9.241,NA
"115","1","true_80",115,1,115,0,NA,60,0,5.034,NA
"116","1","true_90",116,1,116,0,NA,57,0,5.707,NA
"117","1","true_90",117,1,117,0,NA,64,0,8.608,NA
"118","1","true_90",118,1,118,0,NA,80,0,8.56,NA
"119","1","true_90",119,1,119,0,NA,60,0,4.826,NA
"120","1","true_90",120,1,120,0,NA,60,0,9.995,NA
"121","12","false_70",1,1,1,1,NA,30,1,1.252,NA
"122","12","false_70",2,1,2,1,NA,28,1,1.543,NA
"123","12","false_70",3,1,3,1,NA,30,1,1.711,NA
"124","12","false_70",4,1,4,1,NA,21,1,2.611,NA
"125","12","false_70",5,1,5,1,NA,22,1,1.472,NA
"126","12","false_80",6,1,6,1,NA,90,1,5.057,NA
"127","12","false_80",7,1,7,1,NA,18,1,1.768,NA
"128","12","false_80",8,1,8,1,NA,10,1,3.453,NA
"129","12","false_80",9,1,9,1,NA,7,1,2.779,NA
"130","12","false_80",10,1,10,1,NA,21,1,1.494,NA
"131","12","false_90",11,1,11,1,NA,2,1,6.497,NA
"132","12","false_90",12,1,12,1,NA,8,1,1.857,NA
"133","12","false_90",13,1,13,1,NA,1,1,2.255,NA
"134","12","false_90",14,1,14,1,NA,17,1,2.276,NA
"135","12","false_90",15,1,15,1,NA,97,1,4.636,NA
"136","12","true_70",16,1,16,1,NA,73,1,1.549,NA
"137","12","true_70",17,1,17,1,NA,77,1,1.575,NA
"138","12","true_70",18,1,18,1,NA,83,1,2.29,NA
"139","12","true_70",19,1,19,1,NA,68,1,1.816,NA
"140","12","true_70",20,1,20,1,NA,68,1,2.096,NA
"141","12","true_80",21,1,21,1,NA,66,1,1.351,NA
"142","12","true_80",22,1,22,1,NA,100,1,4.565,NA
"143","12","true_80",23,1,23,1,NA,78,1,1.562,NA
"144","12","true_80",24,1,24,1,NA,75,1,1.848,NA
"145","12","true_80",25,1,25,1,NA,81,1,1.855,NA
"146","12","true_90",26,1,26,1,NA,95,1,1.669,NA
"147","12","true_90",27,1,27,1,NA,96,1,1.792,NA
"148","12","true_90",28,1,28,1,NA,100,1,2.606,NA
"149","12","true_90",29,1,29,1,NA,94,1,4.205,NA
"150","12","true_90",30,1,30,1,NA,99,1,2.94,NA
"151","12","false_70",31,1,31,1,NA,34,0,1.682,NA
"152","12","false_70",32,1,32,1,NA,38,0,1.565,NA
"153","12","false_70",33,1,33,1,NA,21,0,1.904,NA
"154","12","false_70",34,1,34,1,NA,100,0,3.967,NA
"155","12","false_70",35,1,35,1,NA,76,0,2.486,NA
"156","12","false_80",36,1,36,1,NA,92,0,2.451,NA
"157","12","false_80",37,1,37,1,NA,11,0,2.09,NA
"158","12","false_80",38,1,38,1,NA,19,0,2.377,NA
"159","12","false_80",39,1,39,1,NA,10,0,2.269,NA
"160","12","false_80",40,1,40,1,NA,7,0,2.828,NA
"161","12","false_90",41,1,41,1,NA,11,0,2.121,NA
"162","12","false_90",42,1,42,1,NA,8,0,1.841,NA
"163","12","false_90",43,1,43,1,NA,97,0,1.766,NA
"164","12","false_90",44,1,44,1,NA,14,0,1.946,NA
"165","12","false_90",45,1,45,1,NA,0,0,1.996,NA
"166","12","true_70",46,1,46,1,NA,71,0,3.069,NA
"167","12","true_70",47,1,47,1,NA,66,0,1.621,NA
"168","12","true_70",48,1,48,1,NA,63,0,1.982,NA
"169","12","true_70",49,1,49,1,NA,75,0,1.843,NA
"170","12","true_70",50,1,50,1,NA,84,0,1.729,NA
"171","12","true_80",51,1,51,1,NA,83,0,2.888,NA
"172","12","true_80",52,1,52,1,NA,96,0,2.697,NA
"173","12","true_80",53,1,53,1,NA,81,0,1.591,NA
"174","12","true_80",54,1,54,1,NA,64,0,1.249,NA
"175","12","true_80",55,1,55,1,NA,74,0,1.724,NA
"176","12","true_90",56,1,56,1,NA,92,0,2.024,NA
"177","12","true_90",57,1,57,1,NA,94,0,2.27,NA
"178","12","true_90",58,1,58,1,NA,100,0,1.909,NA
"179","12","true_90",59,1,59,1,NA,86,0,1.674,NA
"180","12","true_90",60,1,60,1,NA,91,0,2.378,NA
"181","12","false_70",61,1,61,0,NA,17,1,2.218,NA
"182","12","false_70",62,1,62,0,NA,26,1,1.505,NA
"183","12","false_70",63,1,63,0,NA,25,1,2.075,NA
"184","12","false_70",64,1,64,0,NA,18,1,1.664,NA
"185","12","false_70",65,1,65,0,NA,24,1,1.393,NA
"186","12","false_80",66,1,66,0,NA,22,1,1.84,NA
"187","12","false_80",67,1,67,0,NA,25,1,3.771,NA
"188","12","false_80",68,1,68,0,NA,4,1,2.026,NA
"189","12","false_80",69,1,69,0,NA,0,1,3.077,NA
"190","12","false_80",70,1,70,0,NA,20,1,1.49,NA
"191","12","false_90",71,1,71,0,NA,17,1,1.753,NA
"192","12","false_90",72,1,72,0,NA,5,1,1.799,NA
"193","12","false_90",73,1,73,0,NA,4,1,1.771,NA
"194","12","false_90",74,1,74,0,NA,2,1,1.751,NA
"195","12","false_90",75,1,75,0,NA,13,1,1.909,NA
"196","12","true_70",76,1,76,0,NA,73,1,2.375,NA
"197","12","true_70",77,1,77,0,NA,81,1,1.636,NA
"198","12","true_70",78,1,78,0,NA,64,1,1.485,NA
"199","12","true_70",79,1,79,0,NA,90,1,2.036,NA
"200","12","true_70",80,1,80,0,NA,68,1,2.033,NA
"201","12","true_80",81,1,81,0,NA,95,1,2.372,NA
"202","12","true_80",82,1,82,0,NA,75,1,1.345,NA
"203","12","true_80",83,1,83,0,NA,72,1,1.521,NA
"204","12","true_80",84,1,84,0,NA,73,1,1.789,NA
"205","12","true_80",85,1,85,0,NA,90,1,2.264,NA
"206","12","true_90",86,1,86,0,NA,99,1,2.982,NA
"207","12","true_90",87,1,87,0,NA,98,1,1.672,NA
"208","12","true_90",88,1,88,0,NA,96,1,2.136,NA
"209","12","true_90",89,1,89,0,NA,87,1,1.617,NA
"210","12","true_90",90,1,90,0,NA,89,1,1.343,NA
"211","12","false_70",91,1,91,0,NA,35,0,1.727,NA
"212","12","false_70",92,1,92,0,NA,30,0,1.896,NA
"213","12","false_70",93,1,93,0,NA,30,0,1.332,NA
"214","12","false_70",94,1,94,0,NA,32,0,1.42,NA
"215","12","false_70",95,1,95,0,NA,22,0,1.756,NA
"216","12","false_80",96,1,96,0,NA,26,0,1.52,NA
"217","12","false_80",97,1,97,0,NA,16,0,1.566,NA
"218","12","false_80",98,1,98,0,NA,24,0,1.606,NA
"219","12","false_80",99,1,99,0,NA,27,0,1.815,NA
"220","12","false_80",100,1,100,0,NA,24,0,1.843,NA
"221","12","false_90",101,1,101,0,NA,2,0,2.23,NA
"222","12","false_90",102,1,102,0,NA,14,0,1.858,NA
"223","12","false_90",103,1,103,0,NA,87,0,2.312,NA
"224","12","false_90",104,1,104,0,NA,14,0,1.775,NA
"225","12","false_90",105,1,105,0,NA,0,0,3.483,NA
"226","12","true_70",106,1,106,0,NA,72,0,1.561,NA
"227","12","true_70",107,1,107,0,NA,67,0,1.766,NA
"228","12","true_70",108,1,108,0,NA,78,0,1.48,NA
"229","12","true_70",109,1,109,0,NA,71,0,1.707,NA
"230","12","true_70",110,1,110,0,NA,74,0,1.395,NA
"231","12","true_80",111,1,111,0,NA,93,0,3.041,NA
"232","12","true_80",112,1,112,0,NA,74,0,1.641,NA
"233","12","true_80",113,1,113,0,NA,81,0,1.328,NA
"234","12","true_80",114,1,114,0,NA,89,0,2.868,NA
"235","12","true_80",115,1,115,0,NA,70,0,1.648,NA
"236","12","true_90",116,1,116,0,NA,91,0,1.844,NA
"237","12","true_90",117,1,117,0,NA,93,0,2.018,NA
"238","12","true_90",118,1,118,0,NA,98,0,1.541,NA
"239","12","true_90",119,1,119,0,NA,92,0,3.33,NA
"240","12","true_90",120,1,120,0,NA,52,0,4.424,NA
"241","19","false_70",1,1,1,1,NA,23,1,2.796,NA
"242","19","false_70",2,1,2,1,NA,54,1,4.409,NA
"243","19","false_70",3,1,3,1,NA,0,1,3.616,NA
"244","19","false_70",4,1,4,1,NA,57,1,5.077,NA
"245","19","false_70",5,1,5,1,NA,0,1,3.103,NA
"246","19","false_80",6,1,6,1,NA,22,1,3.048,NA
"247","19","false_80",7,1,7,1,NA,32,1,9.372,NA
"248","19","false_80",8,1,8,1,NA,0,1,7.556,NA
"249","19","false_80",9,1,9,1,NA,60,1,4.406,NA
"250","19","false_80",10,1,10,1,NA,97,1,5.308,NA
"251","19","false_90",11,1,11,1,NA,55,1,3.567,NA
"252","19","false_90",12,1,12,1,NA,30,1,3.585,NA
"253","19","false_90",13,1,13,1,NA,36,1,4.07,NA
"254","19","false_90",14,1,14,1,NA,88,1,3.112,NA
"255","19","false_90",15,1,15,1,NA,76,1,2.551,NA
"256","19","true_70",16,1,16,1,NA,63,1,2.401,NA
"257","19","true_70",17,1,17,1,NA,89,1,8.397,NA
"258","19","true_70",18,1,18,1,NA,96,1,3.664,NA
"259","19","true_70",19,1,19,1,NA,56,1,3.836,NA
"260","19","true_70",20,1,20,1,NA,70,1,3.567,NA
"261","19","true_80",21,1,21,1,NA,100,1,2.994,NA
"262","19","true_80",22,1,22,1,NA,79,1,4.855,NA
"263","19","true_80",23,1,23,1,NA,57,1,6.498,NA
"264","19","true_80",24,1,24,1,NA,77,1,6.278,NA
"265","19","true_80",25,1,25,1,NA,55,1,4.754,NA
"266","19","true_90",26,1,26,1,NA,69,1,5.325,NA
"267","19","true_90",27,1,27,1,NA,67,1,9.819,NA
"268","19","true_90",28,1,28,1,NA,60,1,3.997,NA
"269","19","true_90",29,1,29,1,NA,65,1,7.97,NA
"270","19","true_90",30,1,30,1,NA,76,1,4.499,NA
"271","19","false_70",31,1,31,1,NA,15,0,11.156,NA
"272","19","false_70",32,1,32,1,NA,65,0,6.688,NA
"273","19","false_70",33,1,33,1,NA,34,0,6.778,NA
"274","19","false_70",34,1,34,1,NA,0,0,3.587,NA
"275","19","false_70",35,1,35,1,NA,36,0,8.326,NA
"276","19","false_80",36,1,36,1,NA,36,0,9.017,NA
"277","19","false_80",37,1,37,1,NA,31,0,19.091,NA
"278","19","false_80",38,1,38,1,NA,57,0,3.753,NA
"279","19","false_80",39,1,39,1,NA,74,0,8.377,NA
"280","19","false_80",40,1,40,1,NA,0,0,4.168,NA
"281","19","false_90",41,1,41,1,NA,30,0,7.493,NA
"282","19","false_90",42,1,42,1,NA,45,0,5.366,NA
"283","19","false_90",43,1,43,1,NA,7,0,11.622,NA
"284","19","false_90",44,1,44,1,NA,0,0,7.958,NA
"285","19","false_90",45,1,45,1,NA,100,0,6.673,NA
"286","19","true_70",46,1,46,1,NA,68,0,3.587,NA
"287","19","true_70",47,1,47,1,NA,69,0,2.564,NA
"288","19","true_70",48,1,48,1,NA,76,0,5.143,NA
"289","19","true_70",49,1,49,1,NA,79,0,8.934,NA
"290","19","true_70",50,1,50,1,NA,100,0,4.486,NA
"291","19","true_80",51,1,51,1,NA,9,0,3.07,NA
"292","19","true_80",52,1,52,1,NA,35,0,4.579,NA
"293","19","true_80",53,1,53,1,NA,70,0,4.761,NA
"294","19","true_80",54,1,54,1,NA,85,0,4.028,NA
"295","19","true_80",55,1,55,1,NA,100,0,6.341,NA
"296","19","true_90",56,1,56,1,NA,84,0,3.676,NA
"297","19","true_90",57,1,57,1,NA,32,0,5.555,NA
"298","19","true_90",58,1,58,1,NA,100,0,4.765,NA
"299","19","true_90",59,1,59,1,NA,30,0,5.639,NA
"300","19","true_90",60,1,60,1,NA,70,0,6.359,NA
"301","19","false_70",61,1,61,0,NA,34,1,3.68,NA
"302","19","false_70",62,1,62,0,NA,86,1,3.954,NA
"303","19","false_70",63,1,63,0,NA,31,1,7.249,NA
"304","19","false_70",64,1,64,0,NA,61,1,6.866,NA
"305","19","false_70",65,1,65,0,NA,9,1,3.84,NA
"306","19","false_80",66,1,66,0,NA,0,1,5.217,NA
"307","19","false_80",67,1,67,0,NA,23,1,10.254,NA
"308","19","false_80",68,1,68,0,NA,59,1,7.04,NA
"309","19","false_80",69,1,69,0,NA,9,1,4.942,NA
"310","19","false_80",70,1,70,0,NA,72,1,2.417,NA
"311","19","false_90",71,1,71,0,NA,24,1,6.936,NA
"312","19","false_90",72,1,72,0,NA,100,1,8.365,NA
"313","19","false_90",73,1,73,0,NA,9,1,3.812,NA
"314","19","false_90",74,1,74,0,NA,65,1,7.889,NA
"315","19","false_90",75,1,75,0,NA,41,1,6.279,NA
"316","19","true_70",76,1,76,0,NA,79,1,6.46,NA
"317","19","true_70",77,1,77,0,NA,63,1,4.486,NA
"318","19","true_70",78,1,78,0,NA,57,1,7.576,NA
"319","19","true_70",79,1,79,0,NA,70,1,7.229,NA
"320","19","true_70",80,1,80,0,NA,63,1,4.316,NA
"321","19","true_80",81,1,81,0,NA,55,1,3.861,NA
"322","19","true_80",82,1,82,0,NA,60,1,5.253,NA
"323","19","true_80",83,1,83,0,NA,67,1,2.71,NA
"324","19","true_80",84,1,84,0,NA,62,1,3.274,NA
"325","19","true_80",85,1,85,0,NA,70,1,3.367,NA
"326","19","true_90",86,1,86,0,NA,59,1,3.11,NA
"327","19","true_90",87,1,87,0,NA,74,1,4.455,NA
"328","19","true_90",88,1,88,0,NA,28,1,6.392,NA
"329","19","true_90",89,1,89,0,NA,0,1,4.949,NA
"330","19","true_90",90,1,90,0,NA,64,1,4.816,NA
"331","19","false_70",91,1,91,0,NA,93,0,4.805,NA
"332","19","false_70",92,1,92,0,NA,40,0,14.142,NA
"333","19","false_70",93,1,93,0,NA,0,0,6.315,NA
"334","19","false_70",94,1,94,0,NA,0,0,16.025,NA
"335","19","false_70",95,1,95,0,NA,26,0,4.53,NA
"336","19","false_80",96,1,96,0,NA,12,0,8.062,NA
"337","19","false_80",97,1,97,0,NA,0,0,6.603,NA
"338","19","false_80",98,1,98,0,NA,13,0,8.062,NA
"339","19","false_80",99,1,99,0,NA,28,0,6.104,NA
"340","19","false_80",100,1,100,0,NA,0,0,3.535,NA
"341","19","false_90",101,1,101,0,NA,67,0,6.84,NA
"342","19","false_90",102,1,102,0,NA,67,0,6.632,NA
"343","19","false_90",103,1,103,0,NA,1,0,4.274,NA
"344","19","false_90",104,1,104,0,NA,0,0,6.736,NA
"345","19","false_90",105,1,105,0,NA,9,0,10.099,NA
"346","19","true_70",106,1,106,0,NA,57,0,4.868,NA
"347","19","true_70",107,1,107,0,NA,73,0,4.384,NA
"348","19","true_70",108,1,108,0,NA,100,0,4.52,NA
"349","19","true_70",109,1,109,0,NA,76,0,5.338,NA
"350","19","true_70",110,1,110,0,NA,71,0,4.905,NA
"351","19","true_80",111,1,111,0,NA,74,0,2.733,NA
"352","19","true_80",112,1,112,0,NA,70,0,3.258,NA
"353","19","true_80",113,1,113,0,NA,85,0,5.675,NA
"354","19","true_80",114,1,114,0,NA,42,0,5.31,NA
"355","19","true_80",115,1,115,0,NA,38,0,5.717,NA
"356","19","true_90",116,1,116,0,NA,0,0,7.751,NA
"357","19","true_90",117,1,117,0,NA,72,0,9.164,NA
"358","19","true_90",118,1,118,0,NA,100,0,4.135,NA
"359","19","true_90",119,1,119,0,NA,0,0,6.703,NA
"360","19","true_90",120,1,120,0,NA,66,0,4.086,NA
"361","21","false_70",1,1,1,1,NA,13,1,2.571,NA
"362","21","false_70",2,1,2,1,NA,36,1,6.261,NA
"363","21","false_70",3,1,3,1,NA,71,1,5.175,NA
"364","21","false_70",4,1,4,1,NA,16,1,5.127,NA
"365","21","false_70",5,1,5,1,NA,26,1,4.643,NA
"366","21","false_80",6,1,6,1,NA,33,1,3.628,NA
"367","21","false_80",7,1,7,1,NA,3,1,4.567,NA
"368","21","false_80",8,1,8,1,NA,9,1,18.053,NA
"369","21","false_80",9,1,9,1,NA,8,1,4.265,NA
"370","21","false_80",10,1,10,1,NA,9,1,1.777,NA
"371","21","false_90",11,1,11,1,NA,100,1,6.203,NA
"372","21","false_90",12,1,12,1,NA,7,1,7.226,NA
"373","21","false_90",13,1,13,1,NA,21,1,7.258,NA
"374","21","false_90",14,1,14,1,NA,76,1,10.398,NA
"375","21","false_90",15,1,15,1,NA,2,1,3.499,NA
"376","21","true_70",16,1,16,1,NA,66,1,1.976,NA
"377","21","true_70",17,1,17,1,NA,23,1,14.675,NA
"378","21","true_70",18,1,18,1,NA,70,1,8.152,NA
"379","21","true_70",19,1,19,1,NA,67,1,6.092,NA
"380","21","true_70",20,1,20,1,NA,74,1,6.516,NA
"381","21","true_80",21,1,21,1,NA,98,1,4.834,NA
"382","21","true_80",22,1,22,1,NA,86,1,2.184,NA
"383","21","true_80",23,1,23,1,NA,72,1,5.116,NA
"384","21","true_80",24,1,24,1,NA,79,1,4.361,NA
"385","21","true_80",25,1,25,1,NA,88,1,5.375,NA
"386","21","true_90",26,1,26,1,NA,72,1,3.969,NA
"387","21","true_90",27,1,27,1,NA,63,1,6.077,NA
"388","21","true_90",28,1,28,1,NA,100,1,2.807,NA
"389","21","true_90",29,1,29,1,NA,84,1,9.998,NA
"390","21","true_90",30,1,30,1,NA,100,1,5.995,NA
"391","21","false_70",31,1,31,1,NA,20,0,3.704,NA
"392","21","false_70",32,1,32,1,NA,4,0,4.808,NA
"393","21","false_70",33,1,33,1,NA,21,0,3.978,NA
"394","21","false_70",34,1,34,1,NA,24,0,5.511,NA
"395","21","false_70",35,1,35,1,NA,19,0,10.738,NA
"396","21","false_80",36,1,36,1,NA,25,0,2.588,NA
"397","21","false_80",37,1,37,1,NA,23,0,3.681,NA
"398","21","false_80",38,1,38,1,NA,0,0,8.539,NA
"399","21","false_80",39,1,39,1,NA,19,0,4.896,NA
"400","21","false_80",40,1,40,1,NA,6,0,4.949,NA
"401","21","false_90",41,1,41,1,NA,0,0,9.176,NA
"402","21","false_90",42,1,42,1,NA,22,0,7.094,NA
"403","21","false_90",43,1,43,1,NA,6,0,2.79,NA
"404","21","false_90",44,1,44,1,NA,0,0,7.991,NA
"405","21","false_90",45,1,45,1,NA,31,0,6.392,NA
"406","21","true_70",46,1,46,1,NA,88,0,7.011,NA
"407","21","true_70",47,1,47,1,NA,69,0,2.544,NA
"408","21","true_70",48,1,48,1,NA,72,0,2.746,NA
"409","21","true_70",49,1,49,1,NA,93,0,3.857,NA
"410","21","true_70",50,1,50,1,NA,100,0,6.762,NA
"411","21","true_80",51,1,51,1,NA,100,0,10.539,NA
"412","21","true_80",52,1,52,1,NA,100,0,4.482,NA
"413","21","true_80",53,1,53,1,NA,37,0,4.318,NA
"414","21","true_80",54,1,54,1,NA,100,0,9.626,NA
"415","21","true_80",55,1,55,1,NA,58,0,8.372,NA
"416","21","true_90",56,1,56,1,NA,90,0,4.77,NA
"417","21","true_90",57,1,57,1,NA,62,0,5.235,NA
"418","21","true_90",58,1,58,1,NA,91,0,4.553,NA
"419","21","true_90",59,1,59,1,NA,55,0,5.537,NA
"420","21","true_90",60,1,60,1,NA,83,0,5.52,NA
"421","21","false_70",61,1,61,0,NA,22,1,2.314,NA
"422","21","false_70",62,1,62,0,NA,0,1,8.566,NA
"423","21","false_70",63,1,63,0,NA,31,1,5.03,NA
"424","21","false_70",64,1,64,0,NA,16,1,3.898,NA
"425","21","false_70",65,1,65,0,NA,38,1,3.547,NA
"426","21","false_80",66,1,66,0,NA,30,1,5.993,NA
"427","21","false_80",67,1,67,0,NA,22,1,3.494,NA
"428","21","false_80",68,1,68,0,NA,0,1,5.268,NA
"429","21","false_80",69,1,69,0,NA,28,1,8.093,NA
"430","21","false_80",70,1,70,0,NA,37,1,10.89,NA
"431","21","false_90",71,1,71,0,NA,19,1,6.535,NA
"432","21","false_90",72,1,72,0,NA,20,1,4.009,NA
"433","21","false_90",73,1,73,0,NA,93,1,5.711,NA
"434","21","false_90",74,1,74,0,NA,18,1,7.806,NA
"435","21","false_90",75,1,75,0,NA,30,1,3.35,NA
"436","21","true_70",76,1,76,0,NA,73,1,2.444,NA
"437","21","true_70",77,1,77,0,NA,70,1,3.68,NA
"438","21","true_70",78,1,78,0,NA,74,1,10.384,NA
"439","21","true_70",79,1,79,0,NA,100,1,5.413,NA
"440","21","true_70",80,1,80,0,NA,10,1,6.891,NA
"441","21","true_80",81,1,81,0,NA,80,1,6.403,NA
"442","21","true_80",82,1,82,0,NA,60,1,6.669,NA
"443","21","true_80",83,1,83,0,NA,81,1,4.638,NA
"444","21","true_80",84,1,84,0,NA,100,1,6.383,NA
"445","21","true_80",85,1,85,0,NA,95,1,5.163,NA
"446","21","true_90",86,1,86,0,NA,75,1,6.768,NA
"447","21","true_90",87,1,87,0,NA,100,1,3.875,NA
"448","21","true_90",88,1,88,0,NA,85,1,3.964,NA
"449","21","true_90",89,1,89,0,NA,71,1,7.452,NA
"450","21","true_90",90,1,90,0,NA,100,1,4.65,NA
"451","21","false_70",91,1,91,0,NA,28,0,5.304,NA
"452","21","false_70",92,1,92,0,NA,17,0,1.995,NA
"453","21","false_70",93,1,93,0,NA,32,0,2.357,NA
"454","21","false_70",94,1,94,0,NA,29,0,2.414,NA
"455","21","false_70",95,1,95,0,NA,41,0,2.788,NA
"456","21","false_80",96,1,96,0,NA,23,0,3.798,NA
"457","21","false_80",97,1,97,0,NA,21,0,4.141,NA
"458","21","false_80",98,1,98,0,NA,0,0,5.56,NA
"459","21","false_80",99,1,99,0,NA,0,0,11.365,NA
"460","21","false_80",100,1,100,0,NA,27,0,4.949,NA
"461","21","false_90",101,1,101,0,NA,11,0,2.094,NA
"462","21","false_90",102,1,102,0,NA,0,0,5.219,NA
"463","21","false_90",103,1,103,0,NA,8,0,2.321,NA
"464","21","false_90",104,1,104,0,NA,25,0,4.189,NA
"465","21","false_90",105,1,105,0,NA,3,0,5.312,NA
"466","21","true_70",106,1,106,0,NA,75,0,1.988,NA
"467","21","true_70",107,1,107,0,NA,90,0,5.167,NA
"468","21","true_70",108,1,108,0,NA,55,0,2.195,NA
"469","21","true_70",109,1,109,0,NA,0,0,6.962,NA
"470","21","true_70",110,1,110,0,NA,76,0,2.802,NA
"471","21","true_80",111,1,111,0,NA,96,0,13.045,NA
"472","21","true_80",112,1,112,0,NA,92,0,9.585,NA
"473","21","true_80",113,1,113,0,NA,84,0,2.487,NA
"474","21","true_80",114,1,114,0,NA,75,0,2.512,NA
"475","21","true_80",115,1,115,0,NA,66,0,5.458,NA
"476","21","true_90",116,1,116,0,NA,100,0,6.402,NA
"477","21","true_90",117,1,117,0,NA,84,0,1.897,NA
"478","21","true_90",118,1,118,0,NA,94,0,6.788,NA
"479","21","true_90",119,1,119,0,NA,91,0,2.59,NA
"480","21","true_90",120,1,120,0,NA,100,0,4.002,NA
"481","25","false_70",1,1,1,1,NA,39,1,5.429,NA
"482","25","false_70",2,1,2,1,NA,24,1,6.599,NA
"483","25","false_70",3,1,3,1,NA,0,1,6.349,NA
"484","25","false_70",4,1,4,1,NA,12,1,6.96,NA
"485","25","false_70",5,1,5,1,NA,40,1,7.702,NA
"486","25","false_80",6,1,6,1,NA,26,1,9.188,NA
"487","25","false_80",7,1,7,1,NA,67,1,7.088,NA
"488","25","false_80",8,1,8,1,NA,29,1,8.117,NA
"489","25","false_80",9,1,9,1,NA,88,1,10.081,NA
"490","25","false_80",10,1,10,1,NA,88,1,7.178,NA
"491","25","false_90",11,1,11,1,NA,11,1,4.945,NA
"492","25","false_90",12,1,12,1,NA,5,1,5.161,NA
"493","25","false_90",13,1,13,1,NA,22,1,6.183,NA
"494","25","false_90",14,1,14,1,NA,17,1,3.66,NA
"495","25","false_90",15,1,15,1,NA,19,1,9.343,NA
"496","25","true_70",16,1,16,1,NA,0,1,5.107,NA
"497","25","true_70",17,1,17,1,NA,97,1,4.955,NA
"498","25","true_70",18,1,18,1,NA,74,1,9.022,NA
"499","25","true_70",19,1,19,1,NA,27,1,7.07,NA
"500","25","true_70",20,1,20,1,NA,100,1,4.837,NA
"501","25","true_80",21,1,21,1,NA,73,1,5.122,NA
"502","25","true_80",22,1,22,1,NA,100,1,5.335,NA
"503","25","true_80",23,1,23,1,NA,78,1,10.822,NA
"504","25","true_80",24,1,24,1,NA,73,1,3.011,NA
"505","25","true_80",25,1,25,1,NA,71,1,2.725,NA
"506","25","true_90",26,1,26,1,NA,85,1,6.294,NA
"507","25","true_90",27,1,27,1,NA,100,1,3.067,NA
"508","25","true_90",28,1,28,1,NA,100,1,3.23,NA
"509","25","true_90",29,1,29,1,NA,62,1,4.234,NA
"510","25","true_90",30,1,30,1,NA,93,1,3.663,NA
"511","25","false_70",31,1,31,1,NA,36,0,9.737,NA
"512","25","false_70",32,1,32,1,NA,71,0,4.766,NA
"513","25","false_70",33,1,33,1,NA,0,0,5.799,NA
"514","25","false_70",34,1,34,1,NA,36,0,4.757,NA
"515","25","false_70",35,1,35,1,NA,20,0,3.914,NA
"516","25","false_80",36,1,36,1,NA,38,0,5.381,NA
"517","25","false_80",37,1,37,1,NA,41,0,9.842,NA
"518","25","false_80",38,1,38,1,NA,0,0,7.374,NA
"519","25","false_80",39,1,39,1,NA,36,0,5.968,NA
"520","25","false_80",40,1,40,1,NA,16,0,4.763,NA
"521","25","false_90",41,1,41,1,NA,19,0,3.46,NA
"522","25","false_90",42,1,42,1,NA,37,0,4.268,NA
"523","25","false_90",43,1,43,1,NA,13,0,3.271,NA
"524","25","false_90",44,1,44,1,NA,100,0,11.689,NA
"525","25","false_90",45,1,45,1,NA,11,0,7.163,NA
"526","25","true_70",46,1,46,1,NA,68,0,5.537,NA
"527","25","true_70",47,1,47,1,NA,72,0,4.329,NA
"528","25","true_70",48,1,48,1,NA,77,0,6.037,NA
"529","25","true_70",49,1,49,1,NA,67,0,3.379,NA
"530","25","true_70",50,1,50,1,NA,62,0,5.059,NA
"531","25","true_80",51,1,51,1,NA,65,0,7.21,NA
"532","25","true_80",52,1,52,1,NA,71,0,4.743,NA
"533","25","true_80",53,1,53,1,NA,65,0,3.274,NA
"534","25","true_80",54,1,54,1,NA,82,0,8.092,NA
"535","25","true_80",55,1,55,1,NA,63,0,8.677,NA
"536","25","true_90",56,1,56,1,NA,75,0,4.686,NA
"537","25","true_90",57,1,57,1,NA,93,0,6.266,NA
"538","25","true_90",58,1,58,1,NA,91,0,7.307,NA
"539","25","true_90",59,1,59,1,NA,92,0,3.473,NA
"540","25","true_90",60,1,60,1,NA,85,0,6.468,NA
"541","25","false_70",61,1,61,0,NA,72,1,43.082,NA
"542","25","false_70",62,1,62,0,NA,94,1,8.855,NA
"543","25","false_70",63,1,63,0,NA,26,1,6.62,NA
"544","25","false_70",64,1,64,0,NA,31,1,4.779,NA
"545","25","false_70",65,1,65,0,NA,72,1,22.53,NA
"546","25","false_80",66,1,66,0,NA,17,1,7.373,NA
"547","25","false_80",67,1,67,0,NA,59,1,6.963,NA
"548","25","false_80",68,1,68,0,NA,22,1,3.984,NA
"549","25","false_80",69,1,69,0,NA,32,1,4.655,NA
"550","25","false_80",70,1,70,0,NA,32,1,7.457,NA
"551","25","false_90",71,1,71,0,NA,0,1,11.826,NA
"552","25","false_90",72,1,72,0,NA,12,1,3.399,NA
"553","25","false_90",73,1,73,0,NA,96,1,13.956,NA
"554","25","false_90",74,1,74,0,NA,30,1,5.416,NA
"555","25","false_90",75,1,75,0,NA,0,1,5.374,NA
"556","25","true_70",76,1,76,0,NA,70,1,3.288,NA
"557","25","true_70",77,1,77,0,NA,70,1,3.333,NA
"558","25","true_70",78,1,78,0,NA,77,1,3.274,NA
"559","25","true_70",79,1,79,0,NA,86,1,6.419,NA
"560","25","true_70",80,1,80,0,NA,70,1,16.098,NA
"561","25","true_80",81,1,81,0,NA,78,1,5.255,NA
"562","25","true_80",82,1,82,0,NA,82,1,5.784,NA
"563","25","true_80",83,1,83,0,NA,94,1,7.13,NA
"564","25","true_80",84,1,84,0,NA,67,1,5.559,NA
"565","25","true_80",85,1,85,0,NA,78,1,2.877,NA
"566","25","true_90",86,1,86,0,NA,92,1,2.967,NA
"567","25","true_90",87,1,87,0,NA,77,1,3.206,NA
"568","25","true_90",88,1,88,0,NA,90,1,16.641,NA
"569","25","true_90",89,1,89,0,NA,72,1,7.958,NA
"570","25","true_90",90,1,90,0,NA,3,1,6.988,NA
"571","25","false_70",91,1,91,0,NA,19,0,7.477,NA
"572","25","false_70",92,1,92,0,NA,73,0,6.96,NA
"573","25","false_70",93,1,93,0,NA,29,0,4.689,NA
"574","25","false_70",94,1,94,0,NA,32,0,7.538,NA
"575","25","false_70",95,1,95,0,NA,23,0,7.698,NA
"576","25","false_80",96,1,96,0,NA,31,0,4.841,NA
"577","25","false_80",97,1,97,0,NA,84,0,8.745,NA
"578","25","false_80",98,1,98,0,NA,24,0,5.479,NA
"579","25","false_80",99,1,99,0,NA,38,0,9.861,NA
"580","25","false_80",100,1,100,0,NA,17,0,2.985,NA
"581","25","false_90",101,1,101,0,NA,34,0,6.045,NA
"582","25","false_90",102,1,102,0,NA,34,0,6.607,NA
"583","25","false_90",103,1,103,0,NA,16,0,5.767,NA
"584","25","false_90",104,1,104,0,NA,30,0,5.902,NA
"585","25","false_90",105,1,105,0,NA,10,0,6.668,NA
"586","25","true_70",106,1,106,0,NA,0,0,10.692,NA
"587","25","true_70",107,1,107,0,NA,57,0,5.47,NA
"588","25","true_70",108,1,108,0,NA,73,0,6.332,NA
"589","25","true_70",109,1,109,0,NA,33,0,5.692,NA
"590","25","true_70",110,1,110,0,NA,75,0,7.924,NA
"591","25","true_80",111,1,111,0,NA,69,0,5.512,NA
"592","25","true_80",112,1,112,0,NA,65,0,3.16,NA
"593","25","true_80",113,1,113,0,NA,68,0,3.748,NA
"594","25","true_80",114,1,114,0,NA,100,0,7.489,NA
"595","25","true_80",115,1,115,0,NA,72,0,9.625,NA
"596","25","true_90",116,1,116,0,NA,34,0,6.22,NA
"597","25","true_90",117,1,117,0,NA,100,0,6.802,NA
"598","25","true_90",118,1,118,0,NA,69,0,6.429,NA
"599","25","true_90",119,1,119,0,NA,93,0,4.401,NA
"600","25","true_90",120,1,120,0,NA,31,0,10.11,NA
"601","30","false_70",1,1,1,1,NA,53,1,4.561,NA
"602","30","false_70",2,1,2,1,NA,28,1,7.838,NA
"603","30","false_70",3,1,3,1,NA,51,1,9.29,NA
"604","30","false_70",4,1,4,1,NA,25,1,6.131,NA
"605","30","false_70",5,1,5,1,NA,32,1,5.021,NA
"606","30","false_80",6,1,6,1,NA,31,1,6.599,NA
"607","30","false_80",7,1,7,1,NA,46,1,3.398,NA
"608","30","false_80",8,1,8,1,NA,42,1,5.211,NA
"609","30","false_80",9,1,9,1,NA,26,1,8.121,NA
"610","30","false_80",10,1,10,1,NA,30,1,12.171,NA
"611","30","false_90",11,1,11,1,NA,60,1,3.953,NA
"612","30","false_90",12,1,12,1,NA,42,1,4.925,NA
"613","30","false_90",13,1,13,1,NA,32,1,3.584,NA
"614","30","false_90",14,1,14,1,NA,36,1,8.213,NA
"615","30","false_90",15,1,15,1,NA,36,1,6.7,NA
"616","30","true_70",16,1,16,1,NA,58,1,7.537,NA
"617","30","true_70",17,1,17,1,NA,78,1,7.924,NA
"618","30","true_70",18,1,18,1,NA,56,1,4.313,NA
"619","30","true_70",19,1,19,1,NA,47,1,7.098,NA
"620","30","true_70",20,1,20,1,NA,45,1,5.003,NA
"621","30","true_80",21,1,21,1,NA,56,1,8.809,NA
"622","30","true_80",22,1,22,1,NA,53,1,8.982,NA
"623","30","true_80",23,1,23,1,NA,30,1,6.554,NA
"624","30","true_80",24,1,24,1,NA,21,1,10.239,NA
"625","30","true_80",25,1,25,1,NA,0,1,8.461,NA
"626","30","true_90",26,1,26,1,NA,24,1,13.586,NA
"627","30","true_90",27,1,27,1,NA,54,1,9.941,NA
"628","30","true_90",28,1,28,1,NA,43,1,9.573,NA
"629","30","true_90",29,1,29,1,NA,53,1,6.639,NA
"630","30","true_90",30,1,30,1,NA,38,1,20.73,NA
"631","30","false_70",31,1,31,1,NA,28,0,10.018,NA
"632","30","false_70",32,1,32,1,NA,35,0,11.529,NA
"633","30","false_70",33,1,33,1,NA,26,0,6.035,NA
"634","30","false_70",34,1,34,1,NA,43,0,5.716,NA
"635","30","false_70",35,1,35,1,NA,37,0,3.201,NA
"636","30","false_80",36,1,36,1,NA,51,0,6.532,NA
"637","30","false_80",37,1,37,1,NA,24,0,6.196,NA
"638","30","false_80",38,1,38,1,NA,28,0,4.95,NA
"639","30","false_80",39,1,39,1,NA,12,0,4.79,NA
"640","30","false_80",40,1,40,1,NA,9,0,7.863,NA
"641","30","false_90",41,1,41,1,NA,45,0,5.767,NA
"642","30","false_90",42,1,42,1,NA,40,0,8.441,NA
"643","30","false_90",43,1,43,1,NA,42,0,8.157,NA
"644","30","false_90",44,1,44,1,NA,21,0,7.42,NA
"645","30","false_90",45,1,45,1,NA,22,0,21.364,NA
"646","30","true_70",46,1,46,1,NA,35,0,3.925,NA
"647","30","true_70",47,1,47,1,NA,32,0,8.691,NA
"648","30","true_70",48,1,48,1,NA,21,0,9.828,NA
"649","30","true_70",49,1,49,1,NA,49,0,11.936,NA
"650","30","true_70",50,1,50,1,NA,38,0,6.889,NA
"651","30","true_80",51,1,51,1,NA,37,0,6.66,NA
"652","30","true_80",52,1,52,1,NA,43,0,5.845,NA
"653","30","true_80",53,1,53,1,NA,51,0,7.607,NA
"654","30","true_80",54,1,54,1,NA,40,0,7.894,NA
"655","30","true_80",55,1,55,1,NA,52,0,5.701,NA
"656","30","true_90",56,1,56,1,NA,36,0,10.711,NA
"657","30","true_90",57,1,57,1,NA,37,0,10.996,NA
"658","30","true_90",58,1,58,1,NA,42,0,9.286,NA
"659","30","true_90",59,1,59,1,NA,63,0,5.773,NA
"660","30","true_90",60,1,60,1,NA,67,0,7.092,NA
"661","30","false_70",61,1,61,0,NA,32,1,6.436,NA
"662","30","false_70",62,1,62,0,NA,21,1,7.116,NA
"663","30","false_70",63,1,63,0,NA,64,1,13.381,NA
"664","30","false_70",64,1,64,0,NA,37,1,11.378,NA
"665","30","false_70",65,1,65,0,NA,27,1,4.598,NA
"666","30","false_80",66,1,66,0,NA,41,1,8.387,NA
"667","30","false_80",67,1,67,0,NA,37,1,7.388,NA
"668","30","false_80",68,1,68,0,NA,41,1,6.84,NA
"669","30","false_80",69,1,69,0,NA,28,1,6.817,NA
"670","30","false_80",70,1,70,0,NA,41,1,6.258,NA
"671","30","false_90",71,1,71,0,NA,30,1,7.593,NA
"672","30","false_90",72,1,72,0,NA,34,1,8.674,NA
"673","30","false_90",73,1,73,0,NA,14,1,8.644,NA
"674","30","false_90",74,1,74,0,NA,38,1,3.641,NA
"675","30","false_90",75,1,75,0,NA,45,1,3.217,NA
"676","30","true_70",76,1,76,0,NA,61,1,6.066,NA
"677","30","true_70",77,1,77,0,NA,52,1,10.444,NA
"678","30","true_70",78,1,78,0,NA,54,1,8.764,NA
"679","30","true_70",79,1,79,0,NA,42,1,4.765,NA
"680","30","true_70",80,1,80,0,NA,53,1,5.65,NA
"681","30","true_80",81,1,81,0,NA,36,1,5.999,NA
"682","30","true_80",82,1,82,0,NA,58,1,11.003,NA
"683","30","true_80",83,1,83,0,NA,15,1,8.172,NA
"684","30","true_80",84,1,84,0,NA,62,1,14.349,NA
"685","30","true_80",85,1,85,0,NA,0,1,6.998,NA
"686","30","true_90",86,1,86,0,NA,16,1,19.586,NA
"687","30","true_90",87,1,87,0,NA,34,1,6.261,NA
"688","30","true_90",88,1,88,0,NA,75,1,11.749,NA
"689","30","true_90",89,1,89,0,NA,58,1,6.875,NA
"690","30","true_90",90,1,90,0,NA,41,1,5.761,NA
"691","30","false_70",91,1,91,0,NA,36,0,6.37,NA
"692","30","false_70",92,1,92,0,NA,36,0,7.202,NA
"693","30","false_70",93,1,93,0,NA,34,0,6.561,NA
"694","30","false_70",94,1,94,0,NA,52,0,5.409,NA
"695","30","false_70",95,1,95,0,NA,31,0,5.926,NA
"696","30","false_80",96,1,96,0,NA,36,0,9.239,NA
"697","30","false_80",97,1,97,0,NA,39,0,5.551,NA
"698","30","false_80",98,1,98,0,NA,55,0,8.403,NA
"699","30","false_80",99,1,99,0,NA,56,0,2.443,NA
"700","30","false_80",100,1,100,0,NA,44,0,9.822,NA
"701","30","false_90",101,1,101,0,NA,58,0,5.836,NA
"702","30","false_90",102,1,102,0,NA,46,0,8.141,NA
"703","30","false_90",103,1,103,0,NA,7,0,8.653,NA
"704","30","false_90",104,1,104,0,NA,28,0,5.552,NA
"705","30","false_90",105,1,105,0,NA,42,0,11.591,NA
"706","30","true_70",106,1,106,0,NA,40,0,3.556,NA
"707","30","true_70",107,1,107,0,NA,53,0,6.236,NA
"708","30","true_70",108,1,108,0,NA,41,0,5.274,NA
"709","30","true_70",109,1,109,0,NA,30,0,8.228,NA
"710","30","true_70",110,1,110,0,NA,71,0,6.933,NA
"711","30","true_80",111,1,111,0,NA,0,0,6.43,NA
"712","30","true_80",112,1,112,0,NA,43,0,4.95,NA
"713","30","true_80",113,1,113,0,NA,56,0,4.952,NA
"714","30","true_80",114,1,114,0,NA,30,0,4.105,NA
"715","30","true_80",115,1,115,0,NA,53,0,6.515,NA
"716","30","true_90",116,1,116,0,NA,29,0,8.839,NA
"717","30","true_90",117,1,117,0,NA,5,0,8.523,NA
"718","30","true_90",118,1,118,0,NA,57,0,6.601,NA
"719","30","true_90",119,1,119,0,NA,41,0,5.253,NA
"720","30","true_90",120,1,120,0,NA,62,0,8.316,NA
"721","33","false_70",1,1,1,1,NA,73,1,5.33,NA
"722","33","false_70",2,1,2,1,NA,76,1,6.21,NA
"723","33","false_70",3,1,3,1,NA,100,1,4.623,NA
"724","33","false_70",4,1,4,1,NA,100,1,6.228,NA
"725","33","false_70",5,1,5,1,NA,100,1,5.597,NA
"726","33","false_80",6,1,6,1,NA,82,1,11.258,NA
"727","33","false_80",7,1,7,1,NA,13,1,5.747,NA
"728","33","false_80",8,1,8,1,NA,10,1,11.472,NA
"729","33","false_80",9,1,9,1,NA,3,1,9.296,NA
"730","33","false_80",10,1,10,1,NA,1,1,5.563,NA
"731","33","false_90",11,1,11,1,NA,0,1,5.878,NA
"732","33","false_90",12,1,12,1,NA,0,1,4.812,NA
"733","33","false_90",13,1,13,1,NA,0,1,8.884,NA
"734","33","false_90",14,1,14,1,NA,0,1,5.688,NA
"735","33","false_90",15,1,15,1,NA,100,1,8.312,NA
"736","33","true_70",16,1,16,1,NA,98,1,3.952,NA
"737","33","true_70",17,1,17,1,NA,88,1,7.192,NA
"738","33","true_70",18,1,18,1,NA,100,1,5.189,NA
"739","33","true_70",19,1,19,1,NA,100,1,4.728,NA
"740","33","true_70",20,1,20,1,NA,100,1,6.864,NA
"741","33","true_80",21,1,21,1,NA,100,1,6.007,NA
"742","33","true_80",22,1,22,1,NA,83,1,6.443,NA
"743","33","true_80",23,1,23,1,NA,100,1,4.335,NA
"744","33","true_80",24,1,24,1,NA,89,1,4.015,NA
"745","33","true_80",25,1,25,1,NA,82,1,12.444,NA
"746","33","true_90",26,1,26,1,NA,95,1,5.779,NA
"747","33","true_90",27,1,27,1,NA,100,1,15.916,NA
"748","33","true_90",28,1,28,1,NA,100,1,7.627,NA
"749","33","true_90",29,1,29,1,NA,100,1,14.988,NA
"750","33","true_90",30,1,30,1,NA,86,1,2.511,NA
"751","33","false_70",31,1,31,1,NA,1,0,5.612,NA
"752","33","false_70",32,1,32,1,NA,7,0,10.109,NA
"753","33","false_70",33,1,33,1,NA,3,0,7.237,NA
"754","33","false_70",34,1,34,1,NA,91,0,9.402,NA
"755","33","false_70",35,1,35,1,NA,77,0,5.884,NA
"756","33","false_80",36,1,36,1,NA,6,0,6.785,NA
"757","33","false_80",37,1,37,1,NA,91,0,5.869,NA
"758","33","false_80",38,1,38,1,NA,9,0,5.291,NA
"759","33","false_80",39,1,39,1,NA,0,0,7.662,NA
"760","33","false_80",40,1,40,1,NA,0,0,8.999,NA
"761","33","false_90",41,1,41,1,NA,0,0,10.78,NA
"762","33","false_90",42,1,42,1,NA,8,0,5.043,NA
"763","33","false_90",43,1,43,1,NA,0,0,11.496,NA
"764","33","false_90",44,1,44,1,NA,100,0,5.567,NA
"765","33","false_90",45,1,45,1,NA,0,0,9.916,NA
"766","33","true_70",46,1,46,1,NA,97,0,5.73,NA
"767","33","true_70",47,1,47,1,NA,100,0,5.197,NA
"768","33","true_70",48,1,48,1,NA,75,0,6.307,NA
"769","33","true_70",49,1,49,1,NA,1,0,8.346,NA
"770","33","true_70",50,1,50,1,NA,100,0,6.27,NA
"771","33","true_80",51,1,51,1,NA,96,0,5.398,NA
"772","33","true_80",52,1,52,1,NA,8,0,5.941,NA
"773","33","true_80",53,1,53,1,NA,100,0,4.588,NA
"774","33","true_80",54,1,54,1,NA,86,0,9.892,NA
"775","33","true_80",55,1,55,1,NA,100,0,5.393,NA
"776","33","true_90",56,1,56,1,NA,100,0,4.927,NA
"777","33","true_90",57,1,57,1,NA,100,0,9.79,NA
"778","33","true_90",58,1,58,1,NA,99,0,6.725,NA
"779","33","true_90",59,1,59,1,NA,91,0,4.844,NA
"780","33","true_90",60,1,60,1,NA,7,0,8.941,NA
"781","33","false_70",61,1,61,0,NA,18,1,7.267,NA
"782","33","false_70",62,1,62,0,NA,0,1,9.242,NA
"783","33","false_70",63,1,63,0,NA,10,1,4.876,NA
"784","33","false_70",64,1,64,0,NA,6,1,6.013,NA
"785","33","false_70",65,1,65,0,NA,6,1,7.333,NA
"786","33","false_80",66,1,66,0,NA,92,1,6.023,NA
"787","33","false_80",67,1,67,0,NA,76,1,21.093,NA
"788","33","false_80",68,1,68,0,NA,84,1,6.512,NA
"789","33","false_80",69,1,69,0,NA,82,1,6.232,NA
"790","33","false_80",70,1,70,0,NA,7,1,5.96,NA
"791","33","false_90",71,1,71,0,NA,95,1,11.267,NA
"792","33","false_90",72,1,72,0,NA,0,1,9.422,NA
"793","33","false_90",73,1,73,0,NA,0,1,5.44,NA
"794","33","false_90",74,1,74,0,NA,94,1,8.031,NA
"795","33","false_90",75,1,75,0,NA,0,1,6.436,NA
"796","33","true_70",76,1,76,0,NA,100,1,6.02,NA
"797","33","true_70",77,1,77,0,NA,7,1,8.286,NA
"798","33","true_70",78,1,78,0,NA,73,1,5.762,NA
"799","33","true_70",79,1,79,0,NA,96,1,4.877,NA
"800","33","true_70",80,1,80,0,NA,100,1,5.361,NA
"801","33","true_80",81,1,81,0,NA,75,1,6.619,NA
"802","33","true_80",82,1,82,0,NA,100,1,4.682,NA
"803","33","true_80",83,1,83,0,NA,100,1,5.892,NA
"804","33","true_80",84,1,84,0,NA,100,1,5.636,NA
"805","33","true_80",85,1,85,0,NA,100,1,10.154,NA
"806","33","true_90",86,1,86,0,NA,100,1,7.92,NA
"807","33","true_90",87,1,87,0,NA,100,1,4.094,NA
"808","33","true_90",88,1,88,0,NA,99,1,4.268,NA
"809","33","true_90",89,1,89,0,NA,100,1,7.854,NA
"810","33","true_90",90,1,90,0,NA,100,1,5.086,NA
"811","33","false_70",91,1,91,0,NA,0,0,10.947,NA
"812","33","false_70",92,1,92,0,NA,74,0,5.653,NA
"813","33","false_70",93,1,93,0,NA,100,0,5.326,NA
"814","33","false_70",94,1,94,0,NA,0,0,6.451,NA
"815","33","false_70",95,1,95,0,NA,0,0,6.622,NA
"816","33","false_80",96,1,96,0,NA,83,0,4.917,NA
"817","33","false_80",97,1,97,0,NA,100,0,4.733,NA
"818","33","false_80",98,1,98,0,NA,26,0,4.81,NA
"819","33","false_80",99,1,99,0,NA,0,0,4.34,NA
"820","33","false_80",100,1,100,0,NA,7,0,6.152,NA
"821","33","false_90",101,1,101,0,NA,0,0,6.486,NA
"822","33","false_90",102,1,102,0,NA,8,0,12.384,NA
"823","33","false_90",103,1,103,0,NA,0,0,5.07,NA
"824","33","false_90",104,1,104,0,NA,0,0,6.547,NA
"825","33","false_90",105,1,105,0,NA,95,0,6.678,NA
"826","33","true_70",106,1,106,0,NA,76,0,6.143,NA
"827","33","true_70",107,1,107,0,NA,19,0,9.939,NA
"828","33","true_70",108,1,108,0,NA,84,0,8.862,NA
"829","33","true_70",109,1,109,0,NA,90,0,3.216,NA
"830","33","true_70",110,1,110,0,NA,71,0,5.706,NA
"831","33","true_80",111,1,111,0,NA,1,0,8.877,NA
"832","33","true_80",112,1,112,0,NA,98,0,4.478,NA
"833","33","true_80",113,1,113,0,NA,0,0,9.018,NA
"834","33","true_80",114,1,114,0,NA,100,0,6.322,NA
"835","33","true_80",115,1,115,0,NA,88,0,10.996,NA
"836","33","true_90",116,1,116,0,NA,100,0,6.23,NA
"837","33","true_90",117,1,117,0,NA,90,0,5.823,NA
"838","33","true_90",118,1,118,0,NA,100,0,8.618,NA
"839","33","true_90",119,1,119,0,NA,89,0,4.908,NA
"840","33","true_90",120,1,120,0,NA,98,0,4.618,NA
"841","39","false_70",1,1,1,1,NA,8,1,4.898,NA
"842","39","false_70",2,1,2,1,NA,100,1,2.965,NA
"843","39","false_70",3,1,3,1,NA,100,1,3.784,NA
"844","39","false_70",4,1,4,1,NA,66,1,8.179,NA
"845","39","false_70",5,1,5,1,NA,100,1,5.365,NA
"846","39","false_80",6,1,6,1,NA,76,1,7.146,NA
"847","39","false_80",7,1,7,1,NA,100,1,3.752,NA
"848","39","false_80",8,1,8,1,NA,100,1,3.504,NA
"849","39","false_80",9,1,9,1,NA,100,1,3.105,NA
"850","39","false_80",10,1,10,1,NA,87,1,5.089,NA
"851","39","false_90",11,1,11,1,NA,76,1,10.075,NA
"852","39","false_90",12,1,12,1,NA,100,1,5.945,NA
"853","39","false_90",13,1,13,1,NA,100,1,4.968,NA
"854","39","false_90",14,1,14,1,NA,100,1,5.426,NA
"855","39","false_90",15,1,15,1,NA,100,1,3.869,NA
"856","39","true_70",16,1,16,1,NA,100,1,4.009,NA
"857","39","true_70",17,1,17,1,NA,18,1,3.71,NA
"858","39","true_70",18,1,18,1,NA,100,1,3.774,NA
"859","39","true_70",19,1,19,1,NA,34,1,4.519,NA
"860","39","true_70",20,1,20,1,NA,0,1,4.871,NA
"861","39","true_80",21,1,21,1,NA,55,1,10.006,NA
"862","39","true_80",22,1,22,1,NA,100,1,5.131,NA
"863","39","true_80",23,1,23,1,NA,100,1,3.941,NA
"864","39","true_80",24,1,24,1,NA,58,1,5.76,NA
"865","39","true_80",25,1,25,1,NA,60,1,6.14,NA
"866","39","true_90",26,1,26,1,NA,100,1,10.761,NA
"867","39","true_90",27,1,27,1,NA,26,1,4.849,NA
"868","39","true_90",28,1,28,1,NA,100,1,6.804,NA
"869","39","true_90",29,1,29,1,NA,100,1,5.574,NA
"870","39","true_90",30,1,30,1,NA,0,1,5.876,NA
"871","39","false_70",31,1,31,1,NA,86,0,3.342,NA
"872","39","false_70",32,1,32,1,NA,28,0,4.634,NA
"873","39","false_70",33,1,33,1,NA,24,0,4.95,NA
"874","39","false_70",34,1,34,1,NA,100,0,4.133,NA
"875","39","false_70",35,1,35,1,NA,12,0,3.89,NA
"876","39","false_80",36,1,36,1,NA,12,0,5.045,NA
"877","39","false_80",37,1,37,1,NA,24,0,2.682,NA
"878","39","false_80",38,1,38,1,NA,93,0,7.904,NA
"879","39","false_80",39,1,39,1,NA,15,0,5.156,NA
"880","39","false_80",40,1,40,1,NA,25,0,4.664,NA
"881","39","false_90",41,1,41,1,NA,100,0,5.038,NA
"882","39","false_90",42,1,42,1,NA,100,0,4.186,NA
"883","39","false_90",43,1,43,1,NA,17,0,6.527,NA
"884","39","false_90",44,1,44,1,NA,11,0,4.776,NA
"885","39","false_90",45,1,45,1,NA,56,0,7.771,NA
"886","39","true_70",46,1,46,1,NA,0,0,5.642,NA
"887","39","true_70",47,1,47,1,NA,0,0,6.956,NA
"888","39","true_70",48,1,48,1,NA,18,0,4.934,NA
"889","39","true_70",49,1,49,1,NA,24,0,6.57,NA
"890","39","true_70",50,1,50,1,NA,23,0,3.713,NA
"891","39","true_80",51,1,51,1,NA,68,0,5.926,NA
"892","39","true_80",52,1,52,1,NA,95,0,6.359,NA
"893","39","true_80",53,1,53,1,NA,92,0,6.027,NA
"894","39","true_80",54,1,54,1,NA,81,0,3.201,NA
"895","39","true_80",55,1,55,1,NA,71,0,3.371,NA
"896","39","true_90",56,1,56,1,NA,100,0,6.407,NA
"897","39","true_90",57,1,57,1,NA,94,0,4.129,NA
"898","39","true_90",58,1,58,1,NA,86,0,4.22,NA
"899","39","true_90",59,1,59,1,NA,100,0,5.417,NA
"900","39","true_90",60,1,60,1,NA,67,0,7.177,NA
"901","39","false_70",61,1,61,0,NA,95,1,6.666,NA
"902","39","false_70",62,1,62,0,NA,12,1,5.246,NA
"903","39","false_70",63,1,63,0,NA,11,1,5.898,NA
"904","39","false_70",64,1,64,0,NA,39,1,8.829,NA
"905","39","false_70",65,1,65,0,NA,100,1,3.824,NA
"906","39","false_80",66,1,66,0,NA,100,1,4.751,NA
"907","39","false_80",67,1,67,0,NA,100,1,5.009,NA
"908","39","false_80",68,1,68,0,NA,85,1,4.811,NA
"909","39","false_80",69,1,69,0,NA,100,1,2.718,NA
"910","39","false_80",70,1,70,0,NA,99,1,5.283,NA
"911","39","false_90",71,1,71,0,NA,100,1,5.598,NA
"912","39","false_90",72,1,72,0,NA,14,1,2.64,NA
"913","39","false_90",73,1,73,0,NA,26,1,4.526,NA
"914","39","false_90",74,1,74,0,NA,0,1,5.541,NA
"915","39","false_90",75,1,75,0,NA,71,1,4.536,NA
"916","39","true_70",76,1,76,0,NA,10,1,7.083,NA
"917","39","true_70",77,1,77,0,NA,100,1,3.345,NA
"918","39","true_70",78,1,78,0,NA,100,1,4.845,NA
"919","39","true_70",79,1,79,0,NA,98,1,6.242,NA
"920","39","true_70",80,1,80,0,NA,100,1,3.963,NA
"921","39","true_80",81,1,81,0,NA,100,1,5.577,NA
"922","39","true_80",82,1,82,0,NA,18,1,13.864,NA
"923","39","true_80",83,1,83,0,NA,100,1,4.179,NA
"924","39","true_80",84,1,84,0,NA,100,1,4.345,NA
"925","39","true_80",85,1,85,0,NA,86,1,3.77,NA
"926","39","true_90",86,1,86,0,NA,15,1,4.618,NA
"927","39","true_90",87,1,87,0,NA,16,1,5.171,NA
"928","39","true_90",88,1,88,0,NA,100,1,3.52,NA
"929","39","true_90",89,1,89,0,NA,100,1,4.909,NA
"930","39","true_90",90,1,90,0,NA,2,1,4.866,NA
"931","39","false_70",91,1,91,0,NA,25,0,3.631,NA
"932","39","false_70",92,1,92,0,NA,38,0,7.397,NA
"933","39","false_70",93,1,93,0,NA,98,0,5.015,NA
"934","39","false_70",94,1,94,0,NA,27,0,8.581,NA
"935","39","false_70",95,1,95,0,NA,24,0,3.858,NA
"936","39","false_80",96,1,96,0,NA,91,0,4.59,NA
"937","39","false_80",97,1,97,0,NA,14,0,3.08,NA
"938","39","false_80",98,1,98,0,NA,96,0,4.029,NA
"939","39","false_80",99,1,99,0,NA,33,0,4.231,NA
"940","39","false_80",100,1,100,0,NA,79,0,3.786,NA
"941","39","false_90",101,1,101,0,NA,87,0,3.777,NA
"942","39","false_90",102,1,102,0,NA,17,0,4.47,NA
"943","39","false_90",103,1,103,0,NA,18,0,9.943,NA
"944","39","false_90",104,1,104,0,NA,20,0,4.998,NA
"945","39","false_90",105,1,105,0,NA,15,0,4.771,NA
"946","39","true_70",106,1,106,0,NA,91,0,5.139,NA
"947","39","true_70",107,1,107,0,NA,65,0,4.768,NA
"948","39","true_70",108,1,108,0,NA,24,0,4.358,NA
"949","39","true_70",109,1,109,0,NA,24,0,4.808,NA
"950","39","true_70",110,1,110,0,NA,26,0,3.909,NA
"951","39","true_80",111,1,111,0,NA,65,0,4.015,NA
"952","39","true_80",112,1,112,0,NA,100,0,4.384,NA
"953","39","true_80",113,1,113,0,NA,22,0,3.78,NA
"954","39","true_80",114,1,114,0,NA,22,0,3.679,NA
"955","39","true_80",115,1,115,0,NA,9,0,5.841,NA
"956","39","true_90",116,1,116,0,NA,0,0,20.056,NA
"957","39","true_90",117,1,117,0,NA,100,0,5.519,NA
"958","39","true_90",118,1,118,0,NA,90,0,4.459,NA
"959","39","true_90",119,1,119,0,NA,33,0,3.642,NA
"960","39","true_90",120,1,120,0,NA,79,0,4.06,NA
"961","44","false_70",1,1,1,1,NA,45,1,17.218,NA
"962","44","false_70",2,1,2,1,NA,30,1,12.46,NA
"963","44","false_70",3,1,3,1,NA,16,1,4.644,NA
"964","44","false_70",4,1,4,1,NA,21,1,5.024,NA
"965","44","false_70",5,1,5,1,NA,0,1,5.594,NA
"966","44","false_80",6,1,6,1,NA,15,1,3.645,NA
"967","44","false_80",7,1,7,1,NA,24,1,5.984,NA
"968","44","false_80",8,1,8,1,NA,0,1,14.506,NA
"969","44","false_80",9,1,9,1,NA,15,1,4.387,NA
"970","44","false_80",10,1,10,1,NA,17,1,4.159,NA
"971","44","false_90",11,1,11,1,NA,13,1,4.198,NA
"972","44","false_90",12,1,12,1,NA,13,1,7.168,NA
"973","44","false_90",13,1,13,1,NA,13,1,4.348,NA
"974","44","false_90",14,1,14,1,NA,8,1,9.126,NA
"975","44","false_90",15,1,15,1,NA,12,1,11.364,NA
"976","44","true_70",16,1,16,1,NA,80,1,5.123,NA
"977","44","true_70",17,1,17,1,NA,78,1,5.281,NA
"978","44","true_70",18,1,18,1,NA,83,1,5.238,NA
"979","44","true_70",19,1,19,1,NA,83,1,5.704,NA
"980","44","true_70",20,1,20,1,NA,83,1,7.143,NA
"981","44","true_80",21,1,21,1,NA,100,1,4.309,NA
"982","44","true_80",22,1,22,1,NA,77,1,5.754,NA
"983","44","true_80",23,1,23,1,NA,84,1,5.677,NA
"984","44","true_80",24,1,24,1,NA,83,1,5.81,NA
"985","44","true_80",25,1,25,1,NA,100,1,7.114,NA
"986","44","true_90",26,1,26,1,NA,85,1,7.391,NA
"987","44","true_90",27,1,27,1,NA,99,1,8.543,NA
"988","44","true_90",28,1,28,1,NA,89,1,6.302,NA
"989","44","true_90",29,1,29,1,NA,87,1,7.222,NA
"990","44","true_90",30,1,30,1,NA,86,1,6.835,NA
"991","44","false_70",31,1,31,1,NA,20,0,4.458,NA
"992","44","false_70",32,1,32,1,NA,22,0,8.515,NA
"993","44","false_70",33,1,33,1,NA,14,0,4.78,NA
"994","44","false_70",34,1,34,1,NA,15,0,5.523,NA
"995","44","false_70",35,1,35,1,NA,22,0,7.239,NA
"996","44","false_80",36,1,36,1,NA,17,0,5.491,NA
"997","44","false_80",37,1,37,1,NA,13,0,4.968,NA
"998","44","false_80",38,1,38,1,NA,14,0,7.889,NA
"999","44","false_80",39,1,39,1,NA,9,0,4.615,NA
"1000","44","false_80",40,1,40,1,NA,18,0,7.592,NA
"1001","44","false_90",41,1,41,1,NA,27,0,4.345,NA
"1002","44","false_90",42,1,42,1,NA,1,0,8.282,NA
"1003","44","false_90",43,1,43,1,NA,6,0,7.919,NA
"1004","44","false_90",44,1,44,1,NA,16,0,4.781,NA
"1005","44","false_90",45,1,45,1,NA,14,0,8.111,NA
"1006","44","true_70",46,1,46,1,NA,68,0,4.947,NA
"1007","44","true_70",47,1,47,1,NA,87,0,8.363,NA
"1008","44","true_70",48,1,48,1,NA,100,0,8.832,NA
"1009","44","true_70",49,1,49,1,NA,90,0,5.226,NA
"1010","44","true_70",50,1,50,1,NA,100,0,7.123,NA
"1011","44","true_80",51,1,51,1,NA,87,0,7.348,NA
"1012","44","true_80",52,1,52,1,NA,100,0,6.445,NA
"1013","44","true_80",53,1,53,1,NA,100,0,4.758,NA
"1014","44","true_80",54,1,54,1,NA,84,0,5.949,NA
"1015","44","true_80",55,1,55,1,NA,100,0,4.96,NA
"1016","44","true_90",56,1,56,1,NA,100,0,6.439,NA
"1017","44","true_90",57,1,57,1,NA,89,0,6.466,NA
"1018","44","true_90",58,1,58,1,NA,82,0,7.239,NA
"1019","44","true_90",59,1,59,1,NA,89,0,9.73,NA
"1020","44","true_90",60,1,60,1,NA,76,0,12.294,NA
"1021","44","false_70",61,1,61,0,NA,30,1,9.616,NA
"1022","44","false_70",62,1,62,0,NA,27,1,5.109,NA
"1023","44","false_70",63,1,63,0,NA,24,1,10.254,NA
"1024","44","false_70",64,1,64,0,NA,18,1,3.801,NA
"1025","44","false_70",65,1,65,0,NA,37,1,6.402,NA
"1026","44","false_80",66,1,66,0,NA,18,1,4.686,NA
"1027","44","false_80",67,1,67,0,NA,22,1,22.743,NA
"1028","44","false_80",68,1,68,0,NA,38,1,11.824,NA
"1029","44","false_80",69,1,69,0,NA,17,1,5.444,NA
"1030","44","false_80",70,1,70,0,NA,18,1,8.195,NA
"1031","44","false_90",71,1,71,0,NA,5,1,4.416,NA
"1032","44","false_90",72,1,72,0,NA,15,1,7.787,NA
"1033","44","false_90",73,1,73,0,NA,13,1,6.54,NA
"1034","44","false_90",74,1,74,0,NA,11,1,6.739,NA
"1035","44","false_90",75,1,75,0,NA,12,1,5.186,NA
"1036","44","true_70",76,1,76,0,NA,100,1,6.927,NA
"1037","44","true_70",77,1,77,0,NA,76,1,8.087,NA
"1038","44","true_70",78,1,78,0,NA,82,1,5.597,NA
"1039","44","true_70",79,1,79,0,NA,100,1,15.596,NA
"1040","44","true_70",80,1,80,0,NA,81,1,7.491,NA
"1041","44","true_80",81,1,81,0,NA,80,1,7.514,NA
"1042","44","true_80",82,1,82,0,NA,75,1,5.698,NA
"1043","44","true_80",83,1,83,0,NA,72,1,23.044,NA
"1044","44","true_80",84,1,84,0,NA,100,1,9.666,NA
"1045","44","true_80",85,1,85,0,NA,68,1,7.559,NA
"1046","44","true_90",86,1,86,0,NA,77,1,8.155,NA
"1047","44","true_90",87,1,87,0,NA,77,1,6.491,NA
"1048","44","true_90",88,1,88,0,NA,76,1,6.52,NA
"1049","44","true_90",89,1,89,0,NA,87,1,5.45,NA
"1050","44","true_90",90,1,90,0,NA,93,1,7.421,NA
"1051","44","false_70",91,1,91,0,NA,0,0,6.23,NA
"1052","44","false_70",92,1,92,0,NA,22,0,6.13,NA
"1053","44","false_70",93,1,93,0,NA,19,0,4.684,NA
"1054","44","false_70",94,1,94,0,NA,29,0,14.035,NA
"1055","44","false_70",95,1,95,0,NA,38,0,9.336,NA
"1056","44","false_80",96,1,96,0,NA,17,0,5.378,NA
"1057","44","false_80",97,1,97,0,NA,15,0,6.385,NA
"1058","44","false_80",98,1,98,0,NA,19,0,4.943,NA
"1059","44","false_80",99,1,99,0,NA,13,0,7.451,NA
"1060","44","false_80",100,1,100,0,NA,22,0,17.705,NA
"1061","44","false_90",101,1,101,0,NA,14,0,5.904,NA
"1062","44","false_90",102,1,102,0,NA,8,0,5.514,NA
"1063","44","false_90",103,1,103,0,NA,18,0,9.358,NA
"1064","44","false_90",104,1,104,0,NA,12,0,5.76,NA
"1065","44","false_90",105,1,105,0,NA,0,0,4.838,NA
"1066","44","true_70",106,1,106,0,NA,79,0,4.252,NA
"1067","44","true_70",107,1,107,0,NA,100,0,6.34,NA
"1068","44","true_70",108,1,108,0,NA,70,0,6.972,NA
"1069","44","true_70",109,1,109,0,NA,70,0,9.845,NA
"1070","44","true_70",110,1,110,0,NA,79,0,5.467,NA
"1071","44","true_80",111,1,111,0,NA,80,0,7.536,NA
"1072","44","true_80",112,1,112,0,NA,64,0,7.869,NA
"1073","44","true_80",113,1,113,0,NA,85,0,6.02,NA
"1074","44","true_80",114,1,114,0,NA,73,0,9.299,NA
"1075","44","true_80",115,1,115,0,NA,86,0,9.219,NA
"1076","44","true_90",116,1,116,0,NA,95,0,7.27,NA
"1077","44","true_90",117,1,117,0,NA,77,0,5.804,NA
"1078","44","true_90",118,1,118,0,NA,83,0,8.156,NA
"1079","44","true_90",119,1,119,0,NA,79,0,6.937,NA
"1080","44","true_90",120,1,120,0,NA,100,0,5.989,NA
"1081","6","false_70",1,1,1,1,NA,0,1,6.771,NA
"1082","6","false_70",2,1,2,1,NA,19,1,3.489,NA
"1083","6","false_70",3,1,3,1,NA,76,1,9.73,NA
"1084","6","false_70",4,1,4,1,NA,20,1,4.126,NA
"1085","6","false_70",5,1,5,1,NA,25,1,1.343,NA
"1086","6","false_80",6,1,6,1,NA,69,1,1.646,NA
"1087","6","false_80",7,1,7,1,NA,20,1,3.242,NA
"1088","6","false_80",8,1,8,1,NA,70,1,1.66,NA
"1089","6","false_80",9,1,9,1,NA,32,1,4.171,NA
"1090","6","false_80",10,1,10,1,NA,26,1,1.42,NA
"1091","6","false_90",11,1,11,1,NA,31,1,3.587,NA
"1092","6","false_90",12,1,12,1,NA,100,1,8.05,NA
"1093","6","false_90",13,1,13,1,NA,70,1,8.139,NA
"1094","6","false_90",14,1,14,1,NA,11,1,1.643,NA
"1095","6","false_90",15,1,15,1,NA,24,1,1.421,NA
"1096","6","true_70",16,1,16,1,NA,42,1,1.28,NA
"1097","6","true_70",17,1,17,1,NA,77,1,1.874,NA
"1098","6","true_70",18,1,18,1,NA,71,1,1.251,NA
"1099","6","true_70",19,1,19,1,NA,74,1,6.253,NA
"1100","6","true_70",20,1,20,1,NA,100,1,3.878,NA
"1101","6","true_80",21,1,21,1,NA,24,1,19.658,NA
"1102","6","true_80",22,1,22,1,NA,74,1,1.729,NA
"1103","6","true_80",23,1,23,1,NA,93,1,3.224,NA
"1104","6","true_80",24,1,24,1,NA,30,1,1.786,NA
"1105","6","true_80",25,1,25,1,NA,75,1,27.799,NA
"1106","6","true_90",26,1,26,1,NA,81,1,3.826,NA
"1107","6","true_90",27,1,27,1,NA,0,1,7.146,NA
"1108","6","true_90",28,1,28,1,NA,100,1,4.109,NA
"1109","6","true_90",29,1,29,1,NA,89,1,3.607,NA
"1110","6","true_90",30,1,30,1,NA,76,1,1.55,NA
"1111","6","false_70",31,1,31,1,NA,64,0,1.408,NA
"1112","6","false_70",32,1,32,1,NA,70,0,0.99,NA
"1113","6","false_70",33,1,33,1,NA,68,0,2.709,NA
"1114","6","false_70",34,1,34,1,NA,40,0,1.656,NA
"1115","6","false_70",35,1,35,1,NA,71,0,4.049,NA
"1116","6","false_80",36,1,36,1,NA,11,0,2.066,NA
"1117","6","false_80",37,1,37,1,NA,48,0,2.107,NA
"1118","6","false_80",38,1,38,1,NA,100,0,9.477,NA
"1119","6","false_80",39,1,39,1,NA,31,0,6.966,NA
"1120","6","false_80",40,1,40,1,NA,0,0,5.134,NA
"1121","6","false_90",41,1,41,1,NA,1,0,2.547,NA
"1122","6","false_90",42,1,42,1,NA,72,0,11.525,NA
"1123","6","false_90",43,1,43,1,NA,79,0,5.698,NA
"1124","6","false_90",44,1,44,1,NA,25,0,3.74,NA
"1125","6","false_90",45,1,45,1,NA,3,0,3.051,NA
"1126","6","true_70",46,1,46,1,NA,88,0,2.802,NA
"1127","6","true_70",47,1,47,1,NA,17,0,1.624,NA
"1128","6","true_70",48,1,48,1,NA,70,0,4.667,NA
"1129","6","true_70",49,1,49,1,NA,89,0,1.764,NA
"1130","6","true_70",50,1,50,1,NA,15,0,4.207,NA
"1131","6","true_80",51,1,51,1,NA,88,0,4.248,NA
"1132","6","true_80",52,1,52,1,NA,68,0,1.678,NA
"1133","6","true_80",53,1,53,1,NA,67,0,4.133,NA
"1134","6","true_80",54,1,54,1,NA,69,0,3.31,NA
"1135","6","true_80",55,1,55,1,NA,0,0,8.328,NA
"1136","6","true_90",56,1,56,1,NA,73,0,1.299,NA
"1137","6","true_90",57,1,57,1,NA,22,0,14.304,NA
"1138","6","true_90",58,1,58,1,NA,21,0,2.425,NA
"1139","6","true_90",59,1,59,1,NA,28,0,4.679,NA
"1140","6","true_90",60,1,60,1,NA,70,0,2.645,NA
"1141","6","false_70",61,1,61,0,NA,63,1,1.015,NA
"1142","6","false_70",62,1,62,0,NA,24,1,1.314,NA
"1143","6","false_70",63,1,63,0,NA,0,1,4.477,NA
"1144","6","false_70",64,1,64,0,NA,81,1,4.158,NA
"1145","6","false_70",65,1,65,0,NA,29,1,7.217,NA
"1146","6","false_80",66,1,66,0,NA,52,1,2.746,NA
"1147","6","false_80",67,1,67,0,NA,0,1,10.136,NA
"1148","6","false_80",68,1,68,0,NA,22,1,1.596,NA
"1149","6","false_80",69,1,69,0,NA,23,1,1.551,NA
"1150","6","false_80",70,1,70,0,NA,21,1,3.368,NA
"1151","6","false_90",71,1,71,0,NA,15,1,1.582,NA
"1152","6","false_90",72,1,72,0,NA,48,1,3.238,NA
"1153","6","false_90",73,1,73,0,NA,12,1,9.53,NA
"1154","6","false_90",74,1,74,0,NA,30,1,6.857,NA
"1155","6","false_90",75,1,75,0,NA,72,1,5.856,NA
"1156","6","true_70",76,1,76,0,NA,79,1,3.451,NA
"1157","6","true_70",77,1,77,0,NA,100,1,2.788,NA
"1158","6","true_70",78,1,78,0,NA,81,1,1.813,NA
"1159","6","true_70",79,1,79,0,NA,21,1,4.844,NA
"1160","6","true_70",80,1,80,0,NA,0,1,8.798,NA
"1161","6","true_80",81,1,81,0,NA,80,1,6.458,NA
"1162","6","true_80",82,1,82,0,NA,100,1,11.707,NA
"1163","6","true_80",83,1,83,0,NA,43,1,1.694,NA
"1164","6","true_80",84,1,84,0,NA,36,1,9.656,NA
"1165","6","true_80",85,1,85,0,NA,79,1,3.531,NA
"1166","6","true_90",86,1,86,0,NA,100,1,4.235,NA
"1167","6","true_90",87,1,87,0,NA,95,1,3.651,NA
"1168","6","true_90",88,1,88,0,NA,0,1,6.588,NA
"1169","6","true_90",89,1,89,0,NA,75,1,3.319,NA
"1170","6","true_90",90,1,90,0,NA,78,1,3.557,NA
"1171","6","false_70",91,1,91,0,NA,13,0,1.996,NA
"1172","6","false_70",92,1,92,0,NA,53,0,2.053,NA
"1173","6","false_70",93,1,93,0,NA,30,0,3.577,NA
"1174","6","false_70",94,1,94,0,NA,35,0,0.995,NA
"1175","6","false_70",95,1,95,0,NA,19,0,2.271,NA
"1176","6","false_80",96,1,96,0,NA,59,0,1.042,NA
"1177","6","false_80",97,1,97,0,NA,75,0,3.752,NA
"1178","6","false_80",98,1,98,0,NA,73,0,1.257,NA
"1179","6","false_80",99,1,99,0,NA,79,0,7.666,NA
"1180","6","false_80",100,1,100,0,NA,51,0,1.515,NA
"1181","6","false_90",101,1,101,0,NA,14,0,3.842,NA
"1182","6","false_90",102,1,102,0,NA,32,0,0.923,NA
"1183","6","false_90",103,1,103,0,NA,30,0,2.183,NA
"1184","6","false_90",104,1,104,0,NA,100,0,3.536,NA
"1185","6","false_90",105,1,105,0,NA,0,0,7.513,NA
"1186","6","true_70",106,1,106,0,NA,83,0,1.33,NA
"1187","6","true_70",107,1,107,0,NA,78,0,3.464,NA
"1188","6","true_70",108,1,108,0,NA,36,0,2.676,NA
"1189","6","true_70",109,1,109,0,NA,79,0,2.136,NA
"1190","6","true_70",110,1,110,0,NA,63,0,2.741,NA
"1191","6","true_80",111,1,111,0,NA,63,0,1.514,NA
"1192","6","true_80",112,1,112,0,NA,76,0,1.091,NA
"1193","6","true_80",113,1,113,0,NA,80,0,4.445,NA
"1194","6","true_80",114,1,114,0,NA,50,0,1.652,NA
"1195","6","true_80",115,1,115,0,NA,0,0,5.733,NA
"1196","6","true_90",116,1,116,0,NA,25,0,4.164,NA
"1197","6","true_90",117,1,117,0,NA,71,0,1.042,NA
"1198","6","true_90",118,1,118,0,NA,65,0,1.283,NA
"1199","6","true_90",119,1,119,0,NA,93,0,4.087,NA
"1200","6","true_90",120,1,120,0,NA,28,0,1.478,NA
"1201","8","false_70",1,1,1,1,NA,20,1,9.228,NA
"1202","8","false_70",2,1,2,1,NA,31,1,4.118,NA
"1203","8","false_70",3,1,3,1,NA,60,1,6.593,NA
"1204","8","false_70",4,1,4,1,NA,100,1,9.546,NA
"1205","8","false_70",5,1,5,1,NA,67,1,6.274,NA
"1206","8","false_80",6,1,6,1,NA,100,1,6.8,NA
"1207","8","false_80",7,1,7,1,NA,66,1,5.351,NA
"1208","8","false_80",8,1,8,1,NA,40,1,5.186,NA
"1209","8","false_80",9,1,9,1,NA,29,1,3.281,NA
"1210","8","false_80",10,1,10,1,NA,22,1,5.898,NA
"1211","8","false_90",11,1,11,1,NA,3,1,3.468,NA
"1212","8","false_90",12,1,12,1,NA,30,1,4.433,NA
"1213","8","false_90",13,1,13,1,NA,42,1,5.555,NA
"1214","8","false_90",14,1,14,1,NA,35,1,7.378,NA
"1215","8","false_90",15,1,15,1,NA,87,1,11.02,NA
"1216","8","true_70",16,1,16,1,NA,70,1,3.753,NA
"1217","8","true_70",17,1,17,1,NA,67,1,5.692,NA
"1218","8","true_70",18,1,18,1,NA,68,1,3.466,NA
"1219","8","true_70",19,1,19,1,NA,35,1,10.582,NA
"1220","8","true_70",20,1,20,1,NA,76,1,4.878,NA
"1221","8","true_80",21,1,21,1,NA,77,1,6.969,NA
"1222","8","true_80",22,1,22,1,NA,86,1,8.721,NA
"1223","8","true_80",23,1,23,1,NA,42,1,7.976,NA
"1224","8","true_80",24,1,24,1,NA,68,1,4.293,NA
"1225","8","true_80",25,1,25,1,NA,85,1,5.729,NA
"1226","8","true_90",26,1,26,1,NA,76,1,4.758,NA
"1227","8","true_90",27,1,27,1,NA,84,1,5.815,NA
"1228","8","true_90",28,1,28,1,NA,93,1,7.079,NA
"1229","8","true_90",29,1,29,1,NA,94,1,5.308,NA
"1230","8","true_90",30,1,30,1,NA,91,1,5.536,NA
"1231","8","false_70",31,1,31,1,NA,28,0,5.459,NA
"1232","8","false_70",32,1,32,1,NA,87,0,11.091,NA
"1233","8","false_70",33,1,33,1,NA,36,0,5.33,NA
"1234","8","false_70",34,1,34,1,NA,35,0,3.299,NA
"1235","8","false_70",35,1,35,1,NA,55,0,7.735,NA
"1236","8","false_80",36,1,36,1,NA,61,0,6.643,NA
"1237","8","false_80",37,1,37,1,NA,97,0,10.584,NA
"1238","8","false_80",38,1,38,1,NA,51,0,14.796,NA
"1239","8","false_80",39,1,39,1,NA,39,0,5.913,NA
"1240","8","false_80",40,1,40,1,NA,30,0,6.625,NA
"1241","8","false_90",41,1,41,1,NA,35,0,5.318,NA
"1242","8","false_90",42,1,42,1,NA,23,0,5.514,NA
"1243","8","false_90",43,1,43,1,NA,1,0,4.516,NA
"1244","8","false_90",44,1,44,1,NA,14,0,4.73,NA
"1245","8","false_90",45,1,45,1,NA,16,0,5.455,NA
"1246","8","true_70",46,1,46,1,NA,63,0,6.883,NA
"1247","8","true_70",47,1,47,1,NA,31,0,7.497,NA
"1248","8","true_70",48,1,48,1,NA,68,0,6.083,NA
"1249","8","true_70",49,1,49,1,NA,37,0,5.237,NA
"1250","8","true_70",50,1,50,1,NA,69,0,6.483,NA
"1251","8","true_80",51,1,51,1,NA,66,0,5.307,NA
"1252","8","true_80",52,1,52,1,NA,77,0,8.593,NA
"1253","8","true_80",53,1,53,1,NA,90,0,7.731,NA
"1254","8","true_80",54,1,54,1,NA,37,0,5.425,NA
"1255","8","true_80",55,1,55,1,NA,100,0,6.068,NA
"1256","8","true_90",56,1,56,1,NA,100,0,7.576,NA
"1257","8","true_90",57,1,57,1,NA,66,0,4.754,NA
"1258","8","true_90",58,1,58,1,NA,90,0,5.288,NA
"1259","8","true_90",59,1,59,1,NA,83,0,8.102,NA
"1260","8","true_90",60,1,60,1,NA,92,0,12.769,NA
"1261","8","false_70",61,1,61,0,NA,62,1,7.11,NA
"1262","8","false_70",62,1,62,0,NA,31,1,4.924,NA
"1263","8","false_70",63,1,63,0,NA,36,1,3.747,NA
"1264","8","false_70",64,1,64,0,NA,44,1,6.637,NA
"1265","8","false_70",65,1,65,0,NA,0,1,11.172,NA
"1266","8","false_80",66,1,66,0,NA,14,1,9.711,NA
"1267","8","false_80",67,1,67,0,NA,41,1,5.105,NA
"1268","8","false_80",68,1,68,0,NA,67,1,5.301,NA
"1269","8","false_80",69,1,69,0,NA,33,1,4.87,NA
"1270","8","false_80",70,1,70,0,NA,56,1,6.212,NA
"1271","8","false_90",71,1,71,0,NA,18,1,8.489,NA
"1272","8","false_90",72,1,72,0,NA,29,1,5.725,NA
"1273","8","false_90",73,1,73,0,NA,58,1,6.606,NA
"1274","8","false_90",74,1,74,0,NA,12,1,5.596,NA
"1275","8","false_90",75,1,75,0,NA,26,1,5.709,NA
"1276","8","true_70",76,1,76,0,NA,17,1,5.64,NA
"1277","8","true_70",77,1,77,0,NA,72,1,4.697,NA
"1278","8","true_70",78,1,78,0,NA,33,1,6.143,NA
"1279","8","true_70",79,1,79,0,NA,64,1,4.482,NA
"1280","8","true_70",80,1,80,0,NA,62,1,3.406,NA
"1281","8","true_80",81,1,81,0,NA,93,1,4.308,NA
"1282","8","true_80",82,1,82,0,NA,71,1,5.96,NA
"1283","8","true_80",83,1,83,0,NA,72,1,5.551,NA
"1284","8","true_80",84,1,84,0,NA,70,1,8.53,NA
"1285","8","true_80",85,1,85,0,NA,61,1,4.929,NA
"1286","8","true_90",86,1,86,0,NA,86,1,7.048,NA
"1287","8","true_90",87,1,87,0,NA,86,1,5.912,NA
"1288","8","true_90",88,1,88,0,NA,97,1,7.336,NA
"1289","8","true_90",89,1,89,0,NA,83,1,5.632,NA
"1290","8","true_90",90,1,90,0,NA,63,1,5.517,NA
"1291","8","false_70",91,1,91,0,NA,31,0,5.635,NA
"1292","8","false_70",92,1,92,0,NA,76,0,5.968,NA
"1293","8","false_70",93,1,93,0,NA,29,0,21.077,NA
"1294","8","false_70",94,1,94,0,NA,65,0,9.973,NA
"1295","8","false_70",95,1,95,0,NA,59,0,5.77,NA
"1296","8","false_80",96,1,96,0,NA,54,0,7.679,NA
"1297","8","false_80",97,1,97,0,NA,35,0,7.32,NA
"1298","8","false_80",98,1,98,0,NA,38,0,6.799,NA
"1299","8","false_80",99,1,99,0,NA,81,0,8.991,NA
"1300","8","false_80",100,1,100,0,NA,36,0,4.142,NA
"1301","8","false_90",101,1,101,0,NA,11,0,8.661,NA
"1302","8","false_90",102,1,102,0,NA,9,0,6.854,NA
"1303","8","false_90",103,1,103,0,NA,59,0,9.27,NA
"1304","8","false_90",104,1,104,0,NA,20,0,7.308,NA
"1305","8","false_90",105,1,105,0,NA,8,0,5.201,NA
"1306","8","true_70",106,1,106,0,NA,66,0,3.573,NA
"1307","8","true_70",107,1,107,0,NA,28,0,5.882,NA
"1308","8","true_70",108,1,108,0,NA,58,0,4.92,NA
"1309","8","true_70",109,1,109,0,NA,60,0,9.749,NA
"1310","8","true_70",110,1,110,0,NA,43,0,5.894,NA
"1311","8","true_80",111,1,111,0,NA,65,0,4.119,NA
"1312","8","true_80",112,1,112,0,NA,61,0,7.931,NA
"1313","8","true_80",113,1,113,0,NA,72,0,5.187,NA
"1314","8","true_80",114,1,114,0,NA,63,0,4.825,NA
"1315","8","true_80",115,1,115,0,NA,63,0,6.056,NA
"1316","8","true_90",116,1,116,0,NA,58,0,4.752,NA
"1317","8","true_90",117,1,117,0,NA,100,0,13.628,NA
"1318","8","true_90",118,1,118,0,NA,76,0,4.347,NA
"1319","8","true_90",119,1,119,0,NA,0,0,6.288,NA
"1320","8","true_90",120,1,120,0,NA,73,0,6.166,NA
"1321","14","false_70",1,1,1,1,NA,89,1,7.252,NA
"1322","14","false_70",2,1,2,1,NA,0,1,12.64,NA
"1323","14","false_70",3,1,3,1,NA,65,1,5.397,NA
"1324","14","false_70",4,1,4,1,NA,17,1,5.289,NA
"1325","14","false_70",5,1,5,1,NA,14,1,3.476,NA
"1326","14","false_80",6,1,6,1,NA,27,1,6.69,NA
"1327","14","false_80",7,1,7,1,NA,9,1,5.805,NA
"1328","14","false_80",8,1,8,1,NA,21,1,7.186,NA
"1329","14","false_80",9,1,9,1,NA,100,1,2.584,NA
"1330","14","false_80",10,1,10,1,NA,0,1,6.319,NA
"1331","14","false_90",11,1,11,1,NA,23,1,4.178,NA
"1332","14","false_90",12,1,12,1,NA,83,1,5.787,NA
"1333","14","false_90",13,1,13,1,NA,97,1,5.3,NA
"1334","14","false_90",14,1,14,1,NA,4,1,6.798,NA
"1335","14","false_90",15,1,15,1,NA,7,1,3.89,NA
"1336","14","true_70",16,1,16,1,NA,20,1,7.528,NA
"1337","14","true_70",17,1,17,1,NA,66,1,5.039,NA
"1338","14","true_70",18,1,18,1,NA,78,1,4.559,NA
"1339","14","true_70",19,1,19,1,NA,27,1,4.717,NA
"1340","14","true_70",20,1,20,1,NA,20,1,5.727,NA
"1341","14","true_80",21,1,21,1,NA,13,1,7.497,NA
"1342","14","true_80",22,1,22,1,NA,23,1,4.339,NA
"1343","14","true_80",23,1,23,1,NA,100,1,3.868,NA
"1344","14","true_80",24,1,24,1,NA,63,1,4.572,NA
"1345","14","true_80",25,1,25,1,NA,77,1,6.886,NA
"1346","14","true_90",26,1,26,1,NA,79,1,5.657,NA
"1347","14","true_90",27,1,27,1,NA,92,1,4.427,NA
"1348","14","true_90",28,1,28,1,NA,66,1,18.147,NA
"1349","14","true_90",29,1,29,1,NA,19,1,5.91,NA
"1350","14","true_90",30,1,30,1,NA,9,1,3.681,NA
"1351","14","false_70",31,1,31,1,NA,98,0,4.912,NA
"1352","14","false_70",32,1,32,1,NA,12,0,4.54,NA
"1353","14","false_70",33,1,33,1,NA,0,0,4.213,NA
"1354","14","false_70",34,1,34,1,NA,5,0,8.055,NA
"1355","14","false_70",35,1,35,1,NA,5,0,4.758,NA
"1356","14","false_80",36,1,36,1,NA,77,0,4.003,NA
"1357","14","false_80",37,1,37,1,NA,4,0,8.267,NA
"1358","14","false_80",38,1,38,1,NA,94,0,12.157,NA
"1359","14","false_80",39,1,39,1,NA,22,0,4.567,NA
"1360","14","false_80",40,1,40,1,NA,85,0,4.184,NA
"1361","14","false_90",41,1,41,1,NA,10,0,8.335,NA
"1362","14","false_90",42,1,42,1,NA,14,0,5.556,NA
"1363","14","false_90",43,1,43,1,NA,68,0,6.793,NA
"1364","14","false_90",44,1,44,1,NA,83,0,4.437,NA
"1365","14","false_90",45,1,45,1,NA,15,0,5.438,NA
"1366","14","true_70",46,1,46,1,NA,23,0,4.785,NA
"1367","14","true_70",47,1,47,1,NA,80,0,5.247,NA
"1368","14","true_70",48,1,48,1,NA,80,0,4.476,NA
"1369","14","true_70",49,1,49,1,NA,26,0,6.696,NA
"1370","14","true_70",50,1,50,1,NA,69,0,5.046,NA
"1371","14","true_80",51,1,51,1,NA,85,0,4.083,NA
"1372","14","true_80",52,1,52,1,NA,98,0,3.482,NA
"1373","14","true_80",53,1,53,1,NA,77,0,5.702,NA
"1374","14","true_80",54,1,54,1,NA,90,0,4.218,NA
"1375","14","true_80",55,1,55,1,NA,64,0,4.004,NA
"1376","14","true_90",56,1,56,1,NA,28,0,6.906,NA
"1377","14","true_90",57,1,57,1,NA,93,0,4.124,NA
"1378","14","true_90",58,1,58,1,NA,88,0,6.175,NA
"1379","14","true_90",59,1,59,1,NA,100,0,4.501,NA
"1380","14","true_90",60,1,60,1,NA,14,0,9.048,NA
"1381","14","false_70",61,1,61,0,NA,66,1,4.178,NA
"1382","14","false_70",62,1,62,0,NA,78,1,2.893,NA
"1383","14","false_70",63,1,63,0,NA,24,1,5.366,NA
"1384","14","false_70",64,1,64,0,NA,77,1,4.778,NA
"1385","14","false_70",65,1,65,0,NA,42,1,13.996,NA
"1386","14","false_80",66,1,66,0,NA,0,1,4.707,NA
"1387","14","false_80",67,1,67,0,NA,2,1,3.615,NA
"1388","14","false_80",68,1,68,0,NA,68,1,3.986,NA
"1389","14","false_80",69,1,69,0,NA,19,1,9.374,NA
"1390","14","false_80",70,1,70,0,NA,64,1,8.56,NA
"1391","14","false_90",71,1,71,0,NA,63,1,7.67,NA
"1392","14","false_90",72,1,72,0,NA,82,1,3.817,NA
"1393","14","false_90",73,1,73,0,NA,100,1,4.192,NA
"1394","14","false_90",74,1,74,0,NA,24,1,6.83,NA
"1395","14","false_90",75,1,75,0,NA,9,1,3.634,NA
"1396","14","true_70",76,1,76,0,NA,68,1,10.492,NA
"1397","14","true_70",77,1,77,0,NA,95,1,10.743,NA
"1398","14","true_70",78,1,78,0,NA,84,1,5.941,NA
"1399","14","true_70",79,1,79,0,NA,29,1,10.853,NA
"1400","14","true_70",80,1,80,0,NA,89,1,4.32,NA
"1401","14","true_80",81,1,81,0,NA,31,1,7.312,NA
"1402","14","true_80",82,1,82,0,NA,97,1,3.758,NA
"1403","14","true_80",83,1,83,0,NA,67,1,5.831,NA
"1404","14","true_80",84,1,84,0,NA,73,1,4.347,NA
"1405","14","true_80",85,1,85,0,NA,0,1,3.99,NA
"1406","14","true_90",86,1,86,0,NA,65,1,5.831,NA
"1407","14","true_90",87,1,87,0,NA,76,1,6.902,NA
"1408","14","true_90",88,1,88,0,NA,0,1,6.594,NA
"1409","14","true_90",89,1,89,0,NA,7,1,6.183,NA
"1410","14","true_90",90,1,90,0,NA,74,1,5.11,NA
"1411","14","false_70",91,1,91,0,NA,5,0,5.507,NA
"1412","14","false_70",92,1,92,0,NA,5,0,9.878,NA
"1413","14","false_70",93,1,93,0,NA,13,0,7.138,NA
"1414","14","false_70",94,1,94,0,NA,7,0,10.172,NA
"1415","14","false_70",95,1,95,0,NA,15,0,3.516,NA
"1416","14","false_80",96,1,96,0,NA,14,0,6.781,NA
"1417","14","false_80",97,1,97,0,NA,2,0,5.805,NA
"1418","14","false_80",98,1,98,0,NA,77,0,6.255,NA
"1419","14","false_80",99,1,99,0,NA,74,0,5.313,NA
"1420","14","false_80",100,1,100,0,NA,0,0,5.052,NA
"1421","14","false_90",101,1,101,0,NA,0,0,11.766,NA
"1422","14","false_90",102,1,102,0,NA,100,0,4.005,NA
"1423","14","false_90",103,1,103,0,NA,86,0,8.219,NA
"1424","14","false_90",104,1,104,0,NA,5,0,5.67,NA
"1425","14","false_90",105,1,105,0,NA,6,0,4.562,NA
"1426","14","true_70",106,1,106,0,NA,75,0,7.836,NA
"1427","14","true_70",107,1,107,0,NA,8,0,4.657,NA
"1428","14","true_70",108,1,108,0,NA,18,0,4.667,NA
"1429","14","true_70",109,1,109,0,NA,77,0,7.498,NA
"1430","14","true_70",110,1,110,0,NA,15,0,4.039,NA
"1431","14","true_80",111,1,111,0,NA,78,0,7.902,NA
"1432","14","true_80",112,1,112,0,NA,48,0,8.977,NA
"1433","14","true_80",113,1,113,0,NA,90,0,7.207,NA
"1434","14","true_80",114,1,114,0,NA,35,0,6.837,NA
"1435","14","true_80",115,1,115,0,NA,61,0,11.78,NA
"1436","14","true_90",116,1,116,0,NA,100,0,4.337,NA
"1437","14","true_90",117,1,117,0,NA,20,0,5.423,NA
"1438","14","true_90",118,1,118,0,NA,67,0,4.811,NA
"1439","14","true_90",119,1,119,0,NA,20,0,4.475,NA
"1440","14","true_90",120,1,120,0,NA,3,0,7.053,NA
"1441","18","false_70",1,1,1,1,NA,48,1,6.468,NA
"1442","18","false_70",2,1,2,1,NA,45,1,22.927,NA
"1443","18","false_70",3,1,3,1,NA,69,1,4.607,NA
"1444","18","false_70",4,1,4,1,NA,70,1,3.519,NA
"1445","18","false_70",5,1,5,1,NA,36,1,3.557,NA
"1446","18","false_80",6,1,6,1,NA,45,1,2.464,NA
"1447","18","false_80",7,1,7,1,NA,40,1,4.874,NA
"1448","18","false_80",8,1,8,1,NA,39,1,3.709,NA
"1449","18","false_80",9,1,9,1,NA,35,1,4.985,NA
"1450","18","false_80",10,1,10,1,NA,53,1,9.202,NA
"1451","18","false_90",11,1,11,1,NA,0,1,23.547,NA
"1452","18","false_90",12,1,12,1,NA,24,1,5.689,NA
"1453","18","false_90",13,1,13,1,NA,23,1,7.002,NA
"1454","18","false_90",14,1,14,1,NA,16,1,2.803,NA
"1455","18","false_90",15,1,15,1,NA,45,1,4.202,NA
"1456","18","true_70",16,1,16,1,NA,41,1,1.403,NA
"1457","18","true_70",17,1,17,1,NA,38,1,2.378,NA
"1458","18","true_70",18,1,18,1,NA,37,1,4.209,NA
"1459","18","true_70",19,1,19,1,NA,33,1,4.591,NA
"1460","18","true_70",20,1,20,1,NA,10,1,6.431,NA
"1461","18","true_80",21,1,21,1,NA,87,1,8.374,NA
"1462","18","true_80",22,1,22,1,NA,45,1,5.991,NA
"1463","18","true_80",23,1,23,1,NA,72,1,4.022,NA
"1464","18","true_80",24,1,24,1,NA,38,1,5.516,NA
"1465","18","true_80",25,1,25,1,NA,49,1,5.875,NA
"1466","18","true_90",26,1,26,1,NA,71,1,4.079,NA
"1467","18","true_90",27,1,27,1,NA,82,1,5.526,NA
"1468","18","true_90",28,1,28,1,NA,74,1,3.529,NA
"1469","18","true_90",29,1,29,1,NA,75,1,4.52,NA
"1470","18","true_90",30,1,30,1,NA,84,1,2.883,NA
"1471","18","false_70",31,1,31,1,NA,62,0,1.99,NA
"1472","18","false_70",32,1,32,1,NA,100,0,37.928,NA
"1473","18","false_70",33,1,33,1,NA,52,0,4.995,NA
"1474","18","false_70",34,1,34,1,NA,37,0,6.681,NA
"1475","18","false_70",35,1,35,1,NA,76,0,5.48,NA
"1476","18","false_80",36,1,36,1,NA,69,0,8.53,NA
"1477","18","false_80",37,1,37,1,NA,49,0,6.726,NA
"1478","18","false_80",38,1,38,1,NA,59,0,2.929,NA
"1479","18","false_80",39,1,39,1,NA,47,0,2.378,NA
"1480","18","false_80",40,1,40,1,NA,70,0,17.464,NA
"1481","18","false_90",41,1,41,1,NA,40,0,3.415,NA
"1482","18","false_90",42,1,42,1,NA,30,0,4.821,NA
"1483","18","false_90",43,1,43,1,NA,55,0,7.229,NA
"1484","18","false_90",44,1,44,1,NA,89,0,2.854,NA
"1485","18","false_90",45,1,45,1,NA,35,0,7.107,NA
"1486","18","true_70",46,1,46,1,NA,43,0,2.533,NA
"1487","18","true_70",47,1,47,1,NA,22,0,12.257,NA
"1488","18","true_70",48,1,48,1,NA,60,0,5.793,NA
"1489","18","true_70",49,1,49,1,NA,40,0,2.11,NA
"1490","18","true_70",50,1,50,1,NA,31,0,3.695,NA
"1491","18","true_80",51,1,51,1,NA,66,0,6.16,NA
"1492","18","true_80",52,1,52,1,NA,52,0,6.381,NA
"1493","18","true_80",53,1,53,1,NA,45,0,1.715,NA
"1494","18","true_80",54,1,54,1,NA,46,0,1.256,NA
"1495","18","true_80",55,1,55,1,NA,43,0,7.112,NA
"1496","18","true_90",56,1,56,1,NA,73,0,5.339,NA
"1497","18","true_90",57,1,57,1,NA,86,0,2.177,NA
"1498","18","true_90",58,1,58,1,NA,89,0,3.253,NA
"1499","18","true_90",59,1,59,1,NA,52,0,11.826,NA
"1500","18","true_90",60,1,60,1,NA,60,0,6.38,NA
"1501","18","false_70",61,1,61,0,NA,80,1,4.941,NA
"1502","18","false_70",62,1,62,0,NA,67,1,4.769,NA
"1503","18","false_70",63,1,63,0,NA,63,1,5.312,NA
"1504","18","false_70",64,1,64,0,NA,62,1,1.623,NA
"1505","18","false_70",65,1,65,0,NA,13,1,3.744,NA
"1506","18","false_80",66,1,66,0,NA,44,1,3.466,NA
"1507","18","false_80",67,1,67,0,NA,55,1,2.997,NA
"1508","18","false_80",68,1,68,0,NA,41,1,3.065,NA
"1509","18","false_80",69,1,69,0,NA,39,1,3.243,NA
"1510","18","false_80",70,1,70,0,NA,0,1,5.821,NA
"1511","18","false_90",71,1,71,0,NA,45,1,5.101,NA
"1512","18","false_90",72,1,72,0,NA,0,1,8.193,NA
"1513","18","false_90",73,1,73,0,NA,35,1,12.376,NA
"1514","18","false_90",74,1,74,0,NA,15,1,2.861,NA
"1515","18","false_90",75,1,75,0,NA,19,1,2.975,NA
"1516","18","true_70",76,1,76,0,NA,66,1,4.739,NA
"1517","18","true_70",77,1,77,0,NA,0,1,13.487,NA
"1518","18","true_70",78,1,78,0,NA,25,1,6.447,NA
"1519","18","true_70",79,1,79,0,NA,45,1,7.634,NA
"1520","18","true_70",80,1,80,0,NA,45,1,2.755,NA
"1521","18","true_80",81,1,81,0,NA,44,1,4.914,NA
"1522","18","true_80",82,1,82,0,NA,55,1,3.453,NA
"1523","18","true_80",83,1,83,0,NA,34,1,6.49,NA
"1524","18","true_80",84,1,84,0,NA,46,1,3.212,NA
"1525","18","true_80",85,1,85,0,NA,73,1,5.554,NA
"1526","18","true_90",86,1,86,0,NA,78,1,3.349,NA
"1527","18","true_90",87,1,87,0,NA,80,1,2.337,NA
"1528","18","true_90",88,1,88,0,NA,77,1,8.886,NA
"1529","18","true_90",89,1,89,0,NA,65,1,3.34,NA
"1530","18","true_90",90,1,90,0,NA,95,1,2.737,NA
"1531","18","false_70",91,1,91,0,NA,45,0,9.026,NA
"1532","18","false_70",92,1,92,0,NA,64,0,5.065,NA
"1533","18","false_70",93,1,93,0,NA,0,0,7.396,NA
"1534","18","false_70",94,1,94,0,NA,45,0,4.651,NA
"1535","18","false_70",95,1,95,0,NA,45,0,5.928,NA
"1536","18","false_80",96,1,96,0,NA,45,0,1.529,NA
"1537","18","false_80",97,1,97,0,NA,33,0,5.173,NA
"1538","18","false_80",98,1,98,0,NA,40,0,7.283,NA
"1539","18","false_80",99,1,99,0,NA,45,0,3.639,NA
"1540","18","false_80",100,1,100,0,NA,58,0,8.856,NA
"1541","18","false_90",101,1,101,0,NA,50,0,17.597,NA
"1542","18","false_90",102,1,102,0,NA,68,0,14.639,NA
"1543","18","false_90",103,1,103,0,NA,12,0,3.548,NA
"1544","18","false_90",104,1,104,0,NA,22,0,5.959,NA
"1545","18","false_90",105,1,105,0,NA,23,0,4.368,NA
"1546","18","true_70",106,1,106,0,NA,45,0,1.387,NA
"1547","18","true_70",107,1,107,0,NA,39,0,1.966,NA
"1548","18","true_70",108,1,108,0,NA,26,0,5.038,NA
"1549","18","true_70",109,1,109,0,NA,26,0,15.772,NA
"1550","18","true_70",110,1,110,0,NA,67,0,3.825,NA
"1551","18","true_80",111,1,111,0,NA,55,0,35.044,NA
"1552","18","true_80",112,1,112,0,NA,55,0,12.2,NA
"1553","18","true_80",113,1,113,0,NA,35,0,8.287,NA
"1554","18","true_80",114,1,114,0,NA,67,0,3.702,NA
"1555","18","true_80",115,1,115,0,NA,40,0,6.87,NA
"1556","18","true_90",116,1,116,0,NA,70,0,5.403,NA
"1557","18","true_90",117,1,117,0,NA,80,0,5.131,NA
"1558","18","true_90",118,1,118,0,NA,64,0,3.16,NA
"1559","18","true_90",119,1,119,0,NA,41,0,7.539,NA
"1560","18","true_90",120,1,120,0,NA,100,0,1.858,NA
"1561","24","false_70",1,1,1,1,NA,100,1,18.793,NA
"1562","24","false_70",2,1,2,1,NA,0,1,4.408,NA
"1563","24","false_70",3,1,3,1,NA,30,1,8.986,NA
"1564","24","false_70",4,1,4,1,NA,23,1,1.849,NA
"1565","24","false_70",5,1,5,1,NA,37,1,5.278,NA
"1566","24","false_80",6,1,6,1,NA,49,1,14.147,NA
"1567","24","false_80",7,1,7,1,NA,9,1,4.231,NA
"1568","24","false_80",8,1,8,1,NA,15,1,13.565,NA
"1569","24","false_80",9,1,9,1,NA,12,1,22.011,NA
"1570","24","false_80",10,1,10,1,NA,23,1,5.581,NA
"1571","24","false_90",11,1,11,1,NA,7,1,4.647,NA
"1572","24","false_90",12,1,12,1,NA,0,1,15.019,NA
"1573","24","false_90",13,1,13,1,NA,20,1,24.471,NA
"1574","24","false_90",14,1,14,1,NA,100,1,30.564,NA
"1575","24","false_90",15,1,15,1,NA,12,1,14.384,NA
"1576","24","true_70",16,1,16,1,NA,86,1,4.326,NA
"1577","24","true_70",17,1,17,1,NA,77,1,13.465,NA
"1578","24","true_70",18,1,18,1,NA,72,1,4.04,NA
"1579","24","true_70",19,1,19,1,NA,68,1,11.307,NA
"1580","24","true_70",20,1,20,1,NA,71,1,2.555,NA
"1581","24","true_80",21,1,21,1,NA,92,1,4.727,NA
"1582","24","true_80",22,1,22,1,NA,87,1,7.626,NA
"1583","24","true_80",23,1,23,1,NA,86,1,3.279,NA
"1584","24","true_80",24,1,24,1,NA,100,1,4.863,NA
"1585","24","true_80",25,1,25,1,NA,87,1,9.429,NA
"1586","24","true_90",26,1,26,1,NA,93,1,5.266,NA
"1587","24","true_90",27,1,27,1,NA,100,1,3.456,NA
"1588","24","true_90",28,1,28,1,NA,100,1,6.277,NA
"1589","24","true_90",29,1,29,1,NA,95,1,8.359,NA
"1590","24","true_90",30,1,30,1,NA,100,1,3.639,NA
"1591","24","false_70",31,1,31,1,NA,100,0,37.19,NA
"1592","24","false_70",32,1,32,1,NA,11,0,4.505,NA
"1593","24","false_70",33,1,33,1,NA,6,0,7.702,NA
"1594","24","false_70",34,1,34,1,NA,19,0,7.271,NA
"1595","24","false_70",35,1,35,1,NA,15,0,4.446,NA
"1596","24","false_80",36,1,36,1,NA,12,0,15.68,NA
"1597","24","false_80",37,1,37,1,NA,32,0,12.063,NA
"1598","24","false_80",38,1,38,1,NA,88,0,11.766,NA
"1599","24","false_80",39,1,39,1,NA,0,0,18.984,NA
"1600","24","false_80",40,1,40,1,NA,61,0,7.212,NA
"1601","24","false_90",41,1,41,1,NA,0,0,4.579,NA
"1602","24","false_90",42,1,42,1,NA,0,0,6.917,NA
"1603","24","false_90",43,1,43,1,NA,0,0,6.197,NA
"1604","24","false_90",44,1,44,1,NA,21,0,10.189,NA
"1605","24","false_90",45,1,45,1,NA,100,0,39.851,NA
"1606","24","true_70",46,1,46,1,NA,22,0,1.955,NA
"1607","24","true_70",47,1,47,1,NA,0,0,17.373,NA
"1608","24","true_70",48,1,48,1,NA,65,0,22.498,NA
"1609","24","true_70",49,1,49,1,NA,100,0,12.149,NA
"1610","24","true_70",50,1,50,1,NA,60,0,9.654,NA
"1611","24","true_80",51,1,51,1,NA,100,0,8.75,NA
"1612","24","true_80",52,1,52,1,NA,79,0,4.28,NA
"1613","24","true_80",53,1,53,1,NA,100,0,4.465,NA
"1614","24","true_80",54,1,54,1,NA,100,0,6.313,NA
"1615","24","true_80",55,1,55,1,NA,100,0,7.169,NA
"1616","24","true_90",56,1,56,1,NA,96,0,6.15,NA
"1617","24","true_90",57,1,57,1,NA,100,0,12.606,NA
"1618","24","true_90",58,1,58,1,NA,100,0,3.338,NA
"1619","24","true_90",59,1,59,1,NA,99,0,8.447,NA
"1620","24","true_90",60,1,60,1,NA,99,0,4.297,NA
"1621","24","false_70",61,1,61,0,NA,31,1,4.85,NA
"1622","24","false_70",62,1,62,0,NA,0,1,5.079,NA
"1623","24","false_70",63,1,63,0,NA,39,1,4.233,NA
"1624","24","false_70",64,1,64,0,NA,0,1,36.081,NA
"1625","24","false_70",65,1,65,0,NA,36,1,6.452,NA
"1626","24","false_80",66,1,66,0,NA,16,1,14.002,NA
"1627","24","false_80",67,1,67,0,NA,66,1,2.092,NA
"1628","24","false_80",68,1,68,0,NA,0,1,3.72,NA
"1629","24","false_80",69,1,69,0,NA,100,1,5.875,NA
"1630","24","false_80",70,1,70,0,NA,7,1,3.386,NA
"1631","24","false_90",71,1,71,0,NA,5,1,8.384,NA
"1632","24","false_90",72,1,72,0,NA,41,1,8.143,NA
"1633","24","false_90",73,1,73,0,NA,100,1,5.21,NA
"1634","24","false_90",74,1,74,0,NA,0,1,10.308,NA
"1635","24","false_90",75,1,75,0,NA,0,1,6.219,NA
"1636","24","true_70",76,1,76,0,NA,57,1,9.849,NA
"1637","24","true_70",77,1,77,0,NA,83,1,3.504,NA
"1638","24","true_70",78,1,78,0,NA,52,1,2.565,NA
"1639","24","true_70",79,1,79,0,NA,60,1,3.875,NA
"1640","24","true_70",80,1,80,0,NA,85,1,7.609,NA
"1641","24","true_80",81,1,81,0,NA,8,1,1.894,NA
"1642","24","true_80",82,1,82,0,NA,100,1,9.99,NA
"1643","24","true_80",83,1,83,0,NA,90,1,13.785,NA
"1644","24","true_80",84,1,84,0,NA,93,1,1.673,NA
"1645","24","true_80",85,1,85,0,NA,59,1,3.841,NA
"1646","24","true_90",86,1,86,0,NA,31,1,6.604,NA
"1647","24","true_90",87,1,87,0,NA,95,1,3.254,NA
"1648","24","true_90",88,1,88,0,NA,100,1,11.468,NA
"1649","24","true_90",89,1,89,0,NA,95,1,5.346,NA
"1650","24","true_90",90,1,90,0,NA,100,1,8.819,NA
"1651","24","false_70",91,1,91,0,NA,0,0,7.153,NA
"1652","24","false_70",92,1,92,0,NA,65,0,1.81,NA
"1653","24","false_70",93,1,93,0,NA,66,0,3.879,NA
"1654","24","false_70",94,1,94,0,NA,38,0,6.753,NA
"1655","24","false_70",95,1,95,0,NA,24,0,1.746,NA
"1656","24","false_80",96,1,96,0,NA,27,0,6.117,NA
"1657","24","false_80",97,1,97,0,NA,13,0,8.603,NA
"1658","24","false_80",98,1,98,0,NA,18,0,33.002,NA
"1659","24","false_80",99,1,99,0,NA,13,0,22.838,NA
"1660","24","false_80",100,1,100,0,NA,25,0,4.264,NA
"1661","24","false_90",101,1,101,0,NA,7,0,6.611,NA
"1662","24","false_90",102,1,102,0,NA,0,0,6.779,NA
"1663","24","false_90",103,1,103,0,NA,0,0,10.204,NA
"1664","24","false_90",104,1,104,0,NA,31,0,11.766,NA
"1665","24","false_90",105,1,105,0,NA,0,0,5.286,NA
"1666","24","true_70",106,1,106,0,NA,11,0,31.991,NA
"1667","24","true_70",107,1,107,0,NA,59,0,16.267,NA
"1668","24","true_70",108,1,108,0,NA,65,0,2.096,NA
"1669","24","true_70",109,1,109,0,NA,93,0,15.309,NA
"1670","24","true_70",110,1,110,0,NA,75,0,15.302,NA
"1671","24","true_80",111,1,111,0,NA,76,0,3.91,NA
"1672","24","true_80",112,1,112,0,NA,75,0,8.001,NA
"1673","24","true_80",113,1,113,0,NA,86,0,34.665,NA
"1674","24","true_80",114,1,114,0,NA,88,0,6.645,NA
"1675","24","true_80",115,1,115,0,NA,82,0,2.823,NA
"1676","24","true_90",116,1,116,0,NA,100,0,13.172,NA
"1677","24","true_90",117,1,117,0,NA,86,0,6.497,NA
"1678","24","true_90",118,1,118,0,NA,88,0,4.048,NA
"1679","24","true_90",119,1,119,0,NA,100,0,4.32,NA
"1680","24","true_90",120,1,120,0,NA,97,0,8.439,NA
"1681","29","false_70",1,1,1,1,NA,95,1,5.61,NA
"1682","29","false_70",2,1,2,1,NA,42,1,1.452,NA
"1683","29","false_70",3,1,3,1,NA,69,1,5.327,NA
"1684","29","false_70",4,1,4,1,NA,72,1,1.203,NA
"1685","29","false_70",5,1,5,1,NA,72,1,8.81,NA
"1686","29","false_80",6,1,6,1,NA,3,1,12.162,NA
"1687","29","false_80",7,1,7,1,NA,57,1,2.661,NA
"1688","29","false_80",8,1,8,1,NA,57,1,1.768,NA
"1689","29","false_80",9,1,9,1,NA,8,1,13.545,NA
"1690","29","false_80",10,1,10,1,NA,22,1,4.648,NA
"1691","29","false_90",11,1,11,1,NA,21,1,3.706,NA
"1692","29","false_90",12,1,12,1,NA,15,1,3.67,NA
"1693","29","false_90",13,1,13,1,NA,63,1,1.3,NA
"1694","29","false_90",14,1,14,1,NA,65,1,1.518,NA
"1695","29","false_90",15,1,15,1,NA,32,1,8.448,NA
"1696","29","true_70",16,1,16,1,NA,65,1,4.097,NA
"1697","29","true_70",17,1,17,1,NA,38,1,1.284,NA
"1698","29","true_70",18,1,18,1,NA,65,1,1.471,NA
"1699","29","true_70",19,1,19,1,NA,75,1,3.236,NA
"1700","29","true_70",20,1,20,1,NA,78,1,4.889,NA
"1701","29","true_80",21,1,21,1,NA,60,1,1.887,NA
"1702","29","true_80",22,1,22,1,NA,60,1,1.217,NA
"1703","29","true_80",23,1,23,1,NA,64,1,1.335,NA
"1704","29","true_80",24,1,24,1,NA,61,1,3.098,NA
"1705","29","true_80",25,1,25,1,NA,38,1,2.406,NA
"1706","29","true_90",26,1,26,1,NA,93,1,6.342,NA
"1707","29","true_90",27,1,27,1,NA,99,1,6.895,NA
"1708","29","true_90",28,1,28,1,NA,41,1,2.522,NA
"1709","29","true_90",29,1,29,1,NA,21,1,4.749,NA
"1710","29","true_90",30,1,30,1,NA,65,1,2.851,NA
"1711","29","false_70",31,1,31,1,NA,67,0,4.243,NA
"1712","29","false_70",32,1,32,1,NA,0,0,6.818,NA
"1713","29","false_70",33,1,33,1,NA,0,0,7.536,NA
"1714","29","false_70",34,1,34,1,NA,67,0,2.567,NA
"1715","29","false_70",35,1,35,1,NA,72,0,5.701,NA
"1716","29","false_80",36,1,36,1,NA,37,0,2.212,NA
"1717","29","false_80",37,1,37,1,NA,62,0,6.028,NA
"1718","29","false_80",38,1,38,1,NA,100,0,10.225,NA
"1719","29","false_80",39,1,39,1,NA,10,0,1.465,NA
"1720","29","false_80",40,1,40,1,NA,82,0,8.799,NA
"1721","29","false_90",41,1,41,1,NA,67,0,1.547,NA
"1722","29","false_90",42,1,42,1,NA,70,0,4.027,NA
"1723","29","false_90",43,1,43,1,NA,82,0,8.961,NA
"1724","29","false_90",44,1,44,1,NA,67,0,1.423,NA
"1725","29","false_90",45,1,45,1,NA,41,0,1.714,NA
"1726","29","true_70",46,1,46,1,NA,40,0,1.112,NA
"1727","29","true_70",47,1,47,1,NA,60,0,1.424,NA
"1728","29","true_70",48,1,48,1,NA,96,0,7.576,NA
"1729","29","true_70",49,1,49,1,NA,22,0,4.778,NA
"1730","29","true_70",50,1,50,1,NA,100,0,8.114,NA
"1731","29","true_80",51,1,51,1,NA,35,0,1.351,NA
"1732","29","true_80",52,1,52,1,NA,69,0,2.03,NA
"1733","29","true_80",53,1,53,1,NA,91,0,4.991,NA
"1734","29","true_80",54,1,54,1,NA,25,0,1.574,NA
"1735","29","true_80",55,1,55,1,NA,63,0,10.377,NA
"1736","29","true_90",56,1,56,1,NA,91,0,4.115,NA
"1737","29","true_90",57,1,57,1,NA,11,0,3.595,NA
"1738","29","true_90",58,1,58,1,NA,100,0,7.525,NA
"1739","29","true_90",59,1,59,1,NA,6,0,5.618,NA
"1740","29","true_90",60,1,60,1,NA,86,0,4.334,NA
"1741","29","false_70",61,1,61,0,NA,60,1,3.779,NA
"1742","29","false_70",62,1,62,0,NA,41,1,1.33,NA
"1743","29","false_70",63,1,63,0,NA,58,1,1.484,NA
"1744","29","false_70",64,1,64,0,NA,33,1,9.587,NA
"1745","29","false_70",65,1,65,0,NA,85,1,7.169,NA
"1746","29","false_80",66,1,66,0,NA,17,1,6.201,NA
"1747","29","false_80",67,1,67,0,NA,17,1,4.676,NA
"1748","29","false_80",68,1,68,0,NA,20,1,1.425,NA
"1749","29","false_80",69,1,69,0,NA,74,1,3.664,NA
"1750","29","false_80",70,1,70,0,NA,70,1,1.607,NA
"1751","29","false_90",71,1,71,0,NA,80,1,3.714,NA
"1752","29","false_90",72,1,72,0,NA,73,1,4.786,NA
"1753","29","false_90",73,1,73,0,NA,25,1,4.139,NA
"1754","29","false_90",74,1,74,0,NA,74,1,1.318,NA
"1755","29","false_90",75,1,75,0,NA,14,1,4.18,NA
"1756","29","true_70",76,1,76,0,NA,39,1,1.588,NA
"1757","29","true_70",77,1,77,0,NA,63,1,3.235,NA
"1758","29","true_70",78,1,78,0,NA,67,1,1.34,NA
"1759","29","true_70",79,1,79,0,NA,0,1,7.431,NA
"1760","29","true_70",80,1,80,0,NA,70,1,3.186,NA
"1761","29","true_80",81,1,81,0,NA,42,1,1.364,NA
"1762","29","true_80",82,1,82,0,NA,57,1,1.349,NA
"1763","29","true_80",83,1,83,0,NA,36,1,1.36,NA
"1764","29","true_80",84,1,84,0,NA,78,1,4.07,NA
"1765","29","true_80",85,1,85,0,NA,38,1,1.615,NA
"1766","29","true_90",86,1,86,0,NA,100,1,5.497,NA
"1767","29","true_90",87,1,87,0,NA,58,1,2.39,NA
"1768","29","true_90",88,1,88,0,NA,57,1,2.543,NA
"1769","29","true_90",89,1,89,0,NA,75,1,5.155,NA
"1770","29","true_90",90,1,90,0,NA,0,1,7.762,NA
"1771","29","false_70",91,1,91,0,NA,61,0,1.779,NA
"1772","29","false_70",92,1,92,0,NA,13,0,5.01,NA
"1773","29","false_70",93,1,93,0,NA,39,0,1.202,NA
"1774","29","false_70",94,1,94,0,NA,41,0,4.251,NA
"1775","29","false_70",95,1,95,0,NA,71,0,1.574,NA
"1776","29","false_80",96,1,96,0,NA,35,0,1.532,NA
"1777","29","false_80",97,1,97,0,NA,74,0,1.561,NA
"1778","29","false_80",98,1,98,0,NA,63,0,1.356,NA
"1779","29","false_80",99,1,99,0,NA,70,0,4.733,NA
"1780","29","false_80",100,1,100,0,NA,72,0,13.337,NA
"1781","29","false_90",101,1,101,0,NA,13,0,4.624,NA
"1782","29","false_90",102,1,102,0,NA,43,0,4.398,NA
"1783","29","false_90",103,1,103,0,NA,61,0,4.04,NA
"1784","29","false_90",104,1,104,0,NA,41,0,1.964,NA
"1785","29","false_90",105,1,105,0,NA,40,0,1.179,NA
"1786","29","true_70",106,1,106,0,NA,78,0,3.369,NA
"1787","29","true_70",107,1,107,0,NA,81,0,8.364,NA
"1788","29","true_70",108,1,108,0,NA,34,0,3.81,NA
"1789","29","true_70",109,1,109,0,NA,14,0,9.153,NA
"1790","29","true_70",110,1,110,0,NA,41,0,2.557,NA
"1791","29","true_80",111,1,111,0,NA,69,0,1.672,NA
"1792","29","true_80",112,1,112,0,NA,100,0,7.024,NA
"1793","29","true_80",113,1,113,0,NA,74,0,3.47,NA
"1794","29","true_80",114,1,114,0,NA,44,0,2.444,NA
"1795","29","true_80",115,1,115,0,NA,73,0,5.643,NA
"1796","29","true_90",116,1,116,0,NA,41,0,2.096,NA
"1797","29","true_90",117,1,117,0,NA,55,0,2.191,NA
"1798","29","true_90",118,1,118,0,NA,70,0,14.404,NA
"1799","29","true_90",119,1,119,0,NA,41,0,1.408,NA
"1800","29","true_90",120,1,120,0,NA,75,0,2.879,NA
"1801","34","false_70",1,1,1,1,NA,0,1,3.999,NA
"1802","34","false_70",2,1,2,1,NA,40,1,4.587,NA
"1803","34","false_70",3,1,3,1,NA,21,1,7.306,NA
"1804","34","false_70",4,1,4,1,NA,64,1,7.248,NA
"1805","34","false_70",5,1,5,1,NA,4,1,7.362,NA
"1806","34","false_80",6,1,6,1,NA,6,1,16.094,NA
"1807","34","false_80",7,1,7,1,NA,0,1,7.635,NA
"1808","34","false_80",8,1,8,1,NA,25,1,6.872,NA
"1809","34","false_80",9,1,9,1,NA,21,1,4.945,NA
"1810","34","false_80",10,1,10,1,NA,36,1,3.862,NA
"1811","34","false_90",11,1,11,1,NA,15,1,9.495,NA
"1812","34","false_90",12,1,12,1,NA,28,1,3.874,NA
"1813","34","false_90",13,1,13,1,NA,17,1,4.718,NA
"1814","34","false_90",14,1,14,1,NA,6,1,6.541,NA
"1815","34","false_90",15,1,15,1,NA,16,1,11.344,NA
"1816","34","true_70",16,1,16,1,NA,51,1,17.438,NA
"1817","34","true_70",17,1,17,1,NA,59,1,4.14,NA
"1818","34","true_70",18,1,18,1,NA,89,1,9.159,NA
"1819","34","true_70",19,1,19,1,NA,24,1,10.895,NA
"1820","34","true_70",20,1,20,1,NA,98,1,12.341,NA
"1821","34","true_80",21,1,21,1,NA,97,1,9.079,NA
"1822","34","true_80",22,1,22,1,NA,70,1,6.094,NA
"1823","34","true_80",23,1,23,1,NA,27,1,6.923,NA
"1824","34","true_80",24,1,24,1,NA,100,1,7.282,NA
"1825","34","true_80",25,1,25,1,NA,65,1,3.248,NA
"1826","34","true_90",26,1,26,1,NA,68,1,4.01,NA
"1827","34","true_90",27,1,27,1,NA,100,1,5.603,NA
"1828","34","true_90",28,1,28,1,NA,70,1,5.827,NA
"1829","34","true_90",29,1,29,1,NA,59,1,4.887,NA
"1830","34","true_90",30,1,30,1,NA,68,1,7.537,NA
"1831","34","false_70",31,1,31,1,NA,5,0,6.482,NA
"1832","34","false_70",32,1,32,1,NA,12,0,5.817,NA
"1833","34","false_70",33,1,33,1,NA,0,0,3.742,NA
"1834","34","false_70",34,1,34,1,NA,9,0,8.388,NA
"1835","34","false_70",35,1,35,1,NA,41,0,3.625,NA
"1836","34","false_80",36,1,36,1,NA,0,0,11.899,NA
"1837","34","false_80",37,1,37,1,NA,82,0,7.865,NA
"1838","34","false_80",38,1,38,1,NA,22,0,4.442,NA
"1839","34","false_80",39,1,39,1,NA,97,0,6.52,NA
"1840","34","false_80",40,1,40,1,NA,0,0,4.387,NA
"1841","34","false_90",41,1,41,1,NA,0,0,10.641,NA
"1842","34","false_90",42,1,42,1,NA,0,0,6.111,NA
"1843","34","false_90",43,1,43,1,NA,98,0,9.481,NA
"1844","34","false_90",44,1,44,1,NA,2,0,5.538,NA
"1845","34","false_90",45,1,45,1,NA,58,0,6.483,NA
"1846","34","true_70",46,1,46,1,NA,43,0,6.124,NA
"1847","34","true_70",47,1,47,1,NA,59,0,6.578,NA
"1848","34","true_70",48,1,48,1,NA,55,0,3.771,NA
"1849","34","true_70",49,1,49,1,NA,67,0,3.427,NA
"1850","34","true_70",50,1,50,1,NA,100,0,4.97,NA
"1851","34","true_80",51,1,51,1,NA,86,0,3.636,NA
"1852","34","true_80",52,1,52,1,NA,56,0,12.82,NA
"1853","34","true_80",53,1,53,1,NA,100,0,4.99,NA
"1854","34","true_80",54,1,54,1,NA,86,0,6.801,NA
"1855","34","true_80",55,1,55,1,NA,73,0,8.617,NA
"1856","34","true_90",56,1,56,1,NA,100,0,4.432,NA
"1857","34","true_90",57,1,57,1,NA,76,0,5.801,NA
"1858","34","true_90",58,1,58,1,NA,78,0,3.786,NA
"1859","34","true_90",59,1,59,1,NA,72,0,5.239,NA
"1860","34","true_90",60,1,60,1,NA,88,0,4.194,NA
"1861","34","false_70",61,1,61,0,NA,0,1,3.926,NA
"1862","34","false_70",62,1,62,0,NA,55,1,11.72,NA
"1863","34","false_70",63,1,63,0,NA,37,1,5.37,NA
"1864","34","false_70",64,1,64,0,NA,0,1,3.21,NA
"1865","34","false_70",65,1,65,0,NA,42,1,6.07,NA
"1866","34","false_80",66,1,66,0,NA,56,1,7.12,NA
"1867","34","false_80",67,1,67,0,NA,84,1,6.614,NA
"1868","34","false_80",68,1,68,0,NA,42,1,11.466,NA
"1869","34","false_80",69,1,69,0,NA,86,1,12.321,NA
"1870","34","false_80",70,1,70,0,NA,0,1,9.169,NA
"1871","34","false_90",71,1,71,0,NA,14,1,3.701,NA
"1872","34","false_90",72,1,72,0,NA,18,1,5.07,NA
"1873","34","false_90",73,1,73,0,NA,27,1,6.322,NA
"1874","34","false_90",74,1,74,0,NA,38,1,4.568,NA
"1875","34","false_90",75,1,75,0,NA,100,1,5.677,NA
"1876","34","true_70",76,1,76,0,NA,0,1,5.825,NA
"1877","34","true_70",77,1,77,0,NA,92,1,6.21,NA
"1878","34","true_70",78,1,78,0,NA,100,1,6.485,NA
"1879","34","true_70",79,1,79,0,NA,43,1,12.701,NA
"1880","34","true_70",80,1,80,0,NA,4,1,6.982,NA
"1881","34","true_80",81,1,81,0,NA,0,1,6.644,NA
"1882","34","true_80",82,1,82,0,NA,86,1,4.358,NA
"1883","34","true_80",83,1,83,0,NA,0,1,6.327,NA
"1884","34","true_80",84,1,84,0,NA,78,1,4.241,NA
"1885","34","true_80",85,1,85,0,NA,67,1,4.882,NA
"1886","34","true_90",86,1,86,0,NA,84,1,8.509,NA
"1887","34","true_90",87,1,87,0,NA,100,1,4.158,NA
"1888","34","true_90",88,1,88,0,NA,99,1,14.359,NA
"1889","34","true_90",89,1,89,0,NA,91,1,6.247,NA
"1890","34","true_90",90,1,90,0,NA,59,1,3.966,NA
"1891","34","false_70",91,1,91,0,NA,53,0,4.552,NA
"1892","34","false_70",92,1,92,0,NA,70,0,11.615,NA
"1893","34","false_70",93,1,93,0,NA,4,0,6.598,NA
"1894","34","false_70",94,1,94,0,NA,27,0,3.899,NA
"1895","34","false_70",95,1,95,0,NA,38,0,4.96,NA
"1896","34","false_80",96,1,96,0,NA,2,0,6.341,NA
"1897","34","false_80",97,1,97,0,NA,11,0,11.538,NA
"1898","34","false_80",98,1,98,0,NA,0,0,8.88,NA
"1899","34","false_80",99,1,99,0,NA,38,0,3.959,NA
"1900","34","false_80",100,1,100,0,NA,39,0,3.526,NA
"1901","34","false_90",101,1,101,0,NA,31,0,4.841,NA
"1902","34","false_90",102,1,102,0,NA,73,0,15.051,NA
"1903","34","false_90",103,1,103,0,NA,16,0,7.219,NA
"1904","34","false_90",104,1,104,0,NA,17,0,3.997,NA
"1905","34","false_90",105,1,105,0,NA,25,0,5.955,NA
"1906","34","true_70",106,1,106,0,NA,100,0,5.173,NA
"1907","34","true_70",107,1,107,0,NA,25,0,5.74,NA
"1908","34","true_70",108,1,108,0,NA,72,0,4.575,NA
"1909","34","true_70",109,1,109,0,NA,56,0,4.751,NA
"1910","34","true_70",110,1,110,0,NA,33,0,5.063,NA
"1911","34","true_80",111,1,111,0,NA,70,0,3.599,NA
"1912","34","true_80",112,1,112,0,NA,61,0,6.046,NA
"1913","34","true_80",113,1,113,0,NA,100,0,5.607,NA
"1914","34","true_80",114,1,114,0,NA,72,0,4.062,NA
"1915","34","true_80",115,1,115,0,NA,78,0,5.491,NA
"1916","34","true_90",116,1,116,0,NA,95,0,3.881,NA
"1917","34","true_90",117,1,117,0,NA,94,0,4.826,NA
"1918","34","true_90",118,1,118,0,NA,65,0,3.256,NA
"1919","34","true_90",119,1,119,0,NA,100,0,14.164,NA
"1920","34","true_90",120,1,120,0,NA,78,0,7.984,NA
"1921","35","false_70",1,1,1,1,NA,50,1,13.43,NA
"1922","35","false_70",2,1,2,1,NA,46,1,10.581,NA
"1923","35","false_70",3,1,3,1,NA,26,1,16.981,NA
"1924","35","false_70",4,1,4,1,NA,39,1,5.913,NA
"1925","35","false_70",5,1,5,1,NA,85,1,36.015,NA
"1926","35","false_80",6,1,6,1,NA,54,1,17.087,NA
"1927","35","false_80",7,1,7,1,NA,46,1,18.314,NA
"1928","35","false_80",8,1,8,1,NA,53,1,10.058,NA
"1929","35","false_80",9,1,9,1,NA,45,1,12.798,NA
"1930","35","false_80",10,1,10,1,NA,16,1,14.47,NA
"1931","35","false_90",11,1,11,1,NA,46,1,10.248,NA
"1932","35","false_90",12,1,12,1,NA,3,1,31.01,NA
"1933","35","false_90",13,1,13,1,NA,47,1,3.709,NA
"1934","35","false_90",14,1,14,1,NA,45,1,2.928,NA
"1935","35","false_90",15,1,15,1,NA,99,1,47.233,NA
"1936","35","true_70",16,1,16,1,NA,45,1,60.134,NA
"1937","35","true_70",17,1,17,1,NA,45,1,10.621,NA
"1938","35","true_70",18,1,18,1,NA,71,1,22.766,NA
"1939","35","true_70",19,1,19,1,NA,48,1,16.511,NA
"1940","35","true_70",20,1,20,1,NA,47,1,9.117,NA
"1941","35","true_80",21,1,21,1,NA,97,1,14.229,NA
"1942","35","true_80",22,1,22,1,NA,58,1,24.459,NA
"1943","35","true_80",23,1,23,1,NA,55,1,15.401,NA
"1944","35","true_80",24,1,24,1,NA,52,1,11.3,NA
"1945","35","true_80",25,1,25,1,NA,71,1,3.572,NA
"1946","35","true_90",26,1,26,1,NA,65,1,22.011,NA
"1947","35","true_90",27,1,27,1,NA,46,1,5.463,NA
"1948","35","true_90",28,1,28,1,NA,99,1,15.969,NA
"1949","35","true_90",29,1,29,1,NA,99,1,8.083,NA
"1950","35","true_90",30,1,30,1,NA,45,1,4.34,NA
"1951","35","false_70",31,1,31,1,NA,100,0,18.795,NA
"1952","35","false_70",32,1,32,1,NA,46,0,10.474,NA
"1953","35","false_70",33,1,33,1,NA,11,0,24.045,NA
"1954","35","false_70",34,1,34,1,NA,46,0,3.583,NA
"1955","35","false_70",35,1,35,1,NA,42,0,3.125,NA
"1956","35","false_80",36,1,36,1,NA,63,0,4.788,NA
"1957","35","false_80",37,1,37,1,NA,25,0,24.113,NA
"1958","35","false_80",38,1,38,1,NA,7,0,14.732,NA
"1959","35","false_80",39,1,39,1,NA,32,0,35.726,NA
"1960","35","false_80",40,1,40,1,NA,48,0,27.695,NA
"1961","35","false_90",41,1,41,1,NA,56,0,18.091,NA
"1962","35","false_90",42,1,42,1,NA,95,0,14.628,NA
"1963","35","false_90",43,1,43,1,NA,52,0,17.656,NA
"1964","35","false_90",44,1,44,1,NA,56,0,57.811,NA
"1965","35","false_90",45,1,45,1,NA,71,0,12.008,NA
"1966","35","true_70",46,1,46,1,NA,48,0,5.719,NA
"1967","35","true_70",47,1,47,1,NA,53,0,16.375,NA
"1968","35","true_70",48,1,48,1,NA,44,0,9.149,NA
"1969","35","true_70",49,1,49,1,NA,75,0,14.586,NA
"1970","35","true_70",50,1,50,1,NA,61,0,5.684,NA
"1971","35","true_80",51,1,51,1,NA,55,0,21.95,NA
"1972","35","true_80",52,1,52,1,NA,50,0,14.922,NA
"1973","35","true_80",53,1,53,1,NA,48,0,6.432,NA
"1974","35","true_80",54,1,54,1,NA,58,0,4.562,NA
"1975","35","true_80",55,1,55,1,NA,53,0,26.198,NA
"1976","35","true_90",56,1,56,1,NA,58,0,5.321,NA
"1977","35","true_90",57,1,57,1,NA,76,0,16.423,NA
"1978","35","true_90",58,1,58,1,NA,99,0,19.958,NA
"1979","35","true_90",59,1,59,1,NA,47,0,48.128,NA
"1980","35","true_90",60,1,60,1,NA,48,0,7.459,NA
"1981","35","false_70",61,1,61,0,NA,54,1,21.705,NA
"1982","35","false_70",62,1,62,0,NA,48,1,17.661,NA
"1983","35","false_70",63,1,63,0,NA,48,1,4.24,NA
"1984","35","false_70",64,1,64,0,NA,55,1,15.918,NA
"1985","35","false_70",65,1,65,0,NA,50,1,2.686,NA
"1986","35","false_80",66,1,66,0,NA,80,1,20.515,NA
"1987","35","false_80",67,1,67,0,NA,48,1,7.954,NA
"1988","35","false_80",68,1,68,0,NA,45,1,6.385,NA
"1989","35","false_80",69,1,69,0,NA,48,1,14.912,NA
"1990","35","false_80",70,1,70,0,NA,40,1,5.501,NA
"1991","35","false_90",71,1,71,0,NA,1,1,31.473,NA
"1992","35","false_90",72,1,72,0,NA,65,1,32.086,NA
"1993","35","false_90",73,1,73,0,NA,47,1,8.905,NA
"1994","35","false_90",74,1,74,0,NA,39,1,12.49,NA
"1995","35","false_90",75,1,75,0,NA,45,1,18.564,NA
"1996","35","true_70",76,1,76,0,NA,60,1,10.892,NA
"1997","35","true_70",77,1,77,0,NA,56,1,3.094,NA
"1998","35","true_70",78,1,78,0,NA,44,1,6.002,NA
"1999","35","true_70",79,1,79,0,NA,79,1,28.238,NA
"2000","35","true_70",80,1,80,0,NA,48,1,6.334,NA
"2001","35","true_80",81,1,81,0,NA,48,1,10.344,NA
"2002","35","true_80",82,1,82,0,NA,53,1,6.758,NA
"2003","35","true_80",83,1,83,0,NA,47,1,10.107,NA
"2004","35","true_80",84,1,84,0,NA,46,1,4.362,NA
"2005","35","true_80",85,1,85,0,NA,95,1,9.624,NA
"2006","35","true_90",86,1,86,0,NA,48,1,30.662,NA
"2007","35","true_90",87,1,87,0,NA,48,1,4.007,NA
"2008","35","true_90",88,1,88,0,NA,55,1,5.569,NA
"2009","35","true_90",89,1,89,0,NA,46,1,13.123,NA
"2010","35","true_90",90,1,90,0,NA,91,1,13.369,NA
"2011","35","false_70",91,1,91,0,NA,69,0,19.184,NA
"2012","35","false_70",92,1,92,0,NA,42,0,4.045,NA
"2013","35","false_70",93,1,93,0,NA,4,0,12.613,NA
"2014","35","false_70",94,1,94,0,NA,0,0,26.4,NA
"2015","35","false_70",95,1,95,0,NA,45,0,3.819,NA
"2016","35","false_80",96,1,96,0,NA,48,0,22.056,NA
"2017","35","false_80",97,1,97,0,NA,52,0,7.528,NA
"2018","35","false_80",98,1,98,0,NA,47,0,6.693,NA
"2019","35","false_80",99,1,99,0,NA,54,0,9.324,NA
"2020","35","false_80",100,1,100,0,NA,53,0,4.076,NA
"2021","35","false_90",101,1,101,0,NA,40,0,33.379,NA
"2022","35","false_90",102,1,102,0,NA,48,0,8.012,NA
"2023","35","false_90",103,1,103,0,NA,66,0,4.181,NA
"2024","35","false_90",104,1,104,0,NA,45,0,5.515,NA
"2025","35","false_90",105,1,105,0,NA,47,0,20.388,NA
"2026","35","true_70",106,1,106,0,NA,44,0,10.712,NA
"2027","35","true_70",107,1,107,0,NA,45,0,4.713,NA
"2028","35","true_70",108,1,108,0,NA,46,0,15.977,NA
"2029","35","true_70",109,1,109,0,NA,39,0,10.551,NA
"2030","35","true_70",110,1,110,0,NA,49,0,4.386,NA
"2031","35","true_80",111,1,111,0,NA,47,0,5.862,NA
"2032","35","true_80",112,1,112,0,NA,46,0,4.733,NA
"2033","35","true_80",113,1,113,0,NA,56,0,18.668,NA
"2034","35","true_80",114,1,114,0,NA,56,0,16.916,NA
"2035","35","true_80",115,1,115,0,NA,75,0,5.794,NA
"2036","35","true_90",116,1,116,0,NA,47,0,24.897,NA
"2037","35","true_90",117,1,117,0,NA,53,0,7.925,NA
"2038","35","true_90",118,1,118,0,NA,60,0,7.99,NA
