"","subject","within_identifier","statement_identifier","presentation_identifier","statement_number","statement_accuracy","statement_text","response","repeated","rt","trial"
"1","5","true_50",1,1,1,1,NA,28,1,4.909,NA
"2","5","true_50",2,1,2,1,NA,68,1,5.302,NA
"3","5","true_50",3,1,3,1,NA,67,1,4.441,NA
"4","5","true_50",4,1,4,1,NA,77,1,5.948,NA
"5","5","true_50",5,1,5,1,NA,26,1,16.718,NA
"6","5","true_60",6,1,6,1,NA,92,1,7.236,NA
"7","5","true_60",7,1,7,1,NA,100,1,6.426,NA
"8","5","true_60",8,1,8,1,NA,68,1,10.785,NA
"9","5","true_60",9,1,9,1,NA,100,1,4.569,NA
"10","5","true_60",10,1,10,1,NA,33,1,5.014,NA
"11","5","true_70",11,1,11,1,NA,100,1,3.961,NA
"12","5","true_70",12,1,12,1,NA,69,1,7.853,NA
"13","5","true_70",13,1,13,1,NA,100,1,5.508,NA
"14","5","true_70",14,1,14,1,NA,97,1,5.188,NA
"15","5","true_70",15,1,15,1,NA,86,1,13.535,NA
"16","5","false_50",16,1,16,1,NA,76,1,5.353,NA
"17","5","false_50",17,1,17,1,NA,86,1,5.438,NA
"18","5","false_50",18,1,18,1,NA,25,1,7.058,NA
"19","5","false_50",19,1,19,1,NA,100,1,9.048,NA
"20","5","false_50",20,1,20,1,NA,100,1,4.394,NA
"21","5","false_60",21,1,21,1,NA,21,1,5.792,NA
"22","5","false_60",22,1,22,1,NA,76,1,7.079,NA
"23","5","false_60",23,1,23,1,NA,31,1,14.822,NA
"24","5","false_60",24,1,24,1,NA,100,1,7.652,NA
"25","5","false_60",25,1,25,1,NA,100,1,4.585,NA
"26","5","false_70",26,1,26,1,NA,100,1,6.098,NA
"27","5","false_70",27,1,27,1,NA,29,1,5.971,NA
"28","5","false_70",28,1,28,1,NA,75,1,5.839,NA
"29","5","false_70",29,1,29,1,NA,100,1,3.866,NA
"30","5","false_70",30,1,30,1,NA,78,1,6.67,NA
"31","5","true_50",31,1,31,1,NA,74,0,9.019,NA
"32","5","true_50",32,1,32,1,NA,30,0,8.221,NA
"33","5","true_50",33,1,33,1,NA,100,0,5.023,NA
"34","5","true_50",34,1,34,1,NA,93,0,6.827,NA
"35","5","true_50",35,1,35,1,NA,25,0,10.472,NA
"36","5","true_60",36,1,36,1,NA,15,0,14.547,NA
"37","5","true_60",37,1,37,1,NA,96,0,5.369,NA
"38","5","true_60",38,1,38,1,NA,30,0,4.525,NA
"39","5","true_60",39,1,39,1,NA,26,0,24.95,NA
"40","5","true_60",40,1,40,1,NA,70,0,8.59,NA
"41","5","true_70",41,1,41,1,NA,88,0,6.218,NA
"42","5","true_70",42,1,42,1,NA,70,0,7.001,NA
"43","5","true_70",43,1,43,1,NA,77,0,6.125,NA
"44","5","true_70",44,1,44,1,NA,78,0,8.158,NA
"45","5","true_70",45,1,45,1,NA,30,0,8.83,NA
"46","5","false_50",46,1,46,1,NA,73,0,5.97,NA
"47","5","false_50",47,1,47,1,NA,24,0,6.106,NA
"48","5","false_50",48,1,48,1,NA,30,0,4.191,NA
"49","5","false_50",49,1,49,1,NA,72,0,7.303,NA
"50","5","false_50",50,1,50,1,NA,75,0,8.757,NA
"51","5","false_60",51,1,51,1,NA,83,0,5.812,NA
"52","5","false_60",52,1,52,1,NA,28,0,10.381,NA
"53","5","false_60",53,1,53,1,NA,86,0,8.43,NA
"54","5","false_60",54,1,54,1,NA,32,0,7.816,NA
"55","5","false_60",55,1,55,1,NA,28,0,8.365,NA
"56","5","false_70",56,1,56,1,NA,22,0,6.491,NA
"57","5","false_70",57,1,57,1,NA,74,0,6.917,NA
"58","5","false_70",58,1,58,1,NA,31,0,5.188,NA
"59","5","false_70",59,1,59,1,NA,12,0,6.156,NA
"60","5","false_70",60,1,60,1,NA,26,0,7.158,NA
"61","5","true_50",61,1,61,0,NA,80,1,4.557,NA
"62","5","true_50",62,1,62,0,NA,82,1,8.208,NA
"63","5","true_50",63,1,63,0,NA,23,1,8.162,NA
"64","5","true_50",64,1,64,0,NA,66,1,9.715,NA
"65","5","true_50",65,1,65,0,NA,31,1,6.51,NA
"66","5","true_60",66,1,66,0,NA,100,1,3.876,NA
"67","5","true_60",67,1,67,0,NA,100,1,5.458,NA
"68","5","true_60",68,1,68,0,NA,85,1,6.678,NA
"69","5","true_60",69,1,69,0,NA,70,1,9.75,NA
"70","5","true_60",70,1,70,0,NA,34,1,7.001,NA
"71","5","true_70",71,1,71,0,NA,73,1,4.864,NA
"72","5","true_70",72,1,72,0,NA,27,1,7.047,NA
"73","5","true_70",73,1,73,0,NA,30,1,8.492,NA
"74","5","true_70",74,1,74,0,NA,100,1,5.145,NA
"75","5","true_70",75,1,75,0,NA,23,1,7.323,NA
"76","5","false_50",76,1,76,0,NA,78,1,6.245,NA
"77","5","false_50",77,1,77,0,NA,66,1,6.689,NA
"78","5","false_50",78,1,78,0,NA,100,1,3.975,NA
"79","5","false_50",79,1,79,0,NA,100,1,6.724,NA
"80","5","false_50",80,1,80,0,NA,100,1,7.738,NA
"81","5","false_60",81,1,81,0,NA,100,1,3.562,NA
"82","5","false_60",82,1,82,0,NA,94,1,5.445,NA
"83","5","false_60",83,1,83,0,NA,24,1,10.862,NA
"84","5","false_60",84,1,84,0,NA,73,1,5.134,NA
"85","5","false_60",85,1,85,0,NA,100,1,6.297,NA
"86","5","false_70",86,1,86,0,NA,100,1,4.52,NA
"87","5","false_70",87,1,87,0,NA,23,1,6.794,NA
"88","5","false_70",88,1,88,0,NA,74,1,12.167,NA
"89","5","false_70",89,1,89,0,NA,100,1,4.769,NA
"90","5","false_70",90,1,90,0,NA,100,1,6.422,NA
"91","5","true_50",91,1,91,0,NA,21,0,7.404,NA
"92","5","true_50",92,1,92,0,NA,94,0,7.23,NA
"93","5","true_50",93,1,93,0,NA,27,0,6.761,NA
"94","5","true_50",94,1,94,0,NA,29,0,6.816,NA
"95","5","true_50",95,1,95,0,NA,29,0,4.778,NA
"96","5","true_60",96,1,96,0,NA,12,0,4.639,NA
"97","5","true_60",97,1,97,0,NA,13,0,7.192,NA
"98","5","true_60",98,1,98,0,NA,91,0,15.707,NA
"99","5","true_60",99,1,99,0,NA,100,0,8.509,NA
"100","5","true_60",100,1,100,0,NA,68,0,10.601,NA
"101","5","true_70",101,1,101,0,NA,25,0,8.345,NA
"102","5","true_70",102,1,102,0,NA,79,0,6.949,NA
"103","5","true_70",103,1,103,0,NA,64,0,7.225,NA
"104","5","true_70",104,1,104,0,NA,81,0,7.866,NA
"105","5","true_70",105,1,105,0,NA,24,0,7,NA
"106","5","false_50",106,1,106,0,NA,76,0,6.735,NA
"107","5","false_50",107,1,107,0,NA,26,0,6.574,NA
"108","5","false_50",108,1,108,0,NA,22,0,6.061,NA
"109","5","false_50",109,1,109,0,NA,15,0,18.538,NA
"110","5","false_50",110,1,110,0,NA,28,0,6.067,NA
"111","5","false_60",111,1,111,0,NA,80,0,7.719,NA
"112","5","false_60",112,1,112,0,NA,19,0,8.651,NA
"113","5","false_60",113,1,113,0,NA,24,0,6.757,NA
"114","5","false_60",114,1,114,0,NA,26,0,7.952,NA
"115","5","false_60",115,1,115,0,NA,77,0,7.85,NA
"116","5","false_70",116,1,116,0,NA,0,0,14.024,NA
"117","5","false_70",117,1,117,0,NA,73,0,7.822,NA
"118","5","false_70",118,1,118,0,NA,92,0,11.645,NA
"119","5","false_70",119,1,119,0,NA,91,0,16.842,NA
"120","5","false_70",120,1,120,0,NA,30,0,5.856,NA
"121","13","true_50",1,1,1,1,NA,76,1,4.717,NA
"122","13","true_50",2,1,2,1,NA,58,1,8.238,NA
"123","13","true_50",3,1,3,1,NA,51,1,5.358,NA
"124","13","true_50",4,1,4,1,NA,58,1,6.077,NA
"125","13","true_50",5,1,5,1,NA,57,1,5.249,NA
"126","13","true_60",6,1,6,1,NA,34,1,5.962,NA
"127","13","true_60",7,1,7,1,NA,29,1,10.351,NA
"128","13","true_60",8,1,8,1,NA,59,1,8.96,NA
"129","13","true_60",9,1,9,1,NA,38,1,8.822,NA
"130","13","true_60",10,1,10,1,NA,66,1,9.997,NA
"131","13","true_70",11,1,11,1,NA,54,1,5.686,NA
"132","13","true_70",12,1,12,1,NA,70,1,5.201,NA
"133","13","true_70",13,1,13,1,NA,97,1,7.137,NA
"134","13","true_70",14,1,14,1,NA,57,1,11.905,NA
"135","13","true_70",15,1,15,1,NA,83,1,8.809,NA
"136","13","false_50",16,1,16,1,NA,36,1,6.824,NA
"137","13","false_50",17,1,17,1,NA,0,1,6.197,NA
"138","13","false_50",18,1,18,1,NA,29,1,7.912,NA
"139","13","false_50",19,1,19,1,NA,92,1,6.319,NA
"140","13","false_50",20,1,20,1,NA,66,1,6.305,NA
"141","13","false_60",21,1,21,1,NA,90,1,8.655,NA
"142","13","false_60",22,1,22,1,NA,12,1,4.768,NA
"143","13","false_60",23,1,23,1,NA,12,1,14.496,NA
"144","13","false_60",24,1,24,1,NA,73,1,3.763,NA
"145","13","false_60",25,1,25,1,NA,0,1,7.198,NA
"146","13","false_70",26,1,26,1,NA,100,1,6.61,NA
"147","13","false_70",27,1,27,1,NA,0,1,5.901,NA
"148","13","false_70",28,1,28,1,NA,99,1,7.611,NA
"149","13","false_70",29,1,29,1,NA,53,1,12.873,NA
"150","13","false_70",30,1,30,1,NA,36,1,5.387,NA
"151","13","true_50",31,1,31,1,NA,100,0,6.207,NA
"152","13","true_50",32,1,32,1,NA,56,0,6.573,NA
"153","13","true_50",33,1,33,1,NA,84,0,10.217,NA
"154","13","true_50",34,1,34,1,NA,82,0,10.596,NA
"155","13","true_50",35,1,35,1,NA,53,0,8.705,NA
"156","13","true_60",36,1,36,1,NA,67,0,4.961,NA
"157","13","true_60",37,1,37,1,NA,8,0,9.798,NA
"158","13","true_60",38,1,38,1,NA,92,0,7.882,NA
"159","13","true_60",39,1,39,1,NA,37,0,7.328,NA
"160","13","true_60",40,1,40,1,NA,77,0,6.525,NA
"161","13","true_70",41,1,41,1,NA,60,0,11.264,NA
"162","13","true_70",42,1,42,1,NA,100,0,9.034,NA
"163","13","true_70",43,1,43,1,NA,38,0,9.265,NA
"164","13","true_70",44,1,44,1,NA,65,0,7.318,NA
"165","13","true_70",45,1,45,1,NA,38,0,13.085,NA
"166","13","false_50",46,1,46,1,NA,16,0,5.558,NA
"167","13","false_50",47,1,47,1,NA,8,0,8.519,NA
"168","13","false_50",48,1,48,1,NA,75,0,7.04,NA
"169","13","false_50",49,1,49,1,NA,44,0,7.219,NA
"170","13","false_50",50,1,50,1,NA,100,0,7.979,NA
"171","13","false_60",51,1,51,1,NA,52,0,11.362,NA
"172","13","false_60",52,1,52,1,NA,81,0,11.104,NA
"173","13","false_60",53,1,53,1,NA,100,0,5.598,NA
"174","13","false_60",54,1,54,1,NA,1,0,8.603,NA
"175","13","false_60",55,1,55,1,NA,37,0,8.831,NA
"176","13","false_70",56,1,56,1,NA,42,0,13.121,NA
"177","13","false_70",57,1,57,1,NA,62,0,12.273,NA
"178","13","false_70",58,1,58,1,NA,52,0,10.829,NA
"179","13","false_70",59,1,59,1,NA,21,0,5.678,NA
"180","13","false_70",60,1,60,1,NA,61,0,8.667,NA
"181","13","true_50",61,1,61,0,NA,43,1,9.009,NA
"182","13","true_50",62,1,62,0,NA,53,1,8.374,NA
"183","13","true_50",63,1,63,0,NA,41,1,5.956,NA
"184","13","true_50",64,1,64,0,NA,34,1,6.356,NA
"185","13","true_50",65,1,65,0,NA,45,1,7.289,NA
"186","13","true_60",66,1,66,0,NA,55,1,7.518,NA
"187","13","true_60",67,1,67,0,NA,29,1,6.536,NA
"188","13","true_60",68,1,68,0,NA,60,1,8.485,NA
"189","13","true_60",69,1,69,0,NA,55,1,5.614,NA
"190","13","true_60",70,1,70,0,NA,58,1,6.638,NA
"191","13","true_70",71,1,71,0,NA,70,1,12.285,NA
"192","13","true_70",72,1,72,0,NA,100,1,5.752,NA
"193","13","true_70",73,1,73,0,NA,96,1,6.579,NA
"194","13","true_70",74,1,74,0,NA,38,1,13.005,NA
"195","13","true_70",75,1,75,0,NA,57,1,6.091,NA
"196","13","false_50",76,1,76,0,NA,37,1,8.295,NA
"197","13","false_50",77,1,77,0,NA,100,1,6.28,NA
"198","13","false_50",78,1,78,0,NA,41,1,6.138,NA
"199","13","false_50",79,1,79,0,NA,60,1,7.032,NA
"200","13","false_50",80,1,80,0,NA,21,1,5.079,NA
"201","13","false_60",81,1,81,0,NA,1,1,7.223,NA
"202","13","false_60",82,1,82,0,NA,43,1,8.774,NA
"203","13","false_60",83,1,83,0,NA,53,1,4.43,NA
"204","13","false_60",84,1,84,0,NA,16,1,9.998,NA
"205","13","false_60",85,1,85,0,NA,0,1,17.125,NA
"206","13","false_70",86,1,86,0,NA,20,1,6.493,NA
"207","13","false_70",87,1,87,0,NA,0,1,45.384,NA
"208","13","false_70",88,1,88,0,NA,13,1,8.673,NA
"209","13","false_70",89,1,89,0,NA,28,1,9.771,NA
"210","13","false_70",90,1,90,0,NA,34,1,15.14,NA
"211","13","true_50",91,1,91,0,NA,65,0,12.146,NA
"212","13","true_50",92,1,92,0,NA,30,0,5.083,NA
"213","13","true_50",93,1,93,0,NA,39,0,5.391,NA
"214","13","true_50",94,1,94,0,NA,79,0,7.467,NA
"215","13","true_50",95,1,95,0,NA,16,0,10.296,NA
"216","13","true_60",96,1,96,0,NA,83,0,6.291,NA
"217","13","true_60",97,1,97,0,NA,33,0,9.422,NA
"218","13","true_60",98,1,98,0,NA,82,0,6.883,NA
"219","13","true_60",99,1,99,0,NA,44,0,8.177,NA
"220","13","true_60",100,1,100,0,NA,100,0,9.007,NA
"221","13","true_70",101,1,101,0,NA,81,0,8.481,NA
"222","13","true_70",102,1,102,0,NA,36,0,27.088,NA
"223","13","true_70",103,1,103,0,NA,35,0,5.897,NA
"224","13","true_70",104,1,104,0,NA,91,0,11.18,NA
"225","13","true_70",105,1,105,0,NA,100,0,9.525,NA
"226","13","false_50",106,1,106,0,NA,2,0,16.485,NA
"227","13","false_50",107,1,107,0,NA,54,0,8.42,NA
"228","13","false_50",108,1,108,0,NA,56,0,17.568,NA
"229","13","false_50",109,1,109,0,NA,19,0,5.665,NA
"230","13","false_50",110,1,110,0,NA,48,0,7.648,NA
"231","13","false_60",111,1,111,0,NA,19,0,7.084,NA
"232","13","false_60",112,1,112,0,NA,40,0,33.2,NA
"233","13","false_60",113,1,113,0,NA,58,0,6.325,NA
"234","13","false_60",114,1,114,0,NA,26,0,7.808,NA
"235","13","false_60",115,1,115,0,NA,46,0,6.925,NA
"236","13","false_70",116,1,116,0,NA,25,0,9.805,NA
"237","13","false_70",117,1,117,0,NA,14,0,12.197,NA
"238","13","false_70",118,1,118,0,NA,93,0,8.935,NA
"239","13","false_70",119,1,119,0,NA,1,0,7.874,NA
"240","13","false_70",120,1,120,0,NA,11,0,6.592,NA
"241","22","true_50",1,1,1,1,NA,92,1,6.465,NA
"242","22","true_50",2,1,2,1,NA,78,1,4.762,NA
"243","22","true_50",3,1,3,1,NA,100,1,5.272,NA
"244","22","true_50",4,1,4,1,NA,100,1,3.436,NA
"245","22","true_50",5,1,5,1,NA,90,1,6.396,NA
"246","22","true_60",6,1,6,1,NA,93,1,5.54,NA
"247","22","true_60",7,1,7,1,NA,98,1,9.137,NA
"248","22","true_60",8,1,8,1,NA,100,1,3.971,NA
"249","22","true_60",9,1,9,1,NA,100,1,6.78,NA
"250","22","true_60",10,1,10,1,NA,100,1,4.327,NA
"251","22","true_70",11,1,11,1,NA,40,1,4.931,NA
"252","22","true_70",12,1,12,1,NA,100,1,5.674,NA
"253","22","true_70",13,1,13,1,NA,100,1,5.038,NA
"254","22","true_70",14,1,14,1,NA,100,1,3.764,NA
"255","22","true_70",15,1,15,1,NA,100,1,5.374,NA
"256","22","false_50",16,1,16,1,NA,98,1,4.812,NA
"257","22","false_50",17,1,17,1,NA,1,1,4.348,NA
"258","22","false_50",18,1,18,1,NA,100,1,6.409,NA
"259","22","false_50",19,1,19,1,NA,42,1,5.8,NA
"260","22","false_50",20,1,20,1,NA,0,1,7.394,NA
"261","22","false_60",21,1,21,1,NA,100,1,7.157,NA
"262","22","false_60",22,1,22,1,NA,100,1,3.773,NA
"263","22","false_60",23,1,23,1,NA,100,1,4.873,NA
"264","22","false_60",24,1,24,1,NA,100,1,4.905,NA
"265","22","false_60",25,1,25,1,NA,100,1,4.166,NA
"266","22","false_70",26,1,26,1,NA,95,1,5.91,NA
"267","22","false_70",27,1,27,1,NA,90,1,13.376,NA
"268","22","false_70",28,1,28,1,NA,0,1,10.352,NA
"269","22","false_70",29,1,29,1,NA,0,1,9.717,NA
"270","22","false_70",30,1,30,1,NA,100,1,4.394,NA
"271","22","true_50",31,1,31,1,NA,83,0,3.463,NA
"272","22","true_50",32,1,32,1,NA,58,0,4.054,NA
"273","22","true_50",33,1,33,1,NA,60,0,4.608,NA
"274","22","true_50",34,1,34,1,NA,28,0,9.029,NA
"275","22","true_50",35,1,35,1,NA,2,0,4.119,NA
"276","22","true_60",36,1,36,1,NA,70,0,5.774,NA
"277","22","true_60",37,1,37,1,NA,95,0,5.689,NA
"278","22","true_60",38,1,38,1,NA,85,0,4.161,NA
"279","22","true_60",39,1,39,1,NA,100,0,7.976,NA
"280","22","true_60",40,1,40,1,NA,68,0,5.923,NA
"281","22","true_70",41,1,41,1,NA,100,0,4.253,NA
"282","22","true_70",42,1,42,1,NA,71,0,4.719,NA
"283","22","true_70",43,1,43,1,NA,95,0,6.042,NA
"284","22","true_70",44,1,44,1,NA,81,0,4.295,NA
"285","22","true_70",45,1,45,1,NA,100,0,8.212,NA
"286","22","false_50",46,1,46,1,NA,88,0,9.79,NA
"287","22","false_50",47,1,47,1,NA,27,0,5.757,NA
"288","22","false_50",48,1,48,1,NA,18,0,4.929,NA
"289","22","false_50",49,1,49,1,NA,0,0,8.034,NA
"290","22","false_50",50,1,50,1,NA,100,0,5.105,NA
"291","22","false_60",51,1,51,1,NA,0,0,7.78,NA
"292","22","false_60",52,1,52,1,NA,32,0,3.741,NA
"293","22","false_60",53,1,53,1,NA,45,0,3.086,NA
"294","22","false_60",54,1,54,1,NA,10,0,7.449,NA
"295","22","false_60",55,1,55,1,NA,25,0,4.046,NA
"296","22","false_70",56,1,56,1,NA,26,0,5.035,NA
"297","22","false_70",57,1,57,1,NA,20,0,7.194,NA
"298","22","false_70",58,1,58,1,NA,37,0,5.953,NA
"299","22","false_70",59,1,59,1,NA,10,0,3.476,NA
"300","22","false_70",60,1,60,1,NA,100,0,8.101,NA
"301","22","true_50",61,1,61,0,NA,0,1,7.97,NA
"302","22","true_50",62,1,62,0,NA,100,1,3.718,NA
"303","22","true_50",63,1,63,0,NA,100,1,4.138,NA
"304","22","true_50",64,1,64,0,NA,100,1,4.789,NA
"305","22","true_50",65,1,65,0,NA,49,1,11.123,NA
"306","22","true_60",66,1,66,0,NA,63,1,6.262,NA
"307","22","true_60",67,1,67,0,NA,100,1,3.27,NA
"308","22","true_60",68,1,68,0,NA,4,1,10.985,NA
"309","22","true_60",69,1,69,0,NA,100,1,8.471,NA
"310","22","true_60",70,1,70,0,NA,100,1,5.386,NA
"311","22","true_70",71,1,71,0,NA,47,1,3.8,NA
"312","22","true_70",72,1,72,0,NA,100,1,6.214,NA
"313","22","true_70",73,1,73,0,NA,100,1,5.096,NA
"314","22","true_70",74,1,74,0,NA,100,1,6.228,NA
"315","22","true_70",75,1,75,0,NA,100,1,11.375,NA
"316","22","false_50",76,1,76,0,NA,100,1,5.422,NA
"317","22","false_50",77,1,77,0,NA,100,1,5.132,NA
"318","22","false_50",78,1,78,0,NA,50,1,11.875,NA
"319","22","false_50",79,1,79,0,NA,84,1,10.194,NA
"320","22","false_50",80,1,80,0,NA,100,1,6.888,NA
"321","22","false_60",81,1,81,0,NA,38,1,5.275,NA
"322","22","false_60",82,1,82,0,NA,83,1,7.538,NA
"323","22","false_60",83,1,83,0,NA,100,1,6.397,NA
"324","22","false_60",84,1,84,0,NA,0,1,6.03,NA
"325","22","false_60",85,1,85,0,NA,0,1,6.821,NA
"326","22","false_70",86,1,86,0,NA,0,1,6.045,NA
"327","22","false_70",87,1,87,0,NA,100,1,3.886,NA
"328","22","false_70",88,1,88,0,NA,21,1,6.641,NA
"329","22","false_70",89,1,89,0,NA,27,1,6.2,NA
"330","22","false_70",90,1,90,0,NA,100,1,5.428,NA
"331","22","true_50",91,1,91,0,NA,74,0,4.834,NA
"332","22","true_50",92,1,92,0,NA,88,0,9.695,NA
"333","22","true_50",93,1,93,0,NA,100,0,8.442,NA
"334","22","true_50",94,1,94,0,NA,100,0,5.842,NA
"335","22","true_50",95,1,95,0,NA,57,0,4.309,NA
"336","22","true_60",96,1,96,0,NA,72,0,4.253,NA
"337","22","true_60",97,1,97,0,NA,51,0,3.876,NA
"338","22","true_60",98,1,98,0,NA,65,0,3.936,NA
"339","22","true_60",99,1,99,0,NA,69,0,4.925,NA
"340","22","true_60",100,1,100,0,NA,88,0,5.179,NA
"341","22","true_70",101,1,101,0,NA,71,0,4.258,NA
"342","22","true_70",102,1,102,0,NA,100,0,7.14,NA
"343","22","true_70",103,1,103,0,NA,100,0,9.404,NA
"344","22","true_70",104,1,104,0,NA,95,0,3.626,NA
"345","22","true_70",105,1,105,0,NA,92,0,4.603,NA
"346","22","false_50",106,1,106,0,NA,0,0,7.339,NA
"347","22","false_50",107,1,107,0,NA,39,0,3.662,NA
"348","22","false_50",108,1,108,0,NA,28,0,4.333,NA
"349","22","false_50",109,1,109,0,NA,32,0,4.148,NA
"350","22","false_50",110,1,110,0,NA,38,0,4.242,NA
"351","22","false_60",111,1,111,0,NA,38,0,3.574,NA
"352","22","false_60",112,1,112,0,NA,1,0,6.675,NA
"353","22","false_60",113,1,113,0,NA,0,0,6.736,NA
"354","22","false_60",114,1,114,0,NA,23,0,7.929,NA
"355","22","false_60",115,1,115,0,NA,44,0,6.179,NA
"356","22","false_70",116,1,116,0,NA,96,0,8.222,NA
"357","22","false_70",117,1,117,0,NA,89,0,5.867,NA
"358","22","false_70",118,1,118,0,NA,57,0,4.102,NA
"359","22","false_70",119,1,119,0,NA,51,0,5.502,NA
"360","22","false_70",120,1,120,0,NA,69,0,4.487,NA
"361","28","true_50",1,1,1,1,NA,78,1,2.595,NA
"362","28","true_50",2,1,2,1,NA,65,1,2.769,NA
"363","28","true_50",3,1,3,1,NA,61,1,7.967,NA
"364","28","true_50",4,1,4,1,NA,26,1,5.71,NA
"365","28","true_50",5,1,5,1,NA,73,1,2.235,NA
"366","28","true_60",6,1,6,1,NA,27,1,3.997,NA
"367","28","true_60",7,1,7,1,NA,69,1,3.598,NA
"368","28","true_60",8,1,8,1,NA,19,1,2.898,NA
"369","28","true_60",9,1,9,1,NA,82,1,3.823,NA
"370","28","true_60",10,1,10,1,NA,75,1,5.258,NA
"371","28","true_70",11,1,11,1,NA,82,1,7.019,NA
"372","28","true_70",12,1,12,1,NA,6,1,3.521,NA
"373","28","true_70",13,1,13,1,NA,84,1,3.747,NA
"374","28","true_70",14,1,14,1,NA,67,1,4.392,NA
"375","28","true_70",15,1,15,1,NA,27,1,4.183,NA
"376","28","false_50",16,1,16,1,NA,0,1,3.023,NA
"377","28","false_50",17,1,17,1,NA,19,1,2.388,NA
"378","28","false_50",18,1,18,1,NA,10,1,2.343,NA
"379","28","false_50",19,1,19,1,NA,0,1,3.15,NA
"380","28","false_50",20,1,20,1,NA,11,1,4.614,NA
"381","28","false_60",21,1,21,1,NA,23,1,4.483,NA
"382","28","false_60",22,1,22,1,NA,72,1,4.402,NA
"383","28","false_60",23,1,23,1,NA,13,1,4.369,NA
"384","28","false_60",24,1,24,1,NA,20,1,2.774,NA
"385","28","false_60",25,1,25,1,NA,23,1,3.783,NA
"386","28","false_70",26,1,26,1,NA,33,1,3.957,NA
"387","28","false_70",27,1,27,1,NA,18,1,2.319,NA
"388","28","false_70",28,1,28,1,NA,15,1,2.475,NA
"389","28","false_70",29,1,29,1,NA,67,1,3.406,NA
"390","28","false_70",30,1,30,1,NA,3,1,8.685,NA
"391","28","true_50",31,1,31,1,NA,17,0,7.056,NA
"392","28","true_50",32,1,32,1,NA,20,0,4.128,NA
"393","28","true_50",33,1,33,1,NA,15,0,4.317,NA
"394","28","true_50",34,1,34,1,NA,75,0,5.426,NA
"395","28","true_50",35,1,35,1,NA,18,0,4.589,NA
"396","28","true_60",36,1,36,1,NA,85,0,3.282,NA
"397","28","true_60",37,1,37,1,NA,26,0,7.627,NA
"398","28","true_60",38,1,38,1,NA,87,0,2.978,NA
"399","28","true_60",39,1,39,1,NA,82,0,2.877,NA
"400","28","true_60",40,1,40,1,NA,0,0,3.63,NA
"401","28","true_70",41,1,41,1,NA,82,0,5.467,NA
"402","28","true_70",42,1,42,1,NA,25,0,6.943,NA
"403","28","true_70",43,1,43,1,NA,83,0,4.875,NA
"404","28","true_70",44,1,44,1,NA,8,0,5.034,NA
"405","28","true_70",45,1,45,1,NA,83,0,2.494,NA
"406","28","false_50",46,1,46,1,NA,29,0,4.117,NA
"407","28","false_50",47,1,47,1,NA,21,0,4.808,NA
"408","28","false_50",48,1,48,1,NA,69,0,16.488,NA
"409","28","false_50",49,1,49,1,NA,87,0,7.912,NA
"410","28","false_50",50,1,50,1,NA,13,0,7.339,NA
"411","28","false_60",51,1,51,1,NA,27,0,3.023,NA
"412","28","false_60",52,1,52,1,NA,12,0,4.301,NA
"413","28","false_60",53,1,53,1,NA,12,0,3.007,NA
"414","28","false_60",54,1,54,1,NA,87,0,5.046,NA
"415","28","false_60",55,1,55,1,NA,28,0,6.708,NA
"416","28","false_70",56,1,56,1,NA,26,0,2.592,NA
"417","28","false_70",57,1,57,1,NA,18,0,6.799,NA
"418","28","false_70",58,1,58,1,NA,19,0,5.954,NA
"419","28","false_70",59,1,59,1,NA,22,0,2.27,NA
"420","28","false_70",60,1,60,1,NA,22,0,4.903,NA
"421","28","true_50",61,1,61,0,NA,4,1,4.715,NA
"422","28","true_50",62,1,62,0,NA,72,1,3.007,NA
"423","28","true_50",63,1,63,0,NA,11,1,5.181,NA
"424","28","true_50",64,1,64,0,NA,20,1,3.976,NA
"425","28","true_50",65,1,65,0,NA,9,1,4.456,NA
"426","28","true_60",66,1,66,0,NA,19,1,8.345,NA
"427","28","true_60",67,1,67,0,NA,92,1,4.872,NA
"428","28","true_60",68,1,68,0,NA,82,1,3.158,NA
"429","28","true_60",69,1,69,0,NA,75,1,2.553,NA
"430","28","true_60",70,1,70,0,NA,99,1,4.829,NA
"431","28","true_70",71,1,71,0,NA,18,1,5.873,NA
"432","28","true_70",72,1,72,0,NA,14,1,4.285,NA
"433","28","true_70",73,1,73,0,NA,74,1,4.766,NA
"434","28","true_70",74,1,74,0,NA,83,1,4.301,NA
"435","28","true_70",75,1,75,0,NA,75,1,3.756,NA
"436","28","false_50",76,1,76,0,NA,26,1,2.175,NA
"437","28","false_50",77,1,77,0,NA,87,1,3.821,NA
"438","28","false_50",78,1,78,0,NA,23,1,4.591,NA
"439","28","false_50",79,1,79,0,NA,20,1,2.476,NA
"440","28","false_50",80,1,80,0,NA,23,1,2.195,NA
"441","28","false_60",81,1,81,0,NA,21,1,5.005,NA
"442","28","false_60",82,1,82,0,NA,19,1,2.964,NA
"443","28","false_60",83,1,83,0,NA,0,1,4.633,NA
"444","28","false_60",84,1,84,0,NA,28,1,2.175,NA
"445","28","false_60",85,1,85,0,NA,22,1,4.17,NA
"446","28","false_70",86,1,86,0,NA,18,1,2.079,NA
"447","28","false_70",87,1,87,0,NA,25,1,3.517,NA
"448","28","false_70",88,1,88,0,NA,13,1,3.441,NA
"449","28","false_70",89,1,89,0,NA,9,1,3.309,NA
"450","28","false_70",90,1,90,0,NA,13,1,2.559,NA
"451","28","true_50",91,1,91,0,NA,98,0,5.669,NA
"452","28","true_50",92,1,92,0,NA,91,0,2.461,NA
"453","28","true_50",93,1,93,0,NA,70,0,2.54,NA
"454","28","true_50",94,1,94,0,NA,85,0,7.603,NA
"455","28","true_50",95,1,95,0,NA,65,0,4.793,NA
"456","28","true_60",96,1,96,0,NA,81,0,2.642,NA
"457","28","true_60",97,1,97,0,NA,81,0,2.385,NA
"458","28","true_60",98,1,98,0,NA,11,0,4.858,NA
"459","28","true_60",99,1,99,0,NA,5,0,3.927,NA
"460","28","true_60",100,1,100,0,NA,63,0,4.898,NA
"461","28","true_70",101,1,101,0,NA,3,0,4.518,NA
"462","28","true_70",102,1,102,0,NA,86,0,4.52,NA
"463","28","true_70",103,1,103,0,NA,78,0,3.598,NA
"464","28","true_70",104,1,104,0,NA,32,0,7.396,NA
"465","28","true_70",105,1,105,0,NA,92,0,2.59,NA
"466","28","false_50",106,1,106,0,NA,33,0,2.276,NA
"467","28","false_50",107,1,107,0,NA,78,0,3.851,NA
"468","28","false_50",108,1,108,0,NA,6,0,13.472,NA
"469","28","false_50",109,1,109,0,NA,26,0,3.104,NA
"470","28","false_50",110,1,110,0,NA,27,0,5.761,NA
"471","28","false_60",111,1,111,0,NA,27,0,2.594,NA
"472","28","false_60",112,1,112,0,NA,36,0,6.876,NA
"473","28","false_60",113,1,113,0,NA,11,0,3.546,NA
"474","28","false_60",114,1,114,0,NA,21,0,2.304,NA
"475","28","false_60",115,1,115,0,NA,86,0,6.446,NA
"476","28","false_70",116,1,116,0,NA,13,0,2.34,NA
"477","28","false_70",117,1,117,0,NA,28,0,4.445,NA
"478","28","false_70",118,1,118,0,NA,13,0,3.678,NA
"479","28","false_70",119,1,119,0,NA,78,0,4.39,NA
"480","28","false_70",120,1,120,0,NA,77,0,4.636,NA
"481","33","true_50",1,1,1,1,NA,60,1,6.406,NA
"482","33","true_50",2,1,2,1,NA,59,1,4.824,NA
"483","33","true_50",3,1,3,1,NA,100,1,3.619,NA
"484","33","true_50",4,1,4,1,NA,54,1,4.589,NA
"485","33","true_50",5,1,5,1,NA,53,1,11.751,NA
"486","33","true_60",6,1,6,1,NA,66,1,8.264,NA
"487","33","true_60",7,1,7,1,NA,53,1,5.587,NA
"488","33","true_60",8,1,8,1,NA,43,1,4.971,NA
"489","33","true_60",9,1,9,1,NA,91,1,7.248,NA
"490","33","true_60",10,1,10,1,NA,55,1,5.507,NA
"491","33","true_70",11,1,11,1,NA,80,1,11.05,NA
"492","33","true_70",12,1,12,1,NA,46,1,4.958,NA
"493","33","true_70",13,1,13,1,NA,54,1,4.22,NA
"494","33","true_70",14,1,14,1,NA,56,1,3.76,NA
"495","33","true_70",15,1,15,1,NA,55,1,5.739,NA
"496","33","false_50",16,1,16,1,NA,44,1,7.707,NA
"497","33","false_50",17,1,17,1,NA,48,1,3.902,NA
"498","33","false_50",18,1,18,1,NA,46,1,4.806,NA
"499","33","false_50",19,1,19,1,NA,53,1,3.347,NA
"500","33","false_50",20,1,20,1,NA,59,1,5.778,NA
"501","33","false_60",21,1,21,1,NA,44,1,3.035,NA
"502","33","false_60",22,1,22,1,NA,41,1,7.208,NA
"503","33","false_60",23,1,23,1,NA,36,1,11.169,NA
"504","33","false_60",24,1,24,1,NA,40,1,4.418,NA
"505","33","false_60",25,1,25,1,NA,45,1,5.23,NA
"506","33","false_70",26,1,26,1,NA,45,1,16.591,NA
"507","33","false_70",27,1,27,1,NA,36,1,3.627,NA
"508","33","false_70",28,1,28,1,NA,47,1,4.01,NA
"509","33","false_70",29,1,29,1,NA,59,1,4.33,NA
"510","33","false_70",30,1,30,1,NA,30,1,9.649,NA
"511","33","true_50",31,1,31,1,NA,44,0,7.85,NA
"512","33","true_50",32,1,32,1,NA,51,0,5.114,NA
"513","33","true_50",33,1,33,1,NA,59,0,6.652,NA
"514","33","true_50",34,1,34,1,NA,44,0,4.335,NA
"515","33","true_50",35,1,35,1,NA,46,0,3.968,NA
"516","33","true_60",36,1,36,1,NA,68,0,6.554,NA
"517","33","true_60",37,1,37,1,NA,44,0,4.409,NA
"518","33","true_60",38,1,38,1,NA,41,0,11.901,NA
"519","33","true_60",39,1,39,1,NA,54,0,8.188,NA
"520","33","true_60",40,1,40,1,NA,52,0,3.876,NA
"521","33","true_70",41,1,41,1,NA,56,0,4.708,NA
"522","33","true_70",42,1,42,1,NA,53,0,5.138,NA
"523","33","true_70",43,1,43,1,NA,53,0,4.732,NA
"524","33","true_70",44,1,44,1,NA,57,0,9.29,NA
"525","33","true_70",45,1,45,1,NA,56,0,4.111,NA
"526","33","false_50",46,1,46,1,NA,49,0,5.579,NA
"527","33","false_50",47,1,47,1,NA,41,0,4.464,NA
"528","33","false_50",48,1,48,1,NA,58,0,7.502,NA
"529","33","false_50",49,1,49,1,NA,56,0,4.518,NA
"530","33","false_50",50,1,50,1,NA,55,0,5.347,NA
"531","33","false_60",51,1,51,1,NA,68,0,4.167,NA
"532","33","false_60",52,1,52,1,NA,44,0,8.874,NA
"533","33","false_60",53,1,53,1,NA,36,0,5.644,NA
"534","33","false_60",54,1,54,1,NA,28,0,7.343,NA
"535","33","false_60",55,1,55,1,NA,46,0,5.902,NA
"536","33","false_70",56,1,56,1,NA,61,0,5.152,NA
"537","33","false_70",57,1,57,1,NA,32,0,5.036,NA
"538","33","false_70",58,1,58,1,NA,54,0,6.934,NA
"539","33","false_70",59,1,59,1,NA,60,0,6.453,NA
"540","33","false_70",60,1,60,1,NA,36,0,3.555,NA
"541","33","true_50",61,1,61,0,NA,29,1,8.396,NA
"542","33","true_50",62,1,62,0,NA,52,1,4.671,NA
"543","33","true_50",63,1,63,0,NA,83,1,24.534,NA
"544","33","true_50",64,1,64,0,NA,56,1,5.184,NA
"545","33","true_50",65,1,65,0,NA,46,1,4.126,NA
"546","33","true_60",66,1,66,0,NA,10,1,5.6,NA
"547","33","true_60",67,1,67,0,NA,42,1,3.694,NA
"548","33","true_60",68,1,68,0,NA,42,1,4.942,NA
"549","33","true_60",69,1,69,0,NA,39,1,6.988,NA
"550","33","true_60",70,1,70,0,NA,40,1,5.395,NA
"551","33","true_70",71,1,71,0,NA,54,1,3.403,NA
"552","33","true_70",72,1,72,0,NA,42,1,6.608,NA
"553","33","true_70",73,1,73,0,NA,52,1,3.907,NA
"554","33","true_70",74,1,74,0,NA,56,1,5.374,NA
"555","33","true_70",75,1,75,0,NA,54,1,6.108,NA
"556","33","false_50",76,1,76,0,NA,63,1,7.291,NA
"557","33","false_50",77,1,77,0,NA,55,1,4.967,NA
"558","33","false_50",78,1,78,0,NA,55,1,8.247,NA
"559","33","false_50",79,1,79,0,NA,30,1,6.811,NA
"560","33","false_50",80,1,80,0,NA,47,1,2.836,NA
"561","33","false_60",81,1,81,0,NA,3,1,6.407,NA
"562","33","false_60",82,1,82,0,NA,42,1,4.534,NA
"563","33","false_60",83,1,83,0,NA,57,1,4.816,NA
"564","33","false_60",84,1,84,0,NA,58,1,4.831,NA
"565","33","false_60",85,1,85,0,NA,45,1,8.185,NA
"566","33","false_70",86,1,86,0,NA,38,1,8.668,NA
"567","33","false_70",87,1,87,0,NA,23,1,5.019,NA
"568","33","false_70",88,1,88,0,NA,43,1,8.43,NA
"569","33","false_70",89,1,89,0,NA,56,1,6.375,NA
"570","33","false_70",90,1,90,0,NA,36,1,4.319,NA
"571","33","true_50",91,1,91,0,NA,52,0,4.092,NA
"572","33","true_50",92,1,92,0,NA,55,0,4.852,NA
"573","33","true_50",93,1,93,0,NA,58,0,4.41,NA
"574","33","true_50",94,1,94,0,NA,38,0,7.09,NA
"575","33","true_50",95,1,95,0,NA,55,0,4.694,NA
"576","33","true_60",96,1,96,0,NA,56,0,3.745,NA
"577","33","true_60",97,1,97,0,NA,67,0,11.065,NA
"578","33","true_60",98,1,98,0,NA,46,0,6.182,NA
"579","33","true_60",99,1,99,0,NA,62,0,5.989,NA
"580","33","true_60",100,1,100,0,NA,52,0,3.68,NA
"581","33","true_70",101,1,101,0,NA,48,0,6.948,NA
"582","33","true_70",102,1,102,0,NA,64,0,7.637,NA
"583","33","true_70",103,1,103,0,NA,61,0,4.237,NA
"584","33","true_70",104,1,104,0,NA,56,0,3.557,NA
"585","33","true_70",105,1,105,0,NA,59,0,4.628,NA
"586","33","false_50",106,1,106,0,NA,49,0,4.209,NA
"587","33","false_50",107,1,107,0,NA,43,0,8.191,NA
"588","33","false_50",108,1,108,0,NA,61,0,5.667,NA
"589","33","false_50",109,1,109,0,NA,43,0,5.584,NA
"590","33","false_50",110,1,110,0,NA,56,0,3.828,NA
"591","33","false_60",111,1,111,0,NA,48,0,4.49,NA
"592","33","false_60",112,1,112,0,NA,42,0,3.822,NA
"593","33","false_60",113,1,113,0,NA,37,0,15.286,NA
"594","33","false_60",114,1,114,0,NA,40,0,11.53,NA
"595","33","false_60",115,1,115,0,NA,38,0,4.115,NA
"596","33","false_70",116,1,116,0,NA,41,0,5.335,NA
"597","33","false_70",117,1,117,0,NA,52,0,5.43,NA
"598","33","false_70",118,1,118,0,NA,58,0,7.948,NA
"599","33","false_70",119,1,119,0,NA,49,0,4.883,NA
"600","33","false_70",120,1,120,0,NA,60,0,6.405,NA
"601","42","true_50",1,1,1,1,NA,69,1,5.053,NA
"602","42","true_50",2,1,2,1,NA,51,1,5.131,NA
"603","42","true_50",3,1,3,1,NA,47,1,11.389,NA
"604","42","true_50",4,1,4,1,NA,89,1,14.187,NA
"605","42","true_50",5,1,5,1,NA,37,1,6.861,NA
"606","42","true_60",6,1,6,1,NA,100,1,8.861,NA
"607","42","true_60",7,1,7,1,NA,41,1,5.278,NA
"608","42","true_60",8,1,8,1,NA,60,1,3.038,NA
"609","42","true_60",9,1,9,1,NA,52,1,4.27,NA
"610","42","true_60",10,1,10,1,NA,50,1,5.811,NA
"611","42","true_70",11,1,11,1,NA,72,1,7.867,NA
"612","42","true_70",12,1,12,1,NA,67,1,3.722,NA
"613","42","true_70",13,1,13,1,NA,58,1,3.371,NA
"614","42","true_70",14,1,14,1,NA,100,1,3.996,NA
"615","42","true_70",15,1,15,1,NA,68,1,2.869,NA
"616","42","false_50",16,1,16,1,NA,43,1,14.47,NA
"617","42","false_50",17,1,17,1,NA,72,1,6.116,NA
"618","42","false_50",18,1,18,1,NA,58,1,6.975,NA
"619","42","false_50",19,1,19,1,NA,61,1,11.971,NA
"620","42","false_50",20,1,20,1,NA,0,1,4.073,NA
"621","42","false_60",21,1,21,1,NA,56,1,4.971,NA
"622","42","false_60",22,1,22,1,NA,44,1,3.558,NA
"623","42","false_60",23,1,23,1,NA,51,1,6.325,NA
"624","42","false_60",24,1,24,1,NA,80,1,6.259,NA
"625","42","false_60",25,1,25,1,NA,0,1,8.911,NA
"626","42","false_70",26,1,26,1,NA,13,1,3.806,NA
"627","42","false_70",27,1,27,1,NA,26,1,3.769,NA
"628","42","false_70",28,1,28,1,NA,35,1,5.207,NA
"629","42","false_70",29,1,29,1,NA,36,1,4.277,NA
"630","42","false_70",30,1,30,1,NA,35,1,7.935,NA
"631","42","true_50",31,1,31,1,NA,62,0,3.95,NA
"632","42","true_50",32,1,32,1,NA,0,0,6.269,NA
"633","42","true_50",33,1,33,1,NA,67,0,4.406,NA
"634","42","true_50",34,1,34,1,NA,23,0,5.105,NA
"635","42","true_50",35,1,35,1,NA,44,0,6.049,NA
"636","42","true_60",36,1,36,1,NA,72,0,5.824,NA
"637","42","true_60",37,1,37,1,NA,53,0,2.961,NA
"638","42","true_60",38,1,38,1,NA,100,0,12.893,NA
"639","42","true_60",39,1,39,1,NA,100,0,8.629,NA
"640","42","true_60",40,1,40,1,NA,49,0,3.834,NA
"641","42","true_70",41,1,41,1,NA,100,0,5.316,NA
"642","42","true_70",42,1,42,1,NA,52,0,2.987,NA
"643","42","true_70",43,1,43,1,NA,45,0,5.16,NA
"644","42","true_70",44,1,44,1,NA,79,0,4.497,NA
"645","42","true_70",45,1,45,1,NA,26,0,11.29,NA
"646","42","false_50",46,1,46,1,NA,52,0,9.362,NA
"647","42","false_50",47,1,47,1,NA,55,0,4.887,NA
"648","42","false_50",48,1,48,1,NA,48,0,5.688,NA
"649","42","false_50",49,1,49,1,NA,50,0,4.399,NA
"650","42","false_50",50,1,50,1,NA,58,0,6.438,NA
"651","42","false_60",51,1,51,1,NA,49,0,3.883,NA
"652","42","false_60",52,1,52,1,NA,49,0,4.414,NA
"653","42","false_60",53,1,53,1,NA,100,0,4.772,NA
"654","42","false_60",54,1,54,1,NA,45,0,6.781,NA
"655","42","false_60",55,1,55,1,NA,46,0,9.139,NA
"656","42","false_70",56,1,56,1,NA,3,0,6.241,NA
"657","42","false_70",57,1,57,1,NA,0,0,4.449,NA
"658","42","false_70",58,1,58,1,NA,3,0,5.629,NA
"659","42","false_70",59,1,59,1,NA,18,0,5.784,NA
"660","42","false_70",60,1,60,1,NA,41,0,4.082,NA
"661","42","true_50",61,1,61,0,NA,51,1,2.327,NA
"662","42","true_50",62,1,62,0,NA,54,1,7.704,NA
"663","42","true_50",63,1,63,0,NA,47,1,9.695,NA
"664","42","true_50",64,1,64,0,NA,50,1,3.209,NA
"665","42","true_50",65,1,65,0,NA,56,1,3.616,NA
"666","42","true_60",66,1,66,0,NA,71,1,5.231,NA
"667","42","true_60",67,1,67,0,NA,56,1,4.872,NA
"668","42","true_60",68,1,68,0,NA,58,1,4.557,NA
"669","42","true_60",69,1,69,0,NA,51,1,2.787,NA
"670","42","true_60",70,1,70,0,NA,58,1,3.747,NA
"671","42","true_70",71,1,71,0,NA,70,1,4.596,NA
"672","42","true_70",72,1,72,0,NA,56,1,3.029,NA
"673","42","true_70",73,1,73,0,NA,74,1,12.507,NA
"674","42","true_70",74,1,74,0,NA,73,1,6.003,NA
"675","42","true_70",75,1,75,0,NA,21,1,8.455,NA
"676","42","false_50",76,1,76,0,NA,17,1,4.9,NA
"677","42","false_50",77,1,77,0,NA,57,1,6.949,NA
"678","42","false_50",78,1,78,0,NA,50,1,4.237,NA
"679","42","false_50",79,1,79,0,NA,28,1,2.501,NA
"680","42","false_50",80,1,80,0,NA,49,1,5.168,NA
"681","42","false_60",81,1,81,0,NA,0,1,26.637,NA
"682","42","false_60",82,1,82,0,NA,17,1,3.559,NA
"683","42","false_60",83,1,83,0,NA,43,1,4.192,NA
"684","42","false_60",84,1,84,0,NA,50,1,5.781,NA
"685","42","false_60",85,1,85,0,NA,49,1,2.989,NA
"686","42","false_70",86,1,86,0,NA,44,1,4.165,NA
"687","42","false_70",87,1,87,0,NA,38,1,3.063,NA
"688","42","false_70",88,1,88,0,NA,4,1,11.015,NA
"689","42","false_70",89,1,89,0,NA,33,1,4.496,NA
"690","42","false_70",90,1,90,0,NA,0,1,4.092,NA
"691","42","true_50",91,1,91,0,NA,50,0,15.855,NA
"692","42","true_50",92,1,92,0,NA,32,0,6.284,NA
"693","42","true_50",93,1,93,0,NA,31,0,5.199,NA
"694","42","true_50",94,1,94,0,NA,51,0,3.579,NA
"695","42","true_50",95,1,95,0,NA,50,0,3.696,NA
"696","42","true_60",96,1,96,0,NA,55,0,5.045,NA
"697","42","true_60",97,1,97,0,NA,92,0,5.922,NA
"698","42","true_60",98,1,98,0,NA,51,0,14.653,NA
"699","42","true_60",99,1,99,0,NA,56,0,3.331,NA
"700","42","true_60",100,1,100,0,NA,49,0,11.423,NA
"701","42","true_70",101,1,101,0,NA,48,0,9.695,NA
"702","42","true_70",102,1,102,0,NA,27,0,13.809,NA
"703","42","true_70",103,1,103,0,NA,75,0,3.583,NA
"704","42","true_70",104,1,104,0,NA,61,0,9.544,NA
"705","42","true_70",105,1,105,0,NA,64,0,4.163,NA
"706","42","false_50",106,1,106,0,NA,50,0,11.601,NA
"707","42","false_50",107,1,107,0,NA,50,0,5.198,NA
"708","42","false_50",108,1,108,0,NA,37,0,8.633,NA
"709","42","false_50",109,1,109,0,NA,50,0,4.766,NA
"710","42","false_50",110,1,110,0,NA,36,0,3.685,NA
"711","42","false_60",111,1,111,0,NA,17,0,5.054,NA
"712","42","false_60",112,1,112,0,NA,49,0,6.637,NA
"713","42","false_60",113,1,113,0,NA,43,0,4.249,NA
"714","42","false_60",114,1,114,0,NA,39,0,4.589,NA
"715","42","false_60",115,1,115,0,NA,20,0,4.786,NA
"716","42","false_70",116,1,116,0,NA,33,0,6.616,NA
"717","42","false_70",117,1,117,0,NA,67,0,6.073,NA
"718","42","false_70",118,1,118,0,NA,25,0,5.465,NA
"719","42","false_70",119,1,119,0,NA,0,0,10.695,NA
"720","42","false_70",120,1,120,0,NA,49,0,10.997,NA
"721","8","true_50",1,1,1,1,NA,59,1,8.483,NA
"722","8","true_50",2,1,2,1,NA,100,1,9.622,NA
"723","8","true_50",3,1,3,1,NA,69,1,8.281,NA
"724","8","true_50",4,1,4,1,NA,88,1,7.35,NA
"725","8","true_50",5,1,5,1,NA,53,1,6.789,NA
"726","8","true_60",6,1,6,1,NA,65,1,9.764,NA
"727","8","true_60",7,1,7,1,NA,57,1,9.858,NA
"728","8","true_60",8,1,8,1,NA,100,1,15.503,NA
"729","8","true_60",9,1,9,1,NA,91,1,6.467,NA
"730","8","true_60",10,1,10,1,NA,87,1,11.512,NA
"731","8","true_70",11,1,11,1,NA,68,1,9.848,NA
"732","8","true_70",12,1,12,1,NA,43,1,19.7,NA
"733","8","true_70",13,1,13,1,NA,100,1,8.87,NA
"734","8","true_70",14,1,14,1,NA,56,1,8.761,NA
"735","8","true_70",15,1,15,1,NA,55,1,5.846,NA
"736","8","false_50",16,1,16,1,NA,76,1,9.162,NA
"737","8","false_50",17,1,17,1,NA,28,1,5.499,NA
"738","8","false_50",18,1,18,1,NA,48,1,17.247,NA
"739","8","false_50",19,1,19,1,NA,44,1,10.514,NA
"740","8","false_50",20,1,20,1,NA,100,1,7.922,NA
"741","8","false_60",21,1,21,1,NA,85,1,11.678,NA
"742","8","false_60",22,1,22,1,NA,44,1,10.023,NA
"743","8","false_60",23,1,23,1,NA,26,1,14.016,NA
"744","8","false_60",24,1,24,1,NA,77,1,12.407,NA
"745","8","false_60",25,1,25,1,NA,38,1,6.8,NA
"746","8","false_70",26,1,26,1,NA,100,1,16.023,NA
"747","8","false_70",27,1,27,1,NA,42,1,9.744,NA
"748","8","false_70",28,1,28,1,NA,34,1,7.521,NA
"749","8","false_70",29,1,29,1,NA,78,1,7,NA
"750","8","false_70",30,1,30,1,NA,37,1,8.714,NA
"751","8","true_50",31,1,31,1,NA,56,0,9.805,NA
"752","8","true_50",32,1,32,1,NA,99,0,19.033,NA
"753","8","true_50",33,1,33,1,NA,64,0,7.772,NA
"754","8","true_50",34,1,34,1,NA,68,0,10.155,NA
"755","8","true_50",35,1,35,1,NA,70,0,12.305,NA
"756","8","true_60",36,1,36,1,NA,57,0,8.792,NA
"757","8","true_60",37,1,37,1,NA,35,0,9.5,NA
"758","8","true_60",38,1,38,1,NA,33,0,8.128,NA
"759","8","true_60",39,1,39,1,NA,15,0,11.875,NA
"760","8","true_60",40,1,40,1,NA,28,0,5.804,NA
"761","8","true_70",41,1,41,1,NA,67,0,11.307,NA
"762","8","true_70",42,1,42,1,NA,56,0,5.52,NA
"763","8","true_70",43,1,43,1,NA,100,0,9.567,NA
"764","8","true_70",44,1,44,1,NA,59,0,8.363,NA
"765","8","true_70",45,1,45,1,NA,65,0,4.948,NA
"766","8","false_50",46,1,46,1,NA,48,0,11.825,NA
"767","8","false_50",47,1,47,1,NA,80,0,8.425,NA
"768","8","false_50",48,1,48,1,NA,72,0,4.504,NA
"769","8","false_50",49,1,49,1,NA,71,0,29.639,NA
"770","8","false_50",50,1,50,1,NA,42,0,8.129,NA
"771","8","false_60",51,1,51,1,NA,100,0,7.984,NA
"772","8","false_60",52,1,52,1,NA,43,0,9.077,NA
"773","8","false_60",53,1,53,1,NA,100,0,15.453,NA
"774","8","false_60",54,1,54,1,NA,54,0,5.586,NA
"775","8","false_60",55,1,55,1,NA,39,0,11.421,NA
"776","8","false_70",56,1,56,1,NA,20,0,10.779,NA
"777","8","false_70",57,1,57,1,NA,38,0,7.461,NA
"778","8","false_70",58,1,58,1,NA,38,0,10.61,NA
"779","8","false_70",59,1,59,1,NA,40,0,10.707,NA
"780","8","false_70",60,1,60,1,NA,8,0,18.95,NA
"781","8","true_50",61,1,61,0,NA,59,1,9.844,NA
"782","8","true_50",62,1,62,0,NA,63,1,10.092,NA
"783","8","true_50",63,1,63,0,NA,56,1,15.582,NA
"784","8","true_50",64,1,64,0,NA,58,1,22.5,NA
"785","8","true_50",65,1,65,0,NA,58,1,6.222,NA
"786","8","true_60",66,1,66,0,NA,56,1,9.319,NA
"787","8","true_60",67,1,67,0,NA,63,1,8.915,NA
"788","8","true_60",68,1,68,0,NA,80,1,15.645,NA
"789","8","true_60",69,1,69,0,NA,63,1,11.852,NA
"790","8","true_60",70,1,70,0,NA,51,1,10.956,NA
"791","8","true_70",71,1,71,0,NA,79,1,5.325,NA
"792","8","true_70",72,1,72,0,NA,53,1,9.068,NA
"793","8","true_70",73,1,73,0,NA,63,1,13.166,NA
"794","8","true_70",74,1,74,0,NA,55,1,10.611,NA
"795","8","true_70",75,1,75,0,NA,52,1,9.257,NA
"796","8","false_50",76,1,76,0,NA,45,1,9.147,NA
"797","8","false_50",77,1,77,0,NA,30,1,6.902,NA
"798","8","false_50",78,1,78,0,NA,5,1,9.089,NA
"799","8","false_50",79,1,79,0,NA,41,1,9.302,NA
"800","8","false_50",80,1,80,0,NA,34,1,8.376,NA
"801","8","false_60",81,1,81,0,NA,0,1,19.856,NA
"802","8","false_60",82,1,82,0,NA,100,1,6.286,NA
"803","8","false_60",83,1,83,0,NA,40,1,8.772,NA
"804","8","false_60",84,1,84,0,NA,100,1,12.74,NA
"805","8","false_60",85,1,85,0,NA,15,1,12.359,NA
"806","8","false_70",86,1,86,0,NA,40,1,11.423,NA
"807","8","false_70",87,1,87,0,NA,100,1,6.855,NA
"808","8","false_70",88,1,88,0,NA,58,1,23.253,NA
"809","8","false_70",89,1,89,0,NA,100,1,10.478,NA
"810","8","false_70",90,1,90,0,NA,39,1,6.614,NA
"811","8","true_50",91,1,91,0,NA,0,0,13.958,NA
"812","8","true_50",92,1,92,0,NA,55,0,8.202,NA
"813","8","true_50",93,1,93,0,NA,40,0,8.737,NA
"814","8","true_50",94,1,94,0,NA,55,0,16.118,NA
"815","8","true_50",95,1,95,0,NA,60,0,4.998,NA
"816","8","true_60",96,1,96,0,NA,89,0,10.053,NA
"817","8","true_60",97,1,97,0,NA,65,0,6.837,NA
"818","8","true_60",98,1,98,0,NA,56,0,16.363,NA
"819","8","true_60",99,1,99,0,NA,60,0,8.079,NA
"820","8","true_60",100,1,100,0,NA,53,0,9.702,NA
"821","8","true_70",101,1,101,0,NA,67,0,17.062,NA
"822","8","true_70",102,1,102,0,NA,79,0,10.312,NA
"823","8","true_70",103,1,103,0,NA,57,0,6.413,NA
"824","8","true_70",104,1,104,0,NA,70,0,8.074,NA
"825","8","true_70",105,1,105,0,NA,79,0,16.603,NA
"826","8","false_50",106,1,106,0,NA,70,0,7.378,NA
"827","8","false_50",107,1,107,0,NA,57,0,16.141,NA
"828","8","false_50",108,1,108,0,NA,36,0,6.832,NA
"829","8","false_50",109,1,109,0,NA,11,0,16.022,NA
"830","8","false_50",110,1,110,0,NA,100,0,9.353,NA
"831","8","false_60",111,1,111,0,NA,87,0,11.901,NA
"832","8","false_60",112,1,112,0,NA,41,0,9.216,NA
"833","8","false_60",113,1,113,0,NA,47,0,10.321,NA
"834","8","false_60",114,1,114,0,NA,43,0,9.328,NA
"835","8","false_60",115,1,115,0,NA,54,0,10.628,NA
"836","8","false_70",116,1,116,0,NA,29,0,15.94,NA
"837","8","false_70",117,1,117,0,NA,43,0,7.119,NA
"838","8","false_70",118,1,118,0,NA,36,0,7.416,NA
"839","8","false_70",119,1,119,0,NA,45,0,15.599,NA
"840","8","false_70",120,1,120,0,NA,25,0,11.903,NA
"841","16","true_50",1,1,1,1,NA,32,1,4.099,NA
"842","16","true_50",2,1,2,1,NA,75,1,3.22,NA
"843","16","true_50",3,1,3,1,NA,37,1,3.42,NA
"844","16","true_50",4,1,4,1,NA,41,1,4.047,NA
"845","16","true_50",5,1,5,1,NA,100,1,6.751,NA
"846","16","true_60",6,1,6,1,NA,26,1,2.921,NA
"847","16","true_60",7,1,7,1,NA,100,1,5.671,NA
"848","16","true_60",8,1,8,1,NA,64,1,5.662,NA
"849","16","true_60",9,1,9,1,NA,61,1,4.155,NA
"850","16","true_60",10,1,10,1,NA,95,1,3.65,NA
"851","16","true_70",11,1,11,1,NA,58,1,7.504,NA
"852","16","true_70",12,1,12,1,NA,100,1,5.339,NA
"853","16","true_70",13,1,13,1,NA,100,1,2.596,NA
"854","16","true_70",14,1,14,1,NA,100,1,5.114,NA
"855","16","true_70",15,1,15,1,NA,92,1,10.201,NA
"856","16","false_50",16,1,16,1,NA,23,1,8.013,NA
"857","16","false_50",17,1,17,1,NA,42,1,5.856,NA
"858","16","false_50",18,1,18,1,NA,100,1,3.855,NA
"859","16","false_50",19,1,19,1,NA,100,1,4.182,NA
"860","16","false_50",20,1,20,1,NA,38,1,5.535,NA
"861","16","false_60",21,1,21,1,NA,100,1,3.262,NA
"862","16","false_60",22,1,22,1,NA,89,1,2.877,NA
"863","16","false_60",23,1,23,1,NA,72,1,4.95,NA
"864","16","false_60",24,1,24,1,NA,100,1,5.372,NA
"865","16","false_60",25,1,25,1,NA,40,1,4.096,NA
"866","16","false_70",26,1,26,1,NA,64,1,5.08,NA
"867","16","false_70",27,1,27,1,NA,100,1,5.661,NA
"868","16","false_70",28,1,28,1,NA,92,1,8.032,NA
"869","16","false_70",29,1,29,1,NA,100,1,4.133,NA
"870","16","false_70",30,1,30,1,NA,60,1,3.921,NA
"871","16","true_50",31,1,31,1,NA,42,0,5.203,NA
"872","16","true_50",32,1,32,1,NA,30,0,4.14,NA
"873","16","true_50",33,1,33,1,NA,31,0,6.119,NA
"874","16","true_50",34,1,34,1,NA,63,0,6.153,NA
"875","16","true_50",35,1,35,1,NA,96,0,3.737,NA
"876","16","true_60",36,1,36,1,NA,40,0,4.023,NA
"877","16","true_60",37,1,37,1,NA,38,0,6.848,NA
"878","16","true_60",38,1,38,1,NA,57,0,6.893,NA
"879","16","true_60",39,1,39,1,NA,37,0,3.992,NA
"880","16","true_60",40,1,40,1,NA,37,0,5.983,NA
"881","16","true_70",41,1,41,1,NA,59,0,4.79,NA
"882","16","true_70",42,1,42,1,NA,25,0,3.894,NA
"883","16","true_70",43,1,43,1,NA,58,0,6.074,NA
"884","16","true_70",44,1,44,1,NA,69,0,3.549,NA
"885","16","true_70",45,1,45,1,NA,60,0,6.77,NA
"886","16","false_50",46,1,46,1,NA,62,0,5.423,NA
"887","16","false_50",47,1,47,1,NA,29,0,6.609,NA
"888","16","false_50",48,1,48,1,NA,38,0,3.752,NA
"889","16","false_50",49,1,49,1,NA,45,0,5.854,NA
"890","16","false_50",50,1,50,1,NA,29,0,3.896,NA
"891","16","false_60",51,1,51,1,NA,58,0,3.921,NA
"892","16","false_60",52,1,52,1,NA,88,0,3.886,NA
"893","16","false_60",53,1,53,1,NA,42,0,5.081,NA
"894","16","false_60",54,1,54,1,NA,67,0,4.595,NA
"895","16","false_60",55,1,55,1,NA,58,0,3.84,NA
"896","16","false_70",56,1,56,1,NA,42,0,7.354,NA
"897","16","false_70",57,1,57,1,NA,64,0,6.902,NA
"898","16","false_70",58,1,58,1,NA,34,0,6.339,NA
"899","16","false_70",59,1,59,1,NA,37,0,4.369,NA
"900","16","false_70",60,1,60,1,NA,62,0,6.482,NA
"901","16","true_50",61,1,61,0,NA,74,1,3.416,NA
"902","16","true_50",62,1,62,0,NA,35,1,5.881,NA
"903","16","true_50",63,1,63,0,NA,95,1,6.459,NA
"904","16","true_50",64,1,64,0,NA,63,1,3.915,NA
"905","16","true_50",65,1,65,0,NA,98,1,4.162,NA
"906","16","true_60",66,1,66,0,NA,100,1,3.606,NA
"907","16","true_60",67,1,67,0,NA,25,1,4.126,NA
"908","16","true_60",68,1,68,0,NA,85,1,3.28,NA
"909","16","true_60",69,1,69,0,NA,100,1,3.293,NA
"910","16","true_60",70,1,70,0,NA,57,1,12.273,NA
"911","16","true_70",71,1,71,0,NA,61,1,6.352,NA
"912","16","true_70",72,1,72,0,NA,70,1,5.261,NA
"913","16","true_70",73,1,73,0,NA,44,1,5.253,NA
"914","16","true_70",74,1,74,0,NA,91,1,7.195,NA
"915","16","true_70",75,1,75,0,NA,100,1,4.219,NA
"916","16","false_50",76,1,76,0,NA,100,1,3.858,NA
"917","16","false_50",77,1,77,0,NA,22,1,3.904,NA
"918","16","false_50",78,1,78,0,NA,57,1,6.199,NA
"919","16","false_50",79,1,79,0,NA,100,1,6.629,NA
"920","16","false_50",80,1,80,0,NA,21,1,3.742,NA
"921","16","false_60",81,1,81,0,NA,38,1,3.879,NA
"922","16","false_60",82,1,82,0,NA,74,1,14.032,NA
"923","16","false_60",83,1,83,0,NA,76,1,3.265,NA
"924","16","false_60",84,1,84,0,NA,43,1,3.541,NA
"925","16","false_60",85,1,85,0,NA,31,1,6.596,NA
"926","16","false_70",86,1,86,0,NA,100,1,3.44,NA
"927","16","false_70",87,1,87,0,NA,31,1,2.964,NA
"928","16","false_70",88,1,88,0,NA,96,1,3.558,NA
"929","16","false_70",89,1,89,0,NA,95,1,4.942,NA
"930","16","false_70",90,1,90,0,NA,100,1,3.752,NA
"931","16","true_50",91,1,91,0,NA,33,0,3.346,NA
"932","16","true_50",92,1,92,0,NA,24,0,4.518,NA
"933","16","true_50",93,1,93,0,NA,36,0,3.479,NA
"934","16","true_50",94,1,94,0,NA,35,0,3.656,NA
"935","16","true_50",95,1,95,0,NA,43,0,5.877,NA
"936","16","true_60",96,1,96,0,NA,28,0,3.801,NA
"937","16","true_60",97,1,97,0,NA,95,0,7.174,NA
"938","16","true_60",98,1,98,0,NA,40,0,3.784,NA
"939","16","true_60",99,1,99,0,NA,69,0,4.406,NA
"940","16","true_60",100,1,100,0,NA,34,0,4.221,NA
"941","16","true_70",101,1,101,0,NA,63,0,4.729,NA
"942","16","true_70",102,1,102,0,NA,37,0,4.148,NA
"943","16","true_70",103,1,103,0,NA,58,0,7.384,NA
"944","16","true_70",104,1,104,0,NA,77,0,4.436,NA
"945","16","true_70",105,1,105,0,NA,80,0,7.519,NA
"946","16","false_50",106,1,106,0,NA,37,0,4.58,NA
"947","16","false_50",107,1,107,0,NA,93,0,5.872,NA
"948","16","false_50",108,1,108,0,NA,39,0,5.365,NA
"949","16","false_50",109,1,109,0,NA,31,0,5.086,NA
"950","16","false_50",110,1,110,0,NA,35,0,3.602,NA
"951","16","false_60",111,1,111,0,NA,69,0,4.37,NA
"952","16","false_60",112,1,112,0,NA,68,0,10.963,NA
"953","16","false_60",113,1,113,0,NA,37,0,5.062,NA
"954","16","false_60",114,1,114,0,NA,69,0,4.809,NA
"955","16","false_60",115,1,115,0,NA,39,0,5.986,NA
"956","16","false_70",116,1,116,0,NA,82,0,3.926,NA
"957","16","false_70",117,1,117,0,NA,33,0,3.943,NA
"958","16","false_70",118,1,118,0,NA,58,0,4.14,NA
"959","16","false_70",119,1,119,0,NA,80,0,2.829,NA
"960","16","false_70",120,1,120,0,NA,95,0,4.014,NA
"961","20","true_50",1,1,1,1,NA,39,1,6.037,NA
"962","20","true_50",2,1,2,1,NA,100,1,3.5,NA
"963","20","true_50",3,1,3,1,NA,100,1,3.813,NA
"964","20","true_50",4,1,4,1,NA,20,1,4.109,NA
"965","20","true_50",5,1,5,1,NA,0,1,3.749,NA
"966","20","true_60",6,1,6,1,NA,9,1,4.904,NA
"967","20","true_60",7,1,7,1,NA,100,1,4.354,NA
"968","20","true_60",8,1,8,1,NA,17,1,6.086,NA
"969","20","true_60",9,1,9,1,NA,47,1,5.261,NA
"970","20","true_60",10,1,10,1,NA,0,1,4.256,NA
"971","20","true_70",11,1,11,1,NA,77,1,3.483,NA
"972","20","true_70",12,1,12,1,NA,47,1,3.532,NA
"973","20","true_70",13,1,13,1,NA,63,1,3.169,NA
"974","20","true_70",14,1,14,1,NA,65,1,6.114,NA
"975","20","true_70",15,1,15,1,NA,57,1,3.749,NA
"976","20","false_50",16,1,16,1,NA,0,1,6.459,NA
"977","20","false_50",17,1,17,1,NA,49,1,5.188,NA
"978","20","false_50",18,1,18,1,NA,5,1,2.907,NA
"979","20","false_50",19,1,19,1,NA,49,1,8.119,NA
"980","20","false_50",20,1,20,1,NA,27,1,3.397,NA
"981","20","false_60",21,1,21,1,NA,0,1,3.952,NA
"982","20","false_60",22,1,22,1,NA,100,1,5.018,NA
"983","20","false_60",23,1,23,1,NA,70,1,13.247,NA
"984","20","false_60",24,1,24,1,NA,0,1,4.495,NA
"985","20","false_60",25,1,25,1,NA,59,1,2.465,NA
"986","20","false_70",26,1,26,1,NA,0,1,4.512,NA
"987","20","false_70",27,1,27,1,NA,100,1,4.149,NA
"988","20","false_70",28,1,28,1,NA,0,1,4.469,NA
"989","20","false_70",29,1,29,1,NA,0,1,3.487,NA
"990","20","false_70",30,1,30,1,NA,55,1,3.463,NA
"991","20","true_50",31,1,31,1,NA,98,0,4.11,NA
"992","20","true_50",32,1,32,1,NA,0,0,11.094,NA
"993","20","true_50",33,1,33,1,NA,54,0,3.422,NA
"994","20","true_50",34,1,34,1,NA,68,0,5.922,NA
"995","20","true_50",35,1,35,1,NA,100,0,5.066,NA
"996","20","true_60",36,1,36,1,NA,66,0,7.657,NA
"997","20","true_60",37,1,37,1,NA,100,0,5.025,NA
"998","20","true_60",38,1,38,1,NA,100,0,3.697,NA
"999","20","true_60",39,1,39,1,NA,0,0,5.006,NA
"1000","20","true_60",40,1,40,1,NA,100,0,5.05,NA
"1001","20","true_70",41,1,41,1,NA,67,0,3.211,NA
"1002","20","true_70",42,1,42,1,NA,70,0,4.22,NA
"1003","20","true_70",43,1,43,1,NA,100,0,6.753,NA
"1004","20","true_70",44,1,44,1,NA,0,0,5.207,NA
"1005","20","true_70",45,1,45,1,NA,62,0,4.544,NA
"1006","20","false_50",46,1,46,1,NA,1,0,3.488,NA
"1007","20","false_50",47,1,47,1,NA,4,0,3.879,NA
"1008","20","false_50",48,1,48,1,NA,0,0,5.991,NA
"1009","20","false_50",49,1,49,1,NA,3,0,5.015,NA
"1010","20","false_50",50,1,50,1,NA,41,0,3.518,NA
"1011","20","false_60",51,1,51,1,NA,89,0,6.051,NA
"1012","20","false_60",52,1,52,1,NA,0,0,5.469,NA
"1013","20","false_60",53,1,53,1,NA,5,0,7.783,NA
"1014","20","false_60",54,1,54,1,NA,64,0,4.513,NA
"1015","20","false_60",55,1,55,1,NA,35,0,3.702,NA
"1016","20","false_70",56,1,56,1,NA,0,0,3.272,NA
"1017","20","false_70",57,1,57,1,NA,0,0,4.647,NA
"1018","20","false_70",58,1,58,1,NA,72,0,5.806,NA
"1019","20","false_70",59,1,59,1,NA,24,0,6.079,NA
"1020","20","false_70",60,1,60,1,NA,0,0,6.135,NA
"1021","20","true_50",61,1,61,0,NA,100,1,2.892,NA
"1022","20","true_50",62,1,62,0,NA,90,1,3.827,NA
"1023","20","true_50",63,1,63,0,NA,54,1,4.51,NA
"1024","20","true_50",64,1,64,0,NA,100,1,4.169,NA
"1025","20","true_50",65,1,65,0,NA,30,1,4.126,NA
"1026","20","true_60",66,1,66,0,NA,58,1,6.511,NA
"1027","20","true_60",67,1,67,0,NA,64,1,3.938,NA
"1028","20","true_60",68,1,68,0,NA,39,1,2.585,NA
"1029","20","true_60",69,1,69,0,NA,60,1,3.077,NA
"1030","20","true_60",70,1,70,0,NA,100,1,3.841,NA
"1031","20","true_70",71,1,71,0,NA,98,1,5.368,NA
"1032","20","true_70",72,1,72,0,NA,65,1,3.53,NA
"1033","20","true_70",73,1,73,0,NA,34,1,4.6,NA
"1034","20","true_70",74,1,74,0,NA,32,1,4.741,NA
"1035","20","true_70",75,1,75,0,NA,58,1,3.174,NA
"1036","20","false_50",76,1,76,0,NA,15,1,5.057,NA
"1037","20","false_50",77,1,77,0,NA,63,1,7.903,NA
"1038","20","false_50",78,1,78,0,NA,100,1,5.988,NA
"1039","20","false_50",79,1,79,0,NA,0,1,3.355,NA
"1040","20","false_50",80,1,80,0,NA,13,1,5.081,NA
"1041","20","false_60",81,1,81,0,NA,58,1,12.137,NA
"1042","20","false_60",82,1,82,0,NA,4,1,6.906,NA
"1043","20","false_60",83,1,83,0,NA,49,1,5.195,NA
"1044","20","false_60",84,1,84,0,NA,0,1,4.128,NA
"1045","20","false_60",85,1,85,0,NA,89,1,19.805,NA
"1046","20","false_70",86,1,86,0,NA,86,1,4.458,NA
"1047","20","false_70",87,1,87,0,NA,29,1,4.118,NA
"1048","20","false_70",88,1,88,0,NA,2,1,2.572,NA
"1049","20","false_70",89,1,89,0,NA,0,1,3.329,NA
"1050","20","false_70",90,1,90,0,NA,0,1,6.823,NA
"1051","20","true_50",91,1,91,0,NA,17,0,2.837,NA
"1052","20","true_50",92,1,92,0,NA,38,0,4.663,NA
"1053","20","true_50",93,1,93,0,NA,49,0,5.974,NA
"1054","20","true_50",94,1,94,0,NA,100,0,7.022,NA
"1055","20","true_50",95,1,95,0,NA,61,0,3.304,NA
"1056","20","true_60",96,1,96,0,NA,82,0,3.088,NA
"1057","20","true_60",97,1,97,0,NA,67,0,3.453,NA
"1058","20","true_60",98,1,98,0,NA,99,0,7.322,NA
"1059","20","true_60",99,1,99,0,NA,55,0,5.185,NA
"1060","20","true_60",100,1,100,0,NA,28,0,4.324,NA
"1061","20","true_70",101,1,101,0,NA,60,0,3.692,NA
"1062","20","true_70",102,1,102,0,NA,73,0,12.548,NA
"1063","20","true_70",103,1,103,0,NA,100,0,3.488,NA
"1064","20","true_70",104,1,104,0,NA,47,0,6.358,NA
"1065","20","true_70",105,1,105,0,NA,65,0,4.04,NA
"1066","20","false_50",106,1,106,0,NA,6,0,4.584,NA
"1067","20","false_50",107,1,107,0,NA,0,0,4.778,NA
"1068","20","false_50",108,1,108,0,NA,16,0,7.598,NA
"1069","20","false_50",109,1,109,0,NA,16,0,7.055,NA
"1070","20","false_50",110,1,110,0,NA,49,0,8.337,NA
"1071","20","false_60",111,1,111,0,NA,0,0,9.662,NA
"1072","20","false_60",112,1,112,0,NA,26,0,4.425,NA
"1073","20","false_60",113,1,113,0,NA,30,0,5.15,NA
"1074","20","false_60",114,1,114,0,NA,9,0,3.844,NA
"1075","20","false_60",115,1,115,0,NA,0,0,3.312,NA
"1076","20","false_70",116,1,116,0,NA,64,0,8.562,NA
"1077","20","false_70",117,1,117,0,NA,85,0,4.949,NA
"1078","20","false_70",118,1,118,0,NA,0,0,5.624,NA
"1079","20","false_70",119,1,119,0,NA,0,0,5.543,NA
"1080","20","false_70",120,1,120,0,NA,37,0,3.999,NA
"1081","26","true_50",1,1,1,1,NA,100,1,5.487,NA
"1082","26","true_50",2,1,2,1,NA,69,1,3.899,NA
"1083","26","true_50",3,1,3,1,NA,90,1,4.331,NA
"1084","26","true_50",4,1,4,1,NA,68,1,8.674,NA
"1085","26","true_50",5,1,5,1,NA,28,1,8.726,NA
"1086","26","true_60",6,1,6,1,NA,40,1,6.651,NA
"1087","26","true_60",7,1,7,1,NA,42,1,8.252,NA
"1088","26","true_60",8,1,8,1,NA,72,1,4.186,NA
"1089","26","true_60",9,1,9,1,NA,100,1,4.52,NA
"1090","26","true_60",10,1,10,1,NA,60,1,3.308,NA
"1091","26","true_70",11,1,11,1,NA,56,1,4.597,NA
"1092","26","true_70",12,1,12,1,NA,83,1,4.386,NA
"1093","26","true_70",13,1,13,1,NA,100,1,5.317,NA
"1094","26","true_70",14,1,14,1,NA,68,1,3.825,NA
"1095","26","true_70",15,1,15,1,NA,61,1,6.177,NA
"1096","26","false_50",16,1,16,1,NA,72,1,3.541,NA
"1097","26","false_50",17,1,17,1,NA,74,1,3.151,NA
"1098","26","false_50",18,1,18,1,NA,67,1,3.923,NA
"1099","26","false_50",19,1,19,1,NA,47,1,7.52,NA
"1100","26","false_50",20,1,20,1,NA,89,1,5.22,NA
"1101","26","false_60",21,1,21,1,NA,65,1,10.548,NA
"1102","26","false_60",22,1,22,1,NA,100,1,5.034,NA
"1103","26","false_60",23,1,23,1,NA,89,1,3.524,NA
"1104","26","false_60",24,1,24,1,NA,84,1,4.687,NA
"1105","26","false_60",25,1,25,1,NA,65,1,5.162,NA
"1106","26","false_70",26,1,26,1,NA,100,1,5.682,NA
"1107","26","false_70",27,1,27,1,NA,75,1,3.218,NA
"1108","26","false_70",28,1,28,1,NA,83,1,2.853,NA
"1109","26","false_70",29,1,29,1,NA,78,1,3.657,NA
"1110","26","false_70",30,1,30,1,NA,32,1,6.862,NA
"1111","26","true_50",31,1,31,1,NA,56,0,8.425,NA
"1112","26","true_50",32,1,32,1,NA,19,0,7.398,NA
"1113","26","true_50",33,1,33,1,NA,83,0,11.196,NA
"1114","26","true_50",34,1,34,1,NA,43,0,6.269,NA
"1115","26","true_50",35,1,35,1,NA,60,0,4.757,NA
"1116","26","true_60",36,1,36,1,NA,86,0,9.836,NA
"1117","26","true_60",37,1,37,1,NA,35,0,10.672,NA
"1118","26","true_60",38,1,38,1,NA,77,0,4.751,NA
"1119","26","true_60",39,1,39,1,NA,57,0,10.156,NA
"1120","26","true_60",40,1,40,1,NA,63,0,3.736,NA
"1121","26","true_70",41,1,41,1,NA,59,0,3.972,NA
"1122","26","true_70",42,1,42,1,NA,70,0,6.009,NA
"1123","26","true_70",43,1,43,1,NA,77,0,5.53,NA
"1124","26","true_70",44,1,44,1,NA,42,0,5.568,NA
"1125","26","true_70",45,1,45,1,NA,67,0,8.304,NA
"1126","26","false_50",46,1,46,1,NA,0,0,6.81,NA
"1127","26","false_50",47,1,47,1,NA,39,0,4.755,NA
"1128","26","false_50",48,1,48,1,NA,37,0,4.694,NA
"1129","26","false_50",49,1,49,1,NA,43,0,7.499,NA
"1130","26","false_50",50,1,50,1,NA,45,0,3.977,NA
"1131","26","false_60",51,1,51,1,NA,71,0,5.717,NA
"1132","26","false_60",52,1,52,1,NA,12,0,6.286,NA
"1133","26","false_60",53,1,53,1,NA,31,0,8.203,NA
"1134","26","false_60",54,1,54,1,NA,36,0,5.048,NA
"1135","26","false_60",55,1,55,1,NA,44,0,5.693,NA
"1136","26","false_70",56,1,56,1,NA,37,0,5.712,NA
"1137","26","false_70",57,1,57,1,NA,44,0,7.373,NA
"1138","26","false_70",58,1,58,1,NA,42,0,5.126,NA
"1139","26","false_70",59,1,59,1,NA,59,0,8.411,NA
"1140","26","false_70",60,1,60,1,NA,10,0,7.39,NA
"1141","26","true_50",61,1,61,0,NA,81,1,3.393,NA
"1142","26","true_50",62,1,62,0,NA,75,1,6.81,NA
"1143","26","true_50",63,1,63,0,NA,41,1,6.582,NA
"1144","26","true_50",64,1,64,0,NA,76,1,4.463,NA
"1145","26","true_50",65,1,65,0,NA,79,1,5.779,NA
"1146","26","true_60",66,1,66,0,NA,90,1,3.41,NA
"1147","26","true_60",67,1,67,0,NA,64,1,3.929,NA
"1148","26","true_60",68,1,68,0,NA,68,1,5.012,NA
"1149","26","true_60",69,1,69,0,NA,69,1,7.431,NA
"1150","26","true_60",70,1,70,0,NA,67,1,5.266,NA
"1151","26","true_70",71,1,71,0,NA,100,1,4.562,NA
"1152","26","true_70",72,1,72,0,NA,87,1,5.737,NA
"1153","26","true_70",73,1,73,0,NA,95,1,4.051,NA
"1154","26","true_70",74,1,74,0,NA,55,1,5.358,NA
"1155","26","true_70",75,1,75,0,NA,66,1,4.889,NA
"1156","26","false_50",76,1,76,0,NA,71,1,4.039,NA
"1157","26","false_50",77,1,77,0,NA,92,1,4.473,NA
"1158","26","false_50",78,1,78,0,NA,45,1,5.299,NA
"1159","26","false_50",79,1,79,0,NA,84,1,5.486,NA
"1160","26","false_50",80,1,80,0,NA,87,1,7.311,NA
"1161","26","false_60",81,1,81,0,NA,100,1,7.968,NA
"1162","26","false_60",82,1,82,0,NA,70,1,2.717,NA
"1163","26","false_60",83,1,83,0,NA,100,1,4.971,NA
"1164","26","false_60",84,1,84,0,NA,65,1,4.072,NA
"1165","26","false_60",85,1,85,0,NA,44,1,7.147,NA
"1166","26","false_70",86,1,86,0,NA,41,1,5.587,NA
"1167","26","false_70",87,1,87,0,NA,47,1,4.86,NA
"1168","26","false_70",88,1,88,0,NA,68,1,4.056,NA
"1169","26","false_70",89,1,89,0,NA,34,1,4.164,NA
"1170","26","false_70",90,1,90,0,NA,100,1,4.726,NA
"1171","26","true_50",91,1,91,0,NA,30,0,7.039,NA
"1172","26","true_50",92,1,92,0,NA,74,0,6.61,NA
"1173","26","true_50",93,1,93,0,NA,86,0,9.915,NA
"1174","26","true_50",94,1,94,0,NA,46,0,4.864,NA
"1175","26","true_50",95,1,95,0,NA,35,0,4.192,NA
"1176","26","true_60",96,1,96,0,NA,65,0,4.94,NA
"1177","26","true_60",97,1,97,0,NA,31,0,6.253,NA
"1178","26","true_60",98,1,98,0,NA,0,0,7.03,NA
"1179","26","true_60",99,1,99,0,NA,40,0,6.116,NA
"1180","26","true_60",100,1,100,0,NA,56,0,4.963,NA
"1181","26","true_70",101,1,101,0,NA,63,0,3.923,NA
"1182","26","true_70",102,1,102,0,NA,69,0,6.527,NA
"1183","26","true_70",103,1,103,0,NA,66,0,6.21,NA
"1184","26","true_70",104,1,104,0,NA,40,0,5.918,NA
"1185","26","true_70",105,1,105,0,NA,62,0,6.342,NA
"1186","26","false_50",106,1,106,0,NA,31,0,4.729,NA
"1187","26","false_50",107,1,107,0,NA,66,0,5.217,NA
"1188","26","false_50",108,1,108,0,NA,32,0,7.721,NA
"1189","26","false_50",109,1,109,0,NA,47,0,4.713,NA
"1190","26","false_50",110,1,110,0,NA,0,0,8.992,NA
"1191","26","false_60",111,1,111,0,NA,0,0,5.083,NA
"1192","26","false_60",112,1,112,0,NA,70,0,4.921,NA
"1193","26","false_60",113,1,113,0,NA,28,0,3.837,NA
"1194","26","false_60",114,1,114,0,NA,45,0,5.148,NA
"1195","26","false_60",115,1,115,0,NA,42,0,5.494,NA
"1196","26","false_70",116,1,116,0,NA,11,0,7.802,NA
"1197","26","false_70",117,1,117,0,NA,44,0,6.722,NA
"1198","26","false_70",118,1,118,0,NA,65,0,6.743,NA
"1199","26","false_70",119,1,119,0,NA,36,0,5.074,NA
"1200","26","false_70",120,1,120,0,NA,65,0,5.815,NA
"1201","30","true_50",1,1,1,1,NA,53,1,3.783,NA
"1202","30","true_50",2,1,2,1,NA,57,1,4.195,NA
"1203","30","true_50",3,1,3,1,NA,55,1,3.505,NA
"1204","30","true_50",4,1,4,1,NA,16,1,8.09,NA
"1205","30","true_50",5,1,5,1,NA,38,1,6.27,NA
"1206","30","true_60",6,1,6,1,NA,56,1,3.899,NA
"1207","30","true_60",7,1,7,1,NA,52,1,3.948,NA
"1208","30","true_60",8,1,8,1,NA,21,1,6.511,NA
"1209","30","true_60",9,1,9,1,NA,54,1,5.791,NA
"1210","30","true_60",10,1,10,1,NA,93,1,3.931,NA
"1211","30","true_70",11,1,11,1,NA,55,1,6.846,NA
"1212","30","true_70",12,1,12,1,NA,0,1,6.412,NA
"1213","30","true_70",13,1,13,1,NA,100,1,5.576,NA
"1214","30","true_70",14,1,14,1,NA,26,1,3.273,NA
"1215","30","true_70",15,1,15,1,NA,65,1,4.671,NA
"1216","30","false_50",16,1,16,1,NA,56,1,4.58,NA
"1217","30","false_50",17,1,17,1,NA,100,1,5.504,NA
"1218","30","false_50",18,1,18,1,NA,0,1,7.826,NA
"1219","30","false_50",19,1,19,1,NA,38,1,3.862,NA
"1220","30","false_50",20,1,20,1,NA,45,1,7.048,NA
"1221","30","false_60",21,1,21,1,NA,53,1,4.09,NA
"1222","30","false_60",22,1,22,1,NA,40,1,4.024,NA
"1223","30","false_60",23,1,23,1,NA,2,1,4.195,NA
"1224","30","false_60",24,1,24,1,NA,0,1,4.113,NA
"1225","30","false_60",25,1,25,1,NA,20,1,7.759,NA
"1226","30","false_70",26,1,26,1,NA,0,1,4.914,NA
"1227","30","false_70",27,1,27,1,NA,22,1,7.657,NA
"1228","30","false_70",28,1,28,1,NA,45,1,4.366,NA
"1229","30","false_70",29,1,29,1,NA,0,1,4.351,NA
"1230","30","false_70",30,1,30,1,NA,40,1,5.823,NA
"1231","30","true_50",31,1,31,1,NA,61,0,7.312,NA
"1232","30","true_50",32,1,32,1,NA,48,0,7.237,NA
"1233","30","true_50",33,1,33,1,NA,55,0,4.418,NA
"1234","30","true_50",34,1,34,1,NA,90,0,5.493,NA
"1235","30","true_50",35,1,35,1,NA,85,0,7.993,NA
"1236","30","true_60",36,1,36,1,NA,55,0,4.087,NA
"1237","30","true_60",37,1,37,1,NA,80,0,4.806,NA
"1238","30","true_60",38,1,38,1,NA,55,0,3.057,NA
"1239","30","true_60",39,1,39,1,NA,55,0,6.221,NA
"1240","30","true_60",40,1,40,1,NA,62,0,9.16,NA
"1241","30","true_70",41,1,41,1,NA,95,0,5.715,NA
"1242","30","true_70",42,1,42,1,NA,87,0,4.713,NA
"1243","30","true_70",43,1,43,1,NA,85,0,5.412,NA
"1244","30","true_70",44,1,44,1,NA,68,0,5.286,NA
"1245","30","true_70",45,1,45,1,NA,100,0,9.814,NA
"1246","30","false_50",46,1,46,1,NA,65,0,4.362,NA
"1247","30","false_50",47,1,47,1,NA,43,0,4.492,NA
"1248","30","false_50",48,1,48,1,NA,60,0,4.391,NA
"1249","30","false_50",49,1,49,1,NA,100,0,5.507,NA
"1250","30","false_50",50,1,50,1,NA,88,0,5.654,NA
"1251","30","false_60",51,1,51,1,NA,39,0,4.625,NA
"1252","30","false_60",52,1,52,1,NA,0,0,5.839,NA
"1253","30","false_60",53,1,53,1,NA,55,0,6.719,NA
"1254","30","false_60",54,1,54,1,NA,40,0,4.515,NA
"1255","30","false_60",55,1,55,1,NA,100,0,6.441,NA
"1256","30","false_70",56,1,56,1,NA,37,0,5.099,NA
"1257","30","false_70",57,1,57,1,NA,85,0,22.176,NA
"1258","30","false_70",58,1,58,1,NA,35,0,4.795,NA
"1259","30","false_70",59,1,59,1,NA,39,0,6.893,NA
"1260","30","false_70",60,1,60,1,NA,0,0,7.455,NA
"1261","30","true_50",61,1,61,0,NA,10,1,5.603,NA
"1262","30","true_50",62,1,62,0,NA,75,1,3.373,NA
"1263","30","true_50",63,1,63,0,NA,60,1,4.486,NA
"1264","30","true_50",64,1,64,0,NA,20,1,5.202,NA
"1265","30","true_50",65,1,65,0,NA,51,1,4.107,NA
"1266","30","true_60",66,1,66,0,NA,100,1,11.756,NA
"1267","30","true_60",67,1,67,0,NA,20,1,8.419,NA
"1268","30","true_60",68,1,68,0,NA,56,1,4.198,NA
"1269","30","true_60",69,1,69,0,NA,94,1,4.14,NA
"1270","30","true_60",70,1,70,0,NA,65,1,9.026,NA
"1271","30","true_70",71,1,71,0,NA,75,1,4.239,NA
"1272","30","true_70",72,1,72,0,NA,71,1,4.756,NA
"1273","30","true_70",73,1,73,0,NA,39,1,3.125,NA
"1274","30","true_70",74,1,74,0,NA,38,1,6.025,NA
"1275","30","true_70",75,1,75,0,NA,67,1,4.105,NA
"1276","30","false_50",76,1,76,0,NA,44,1,5.172,NA
"1277","30","false_50",77,1,77,0,NA,45,1,5.359,NA
"1278","30","false_50",78,1,78,0,NA,100,1,6.993,NA
"1279","30","false_50",79,1,79,0,NA,58,1,4.277,NA
"1280","30","false_50",80,1,80,0,NA,45,1,5.43,NA
"1281","30","false_60",81,1,81,0,NA,55,1,4.225,NA
"1282","30","false_60",82,1,82,0,NA,42,1,3.891,NA
"1283","30","false_60",83,1,83,0,NA,58,1,4.579,NA
"1284","30","false_60",84,1,84,0,NA,30,1,4.939,NA
"1285","30","false_60",85,1,85,0,NA,0,1,12.571,NA
"1286","30","false_70",86,1,86,0,NA,81,1,4.588,NA
"1287","30","false_70",87,1,87,0,NA,45,1,3.071,NA
"1288","30","false_70",88,1,88,0,NA,21,1,6.577,NA
"1289","30","false_70",89,1,89,0,NA,0,1,4.569,NA
"1290","30","false_70",90,1,90,0,NA,35,1,5.066,NA
"1291","30","true_50",91,1,91,0,NA,55,0,5.971,NA
"1292","30","true_50",92,1,92,0,NA,78,0,4.591,NA
"1293","30","true_50",93,1,93,0,NA,0,0,8.65,NA
"1294","30","true_50",94,1,94,0,NA,0,0,9.33,NA
"1295","30","true_50",95,1,95,0,NA,55,0,5.211,NA
"1296","30","true_60",96,1,96,0,NA,33,0,3.997,NA
"1297","30","true_60",97,1,97,0,NA,55,0,10.642,NA
"1298","30","true_60",98,1,98,0,NA,55,0,6.477,NA
"1299","30","true_60",99,1,99,0,NA,55,0,5.693,NA
"1300","30","true_60",100,1,100,0,NA,76,0,4.41,NA
"1301","30","true_70",101,1,101,0,NA,76,0,5.264,NA
"1302","30","true_70",102,1,102,0,NA,55,0,3.501,NA
"1303","30","true_70",103,1,103,0,NA,59,0,10.847,NA
"1304","30","true_70",104,1,104,0,NA,60,0,4.677,NA
"1305","30","true_70",105,1,105,0,NA,58,0,5.009,NA
"1306","30","false_50",106,1,106,0,NA,39,0,3.543,NA
"1307","30","false_50",107,1,107,0,NA,54,0,6.78,NA
"1308","30","false_50",108,1,108,0,NA,46,0,5.012,NA
"1309","30","false_50",109,1,109,0,NA,45,0,3.996,NA
"1310","30","false_50",110,1,110,0,NA,0,0,6.314,NA
"1311","30","false_60",111,1,111,0,NA,89,0,6.89,NA
"1312","30","false_60",112,1,112,0,NA,56,0,8.704,NA
"1313","30","false_60",113,1,113,0,NA,40,0,5.365,NA
"1314","30","false_60",114,1,114,0,NA,20,0,6.044,NA
"1315","30","false_60",115,1,115,0,NA,39,0,3.643,NA
"1316","30","false_70",116,1,116,0,NA,69,0,7.424,NA
"1317","30","false_70",117,1,117,0,NA,45,0,6.997,NA
"1318","30","false_70",118,1,118,0,NA,37,0,5.155,NA
"1319","30","false_70",119,1,119,0,NA,25,0,7.218,NA
"1320","30","false_70",120,1,120,0,NA,0,0,6.616,NA
"1321","10","true_50",1,1,1,1,NA,52,1,6.961,NA
"1322","10","true_50",2,1,2,1,NA,49,1,3.382,NA
"1323","10","true_50",3,1,3,1,NA,87,1,3.37,NA
"1324","10","true_50",4,1,4,1,NA,0,1,7.075,NA
"1325","10","true_50",5,1,5,1,NA,74,1,12.983,NA
"1326","10","true_60",6,1,6,1,NA,100,1,4.432,NA
"1327","10","true_60",7,1,7,1,NA,31,1,7.702,NA
"1328","10","true_60",8,1,8,1,NA,77,1,10.96,NA
"1329","10","true_60",9,1,9,1,NA,46,1,5.402,NA
"1330","10","true_60",10,1,10,1,NA,100,1,12.689,NA
"1331","10","true_70",11,1,11,1,NA,49,1,13.347,NA
"1332","10","true_70",12,1,12,1,NA,51,1,8.01,NA
"1333","10","true_70",13,1,13,1,NA,0,1,5.166,NA
"1334","10","true_70",14,1,14,1,NA,94,1,11.134,NA
"1335","10","true_70",15,1,15,1,NA,69,1,5.393,NA
"1336","10","false_50",16,1,16,1,NA,0,1,8.741,NA
"1337","10","false_50",17,1,17,1,NA,89,1,6.513,NA
"1338","10","false_50",18,1,18,1,NA,37,1,8.836,NA
"1339","10","false_50",19,1,19,1,NA,51,1,3.265,NA
"1340","10","false_50",20,1,20,1,NA,19,1,5.789,NA
"1341","10","false_60",21,1,21,1,NA,54,1,8.939,NA
"1342","10","false_60",22,1,22,1,NA,89,1,10.936,NA
"1343","10","false_60",23,1,23,1,NA,0,1,3.672,NA
"1344","10","false_60",24,1,24,1,NA,84,1,6.39,NA
"1345","10","false_60",25,1,25,1,NA,73,1,11.989,NA
"1346","10","false_70",26,1,26,1,NA,66,1,10.756,NA
"1347","10","false_70",27,1,27,1,NA,59,1,7.513,NA
"1348","10","false_70",28,1,28,1,NA,74,1,6.695,NA
"1349","10","false_70",29,1,29,1,NA,0,1,9.467,NA
"1350","10","false_70",30,1,30,1,NA,52,1,6.393,NA
"1351","10","true_50",31,1,31,1,NA,52,0,2.921,NA
"1352","10","true_50",32,1,32,1,NA,50,0,7.204,NA
"1353","10","true_50",33,1,33,1,NA,35,0,5.222,NA
"1354","10","true_50",34,1,34,1,NA,0,0,16.39,NA
"1355","10","true_50",35,1,35,1,NA,85,0,4.235,NA
"1356","10","true_60",36,1,36,1,NA,33,0,9.53,NA
"1357","10","true_60",37,1,37,1,NA,50,0,10.102,NA
"1358","10","true_60",38,1,38,1,NA,31,0,6.299,NA
"1359","10","true_60",39,1,39,1,NA,16,0,5.53,NA
"1360","10","true_60",40,1,40,1,NA,22,0,5.136,NA
"1361","10","true_70",41,1,41,1,NA,69,0,3.403,NA
"1362","10","true_70",42,1,42,1,NA,26,0,5.159,NA
"1363","10","true_70",43,1,43,1,NA,48,0,5.399,NA
"1364","10","true_70",44,1,44,1,NA,0,0,7.095,NA
"1365","10","true_70",45,1,45,1,NA,76,0,5.521,NA
"1366","10","false_50",46,1,46,1,NA,49,0,4.954,NA
"1367","10","false_50",47,1,47,1,NA,91,0,5.394,NA
"1368","10","false_50",48,1,48,1,NA,0,0,9.856,NA
"1369","10","false_50",49,1,49,1,NA,76,0,3.694,NA
"1370","10","false_50",50,1,50,1,NA,22,0,5.253,NA
"1371","10","false_60",51,1,51,1,NA,0,0,17.708,NA
"1372","10","false_60",52,1,52,1,NA,52,0,3.809,NA
"1373","10","false_60",53,1,53,1,NA,29,0,3.222,NA
"1374","10","false_60",54,1,54,1,NA,51,0,3.796,NA
"1375","10","false_60",55,1,55,1,NA,0,0,4.927,NA
"1376","10","false_70",56,1,56,1,NA,51,0,7.497,NA
"1377","10","false_70",57,1,57,1,NA,16,0,7.029,NA
"1378","10","false_70",58,1,58,1,NA,51,0,4.613,NA
"1379","10","false_70",59,1,59,1,NA,100,0,7.791,NA
"1380","10","false_70",60,1,60,1,NA,76,0,5.523,NA
"1381","10","true_50",61,1,61,0,NA,89,1,30.246,NA
"1382","10","true_50",62,1,62,0,NA,58,1,6.905,NA
"1383","10","true_50",63,1,63,0,NA,51,1,4.576,NA
"1384","10","true_50",64,1,64,0,NA,61,1,3.662,NA
"1385","10","true_50",65,1,65,0,NA,75,1,9.947,NA
"1386","10","true_60",66,1,66,0,NA,34,1,8.755,NA
"1387","10","true_60",67,1,67,0,NA,0,1,12.369,NA
"1388","10","true_60",68,1,68,0,NA,0,1,8.045,NA
"1389","10","true_60",69,1,69,0,NA,32,1,6.148,NA
"1390","10","true_60",70,1,70,0,NA,21,1,6.552,NA
"1391","10","true_70",71,1,71,0,NA,17,1,12.975,NA
"1392","10","true_70",72,1,72,0,NA,51,1,2.926,NA
"1393","10","true_70",73,1,73,0,NA,0,1,10.671,NA
"1394","10","true_70",74,1,74,0,NA,47,1,2.937,NA
"1395","10","true_70",75,1,75,0,NA,95,1,6.773,NA
"1396","10","false_50",76,1,76,0,NA,33,1,6.335,NA
"1397","10","false_50",77,1,77,0,NA,0,1,6.067,NA
"1398","10","false_50",78,1,78,0,NA,0,1,12.077,NA
"1399","10","false_50",79,1,79,0,NA,28,1,3.038,NA
"1400","10","false_50",80,1,80,0,NA,88,1,11.023,NA
"1401","10","false_60",81,1,81,0,NA,51,1,5.647,NA
"1402","10","false_60",82,1,82,0,NA,55,1,8.904,NA
"1403","10","false_60",83,1,83,0,NA,1,1,3.041,NA
"1404","10","false_60",84,1,84,0,NA,2,1,3.469,NA
"1405","10","false_60",85,1,85,0,NA,21,1,6.919,NA
"1406","10","false_70",86,1,86,0,NA,80,1,4.04,NA
"1407","10","false_70",87,1,87,0,NA,0,1,5.863,NA
"1408","10","false_70",88,1,88,0,NA,0,1,7.479,NA
"1409","10","false_70",89,1,89,0,NA,49,1,5.919,NA
"1410","10","false_70",90,1,90,0,NA,0,1,3.54,NA
"1411","10","true_50",91,1,91,0,NA,49,0,5.267,NA
"1412","10","true_50",92,1,92,0,NA,100,0,8.893,NA
"1413","10","true_50",93,1,93,0,NA,51,0,4.763,NA
"1414","10","true_50",94,1,94,0,NA,52,0,4.537,NA
"1415","10","true_50",95,1,95,0,NA,46,0,3.545,NA
"1416","10","true_60",96,1,96,0,NA,51,0,6.552,NA
"1417","10","true_60",97,1,97,0,NA,51,0,6.368,NA
"1418","10","true_60",98,1,98,0,NA,100,0,8.928,NA
"1419","10","true_60",99,1,99,0,NA,49,0,3.863,NA
"1420","10","true_60",100,1,100,0,NA,38,0,12.969,NA
"1421","10","true_70",101,1,101,0,NA,54,0,5.747,NA
"1422","10","true_70",102,1,102,0,NA,35,0,8.523,NA
"1423","10","true_70",103,1,103,0,NA,71,0,9.6,NA
"1424","10","true_70",104,1,104,0,NA,76,0,4.78,NA
"1425","10","true_70",105,1,105,0,NA,0,0,7.37,NA
"1426","10","false_50",106,1,106,0,NA,49,0,5.428,NA
"1427","10","false_50",107,1,107,0,NA,53,0,7.606,NA
"1428","10","false_50",108,1,108,0,NA,48,0,5.556,NA
"1429","10","false_50",109,1,109,0,NA,52,0,7.825,NA
"1430","10","false_50",110,1,110,0,NA,52,0,8.554,NA
"1431","10","false_60",111,1,111,0,NA,49,0,3.219,NA
"1432","10","false_60",112,1,112,0,NA,51,0,7.601,NA
"1433","10","false_60",113,1,113,0,NA,52,0,3.216,NA
"1434","10","false_60",114,1,114,0,NA,65,0,6.807,NA
"1435","10","false_60",115,1,115,0,NA,22,0,4.105,NA
"1436","10","false_70",116,1,116,0,NA,34,0,3.839,NA
"1437","10","false_70",117,1,117,0,NA,49,0,8.645,NA
"1438","10","false_70",118,1,118,0,NA,76,0,12.532,NA
"1439","10","false_70",119,1,119,0,NA,100,0,9.086,NA
"1440","10","false_70",120,1,120,0,NA,67,0,5.205,NA
"1441","15","true_50",1,1,1,1,NA,53,1,6.119,NA
"1442","15","true_50",2,1,2,1,NA,53,1,4.171,NA
"1443","15","true_50",3,1,3,1,NA,49,1,3.427,NA
"1444","15","true_50",4,1,4,1,NA,52,1,9.467,NA
"1445","15","true_50",5,1,5,1,NA,54,1,11.518,NA
"1446","15","true_60",6,1,6,1,NA,56,1,4.805,NA
"1447","15","true_60",7,1,7,1,NA,55,1,4.018,NA
"1448","15","true_60",8,1,8,1,NA,52,1,9.52,NA
"1449","15","true_60",9,1,9,1,NA,48,1,21.756,NA
"1450","15","true_60",10,1,10,1,NA,51,1,4.438,NA
"1451","15","true_70",11,1,11,1,NA,50,1,5.745,NA
"1452","15","true_70",12,1,12,1,NA,58,1,6.144,NA
"1453","15","true_70",13,1,13,1,NA,51,1,23.727,NA
"1454","15","true_70",14,1,14,1,NA,49,1,8.893,NA
"1455","15","true_70",15,1,15,1,NA,59,1,5.713,NA
"1456","15","false_50",16,1,16,1,NA,50,1,7.791,NA
"1457","15","false_50",17,1,17,1,NA,56,1,11.008,NA
"1458","15","false_50",18,1,18,1,NA,50,1,5.569,NA
"1459","15","false_50",19,1,19,1,NA,49,1,5.199,NA
"1460","15","false_50",20,1,20,1,NA,53,1,7.802,NA
"1461","15","false_60",21,1,21,1,NA,50,1,13.837,NA
"1462","15","false_60",22,1,22,1,NA,45,1,7.279,NA
"1463","15","false_60",23,1,23,1,NA,46,1,4.958,NA
"1464","15","false_60",24,1,24,1,NA,48,1,8.363,NA
"1465","15","false_60",25,1,25,1,NA,49,1,4.963,NA
"1466","15","false_70",26,1,26,1,NA,49,1,6.059,NA
"1467","15","false_70",27,1,27,1,NA,49,1,5.029,NA
"1468","15","false_70",28,1,28,1,NA,53,1,16.157,NA
"1469","15","false_70",29,1,29,1,NA,49,1,9.648,NA
"1470","15","false_70",30,1,30,1,NA,52,1,35.03,NA
"1471","15","true_50",31,1,31,1,NA,47,0,6.129,NA
"1472","15","true_50",32,1,32,1,NA,50,0,7.429,NA
"1473","15","true_50",33,1,33,1,NA,52,0,7.45,NA
"1474","15","true_50",34,1,34,1,NA,53,0,6,NA
"1475","15","true_50",35,1,35,1,NA,51,0,9.345,NA
"1476","15","true_60",36,1,36,1,NA,51,0,8.172,NA
"1477","15","true_60",37,1,37,1,NA,56,0,10.564,NA
"1478","15","true_60",38,1,38,1,NA,52,0,5.398,NA
"1479","15","true_60",39,1,39,1,NA,50,0,6.048,NA
"1480","15","true_60",40,1,40,1,NA,47,0,14.762,NA
"1481","15","true_70",41,1,41,1,NA,56,0,5.013,NA
"1482","15","true_70",42,1,42,1,NA,56,0,9.368,NA
"1483","15","true_70",43,1,43,1,NA,49,0,7.101,NA
"1484","15","true_70",44,1,44,1,NA,47,0,7.664,NA
"1485","15","true_70",45,1,45,1,NA,52,0,9.326,NA
"1486","15","false_50",46,1,46,1,NA,49,0,8.256,NA
"1487","15","false_50",47,1,47,1,NA,49,0,6.746,NA
"1488","15","false_50",48,1,48,1,NA,53,0,9.134,NA
"1489","15","false_50",49,1,49,1,NA,46,0,12.049,NA
"1490","15","false_50",50,1,50,1,NA,57,0,11.447,NA
"1491","15","false_60",51,1,51,1,NA,50,0,6.513,NA
"1492","15","false_60",52,1,52,1,NA,43,0,34.399,NA
"1493","15","false_60",53,1,53,1,NA,50,0,7.814,NA
"1494","15","false_60",54,1,54,1,NA,47,0,50.61,NA
"1495","15","false_60",55,1,55,1,NA,49,0,8.03,NA
"1496","15","false_70",56,1,56,1,NA,50,0,6.807,NA
"1497","15","false_70",57,1,57,1,NA,48,0,12.79,NA
"1498","15","false_70",58,1,58,1,NA,48,0,13.604,NA
"1499","15","false_70",59,1,59,1,NA,50,0,7.826,NA
"1500","15","false_70",60,1,60,1,NA,49,0,6.056,NA
"1501","15","true_50",61,1,61,0,NA,49,1,6.088,NA
"1502","15","true_50",62,1,62,0,NA,48,1,8.133,NA
"1503","15","true_50",63,1,63,0,NA,42,1,10.813,NA
"1504","15","true_50",64,1,64,0,NA,53,1,12.94,NA
"1505","15","true_50",65,1,65,0,NA,49,1,8.281,NA
"1506","15","true_60",66,1,66,0,NA,52,1,6.44,NA
"1507","15","true_60",67,1,67,0,NA,53,1,5.545,NA
"1508","15","true_60",68,1,68,0,NA,54,1,9.98,NA
"1509","15","true_60",69,1,69,0,NA,53,1,5.33,NA
"1510","15","true_60",70,1,70,0,NA,45,1,7.764,NA
"1511","15","true_70",71,1,71,0,NA,51,1,5.903,NA
"1512","15","true_70",72,1,72,0,NA,48,1,9.124,NA
"1513","15","true_70",73,1,73,0,NA,51,1,12.986,NA
"1514","15","true_70",74,1,74,0,NA,55,1,9.281,NA
"1515","15","true_70",75,1,75,0,NA,53,1,7.921,NA
"1516","15","false_50",76,1,76,0,NA,49,1,5.721,NA
"1517","15","false_50",77,1,77,0,NA,45,1,31.699,NA
"1518","15","false_50",78,1,78,0,NA,50,1,5.686,NA
"1519","15","false_50",79,1,79,0,NA,48,1,3.286,NA
"1520","15","false_50",80,1,80,0,NA,49,1,4.602,NA
"1521","15","false_60",81,1,81,0,NA,49,1,4.89,NA
"1522","15","false_60",82,1,82,0,NA,47,1,11.628,NA
"1523","15","false_60",83,1,83,0,NA,49,1,8.38,NA
"1524","15","false_60",84,1,84,0,NA,50,1,6.932,NA
"1525","15","false_60",85,1,85,0,NA,54,1,28.196,NA
"1526","15","false_70",86,1,86,0,NA,49,1,5.182,NA
"1527","15","false_70",87,1,87,0,NA,49,1,14.601,NA
"1528","15","false_70",88,1,88,0,NA,49,1,5.068,NA
"1529","15","false_70",89,1,89,0,NA,52,1,11.443,NA
"1530","15","false_70",90,1,90,0,NA,49,1,9.063,NA
"1531","15","true_50",91,1,91,0,NA,50,0,7.448,NA
"1532","15","true_50",92,1,92,0,NA,52,0,5.976,NA
"1533","15","true_50",93,1,93,0,NA,50,0,7.31,NA
"1534","15","true_50",94,1,94,0,NA,52,0,4.235,NA
"1535","15","true_50",95,1,95,0,NA,53,0,5.48,NA
"1536","15","true_60",96,1,96,0,NA,51,0,4.472,NA
"1537","15","true_60",97,1,97,0,NA,48,0,15.022,NA
"1538","15","true_60",98,1,98,0,NA,49,0,15.313,NA
"1539","15","true_60",99,1,99,0,NA,50,0,6.761,NA
"1540","15","true_60",100,1,100,0,NA,56,0,8.46,NA
"1541","15","true_70",101,1,101,0,NA,50,0,6.536,NA
"1542","15","true_70",102,1,102,0,NA,48,0,16.412,NA
"1543","15","true_70",103,1,103,0,NA,51,0,6.049,NA
"1544","15","true_70",104,1,104,0,NA,53,0,7.182,NA
"1545","15","true_70",105,1,105,0,NA,47,0,9.196,NA
"1546","15","false_50",106,1,106,0,NA,54,0,5.109,NA
"1547","15","false_50",107,1,107,0,NA,47,0,7.464,NA
"1548","15","false_50",108,1,108,0,NA,50,0,19.296,NA
"1549","15","false_50",109,1,109,0,NA,49,0,5.575,NA
"1550","15","false_50",110,1,110,0,NA,63,0,15.14,NA
"1551","15","false_60",111,1,111,0,NA,57,0,12.858,NA
"1552","15","false_60",112,1,112,0,NA,51,0,14.5,NA
"1553","15","false_60",113,1,113,0,NA,49,0,4.948,NA
"1554","15","false_60",114,1,114,0,NA,51,0,8.14,NA
"1555","15","false_60",115,1,115,0,NA,50,0,6.917,NA
"1556","15","false_70",116,1,116,0,NA,51,0,10.304,NA
"1557","15","false_70",117,1,117,0,NA,53,0,42.645,NA
"1558","15","false_70",118,1,118,0,NA,52,0,5.609,NA
"1559","15","false_70",119,1,119,0,NA,44,0,11.5,NA
"1560","15","false_70",120,1,120,0,NA,49,0,9.228,NA
"1561","19","true_50",1,1,1,1,NA,44,1,3.894,NA
"1562","19","true_50",2,1,2,1,NA,47,1,11.553,NA
"1563","19","true_50",3,1,3,1,NA,68,1,4.773,NA
"1564","19","true_50",4,1,4,1,NA,43,1,5.682,NA
"1565","19","true_50",5,1,5,1,NA,81,1,6.219,NA
"1566","19","true_60",6,1,6,1,NA,66,1,13.289,NA
"1567","19","true_60",7,1,7,1,NA,49,1,5.005,NA
"1568","19","true_60",8,1,8,1,NA,65,1,5.399,NA
"1569","19","true_60",9,1,9,1,NA,100,1,5.009,NA
"1570","19","true_60",10,1,10,1,NA,40,1,6.301,NA
"1571","19","true_70",11,1,11,1,NA,41,1,3.246,NA
"1572","19","true_70",12,1,12,1,NA,79,1,4.225,NA
"1573","19","true_70",13,1,13,1,NA,27,1,9.713,NA
"1574","19","true_70",14,1,14,1,NA,51,1,16.444,NA
"1575","19","true_70",15,1,15,1,NA,100,1,6.947,NA
"1576","19","false_50",16,1,16,1,NA,100,1,10.791,NA
"1577","19","false_50",17,1,17,1,NA,43,1,12.453,NA
"1578","19","false_50",18,1,18,1,NA,100,1,4.129,NA
"1579","19","false_50",19,1,19,1,NA,59,1,7.336,NA
"1580","19","false_50",20,1,20,1,NA,46,1,5.445,NA
"1581","19","false_60",21,1,21,1,NA,43,1,9.893,NA
"1582","19","false_60",22,1,22,1,NA,0,1,7.968,NA
"1583","19","false_60",23,1,23,1,NA,100,1,6.331,NA
"1584","19","false_60",24,1,24,1,NA,48,1,3.263,NA
"1585","19","false_60",25,1,25,1,NA,48,1,7.604,NA
"1586","19","false_70",26,1,26,1,NA,47,1,4.501,NA
"1587","19","false_70",27,1,27,1,NA,16,1,5.688,NA
"1588","19","false_70",28,1,28,1,NA,58,1,4.886,NA
"1589","19","false_70",29,1,29,1,NA,22,1,9.522,NA
"1590","19","false_70",30,1,30,1,NA,100,1,8.68,NA
"1591","19","true_50",31,1,31,1,NA,51,0,5.097,NA
"1592","19","true_50",32,1,32,1,NA,61,0,5.106,NA
"1593","19","true_50",33,1,33,1,NA,100,0,7.895,NA
"1594","19","true_50",34,1,34,1,NA,55,0,7.144,NA
"1595","19","true_50",35,1,35,1,NA,100,0,7.942,NA
"1596","19","true_60",36,1,36,1,NA,73,0,11.197,NA
"1597","19","true_60",37,1,37,1,NA,11,0,9.996,NA
"1598","19","true_60",38,1,38,1,NA,42,0,2.699,NA
"1599","19","true_60",39,1,39,1,NA,48,0,11.927,NA
"1600","19","true_60",40,1,40,1,NA,100,0,25.182,NA
"1601","19","true_70",41,1,41,1,NA,62,0,6.005,NA
"1602","19","true_70",42,1,42,1,NA,57,0,5.505,NA
"1603","19","true_70",43,1,43,1,NA,54,0,10.478,NA
"1604","19","true_70",44,1,44,1,NA,44,0,6.765,NA
"1605","19","true_70",45,1,45,1,NA,45,0,5.878,NA
"1606","19","false_50",46,1,46,1,NA,39,0,6.126,NA
"1607","19","false_50",47,1,47,1,NA,53,0,10.75,NA
"1608","19","false_50",48,1,48,1,NA,47,0,7.185,NA
"1609","19","false_50",49,1,49,1,NA,74,0,7.192,NA
"1610","19","false_50",50,1,50,1,NA,58,0,8.329,NA
"1611","19","false_60",51,1,51,1,NA,61,0,6.117,NA
"1612","19","false_60",52,1,52,1,NA,76,0,14.536,NA
"1613","19","false_60",53,1,53,1,NA,0,0,12.959,NA
"1614","19","false_60",54,1,54,1,NA,47,0,6.286,NA
"1615","19","false_60",55,1,55,1,NA,46,0,4.794,NA
"1616","19","false_70",56,1,56,1,NA,74,0,4.94,NA
"1617","19","false_70",57,1,57,1,NA,42,0,13.293,NA
"1618","19","false_70",58,1,58,1,NA,33,0,10.399,NA
"1619","19","false_70",59,1,59,1,NA,46,0,12.644,NA
"1620","19","false_70",60,1,60,1,NA,63,0,5.173,NA
"1621","19","true_50",61,1,61,0,NA,89,1,5.054,NA
"1622","19","true_50",62,1,62,0,NA,36,1,7.912,NA
"1623","19","true_50",63,1,63,0,NA,44,1,6.185,NA
"1624","19","true_50",64,1,64,0,NA,100,1,7.847,NA
"1625","19","true_50",65,1,65,0,NA,51,1,4.217,NA
"1626","19","true_60",66,1,66,0,NA,100,1,5.266,NA
"1627","19","true_60",67,1,67,0,NA,18,1,11.64,NA
"1628","19","true_60",68,1,68,0,NA,41,1,8.161,NA
"1629","19","true_60",69,1,69,0,NA,28,1,6.033,NA
"1630","19","true_60",70,1,70,0,NA,47,1,10.972,NA
"1631","19","true_70",71,1,71,0,NA,0,1,12.035,NA
"1632","19","true_70",72,1,72,0,NA,61,1,6.943,NA
"1633","19","true_70",73,1,73,0,NA,44,1,5.817,NA
"1634","19","true_70",74,1,74,0,NA,27,1,3.675,NA
"1635","19","true_70",75,1,75,0,NA,84,1,5.153,NA
"1636","19","false_50",76,1,76,0,NA,48,1,6.757,NA
"1637","19","false_50",77,1,77,0,NA,22,1,6.874,NA
"1638","19","false_50",78,1,78,0,NA,46,1,3.691,NA
"1639","19","false_50",79,1,79,0,NA,49,1,9.197,NA
"1640","19","false_50",80,1,80,0,NA,49,1,3.372,NA
"1641","19","false_60",81,1,81,0,NA,41,1,4.116,NA
"1642","19","false_60",82,1,82,0,NA,58,1,4.718,NA
"1643","19","false_60",83,1,83,0,NA,44,1,3.574,NA
"1644","19","false_60",84,1,84,0,NA,56,1,5.697,NA
"1645","19","false_60",85,1,85,0,NA,61,1,8.936,NA
"1646","19","false_70",86,1,86,0,NA,42,1,10.57,NA
"1647","19","false_70",87,1,87,0,NA,49,1,9.558,NA
"1648","19","false_70",88,1,88,0,NA,65,1,8.899,NA
"1649","19","false_70",89,1,89,0,NA,75,1,6.349,NA
"1650","19","false_70",90,1,90,0,NA,100,1,4.13,NA
"1651","19","true_50",91,1,91,0,NA,47,0,6.619,NA
"1652","19","true_50",92,1,92,0,NA,44,0,3.774,NA
"1653","19","true_50",93,1,93,0,NA,49,0,4.932,NA
"1654","19","true_50",94,1,94,0,NA,24,0,7.924,NA
"1655","19","true_50",95,1,95,0,NA,44,0,4.684,NA
"1656","19","true_60",96,1,96,0,NA,49,0,2.645,NA
"1657","19","true_60",97,1,97,0,NA,0,0,10.742,NA
"1658","19","true_60",98,1,98,0,NA,59,0,8.43,NA
"1659","19","true_60",99,1,99,0,NA,41,0,8.311,NA
"1660","19","true_60",100,1,100,0,NA,22,0,8.845,NA
"1661","19","true_70",101,1,101,0,NA,47,0,20.611,NA
"1662","19","true_70",102,1,102,0,NA,58,0,13.696,NA
"1663","19","true_70",103,1,103,0,NA,100,0,20.359,NA
"1664","19","true_70",104,1,104,0,NA,43,0,3.778,NA
"1665","19","true_70",105,1,105,0,NA,36,0,4.147,NA
"1666","19","false_50",106,1,106,0,NA,23,0,16.216,NA
"1667","19","false_50",107,1,107,0,NA,44,0,6.078,NA
"1668","19","false_50",108,1,108,0,NA,61,0,4.376,NA
"1669","19","false_50",109,1,109,0,NA,46,0,5.692,NA
"1670","19","false_50",110,1,110,0,NA,74,0,7.284,NA
"1671","19","false_60",111,1,111,0,NA,46,0,5.886,NA
"1672","19","false_60",112,1,112,0,NA,0,0,8.375,NA
"1673","19","false_60",113,1,113,0,NA,100,0,8.459,NA
"1674","19","false_60",114,1,114,0,NA,47,0,12.631,NA
"1675","19","false_60",115,1,115,0,NA,47,0,5.776,NA
"1676","19","false_70",116,1,116,0,NA,27,0,7.431,NA
"1677","19","false_70",117,1,117,0,NA,42,0,9.032,NA
"1678","19","false_70",118,1,118,0,NA,56,0,20.28,NA
"1679","19","false_70",119,1,119,0,NA,24,0,6.159,NA
"1680","19","false_70",120,1,120,0,NA,0,0,7.054,NA
"1681","25","true_50",1,1,1,1,NA,34,1,5.178,NA
"1682","25","true_50",2,1,2,1,NA,85,1,14.671,NA
"1683","25","true_50",3,1,3,1,NA,38,1,8.163,NA
"1684","25","true_50",4,1,4,1,NA,65,1,8.184,NA
"1685","25","true_50",5,1,5,1,NA,34,1,3.373,NA
"1686","25","true_60",6,1,6,1,NA,37,1,9.746,NA
"1687","25","true_60",7,1,7,1,NA,71,1,3.434,NA
"1688","25","true_60",8,1,8,1,NA,42,1,10.142,NA
"1689","25","true_60",9,1,9,1,NA,62,1,3.399,NA
"1690","25","true_60",10,1,10,1,NA,65,1,7.689,NA
"1691","25","true_70",11,1,11,1,NA,93,1,7.163,NA
"1692","25","true_70",12,1,12,1,NA,66,1,3.848,NA
"1693","25","true_70",13,1,13,1,NA,69,1,8.105,NA
"1694","25","true_70",14,1,14,1,NA,56,1,5.509,NA
"1695","25","true_70",15,1,15,1,NA,36,1,11.9,NA
"1696","25","false_50",16,1,16,1,NA,65,1,3.54,NA
"1697","25","false_50",17,1,17,1,NA,36,1,7.417,NA
"1698","25","false_50",18,1,18,1,NA,63,1,3.902,NA
"1699","25","false_50",19,1,19,1,NA,96,1,16.989,NA
"1700","25","false_50",20,1,20,1,NA,38,1,6.671,NA
"1701","25","false_60",21,1,21,1,NA,65,1,4.182,NA
"1702","25","false_60",22,1,22,1,NA,98,1,26.629,NA
"1703","25","false_60",23,1,23,1,NA,32,1,7.093,NA
"1704","25","false_60",24,1,24,1,NA,75,1,3.958,NA
"1705","25","false_60",25,1,25,1,NA,44,1,6.1,NA
"1706","25","false_70",26,1,26,1,NA,30,1,5.639,NA
"1707","25","false_70",27,1,27,1,NA,56,1,6.396,NA
"1708","25","false_70",28,1,28,1,NA,97,1,4.817,NA
"1709","25","false_70",29,1,29,1,NA,67,1,3.577,NA
"1710","25","false_70",30,1,30,1,NA,72,1,4.682,NA
"1711","25","true_50",31,1,31,1,NA,33,0,6.634,NA
"1712","25","true_50",32,1,32,1,NA,60,0,4.805,NA
"1713","25","true_50",33,1,33,1,NA,55,0,4.423,NA
"1714","25","true_50",34,1,34,1,NA,87,0,16.594,NA
"1715","25","true_50",35,1,35,1,NA,24,0,9.651,NA
"1716","25","true_60",36,1,36,1,NA,58,0,3.99,NA
"1717","25","true_60",37,1,37,1,NA,43,0,8.166,NA
"1718","25","true_60",38,1,38,1,NA,95,0,15.198,NA
"1719","25","true_60",39,1,39,1,NA,34,0,9.193,NA
"1720","25","true_60",40,1,40,1,NA,60,0,4.877,NA
"1721","25","true_70",41,1,41,1,NA,69,0,3.734,NA
"1722","25","true_70",42,1,42,1,NA,61,0,7.2,NA
"1723","25","true_70",43,1,43,1,NA,40,0,7,NA
"1724","25","true_70",44,1,44,1,NA,54,0,9.296,NA
"1725","25","true_70",45,1,45,1,NA,33,0,7.555,NA
"1726","25","false_50",46,1,46,1,NA,30,0,7.891,NA
"1727","25","false_50",47,1,47,1,NA,41,0,6.95,NA
"1728","25","false_50",48,1,48,1,NA,68,0,7.115,NA
"1729","25","false_50",49,1,49,1,NA,33,0,10.685,NA
"1730","25","false_50",50,1,50,1,NA,46,0,7.042,NA
"1731","25","false_60",51,1,51,1,NA,48,0,8.319,NA
"1732","25","false_60",52,1,52,1,NA,42,0,6.578,NA
"1733","25","false_60",53,1,53,1,NA,11,0,7.686,NA
"1734","25","false_60",54,1,54,1,NA,34,0,7.518,NA
"1735","25","false_60",55,1,55,1,NA,40,0,5.205,NA
"1736","25","false_70",56,1,56,1,NA,24,0,5.744,NA
"1737","25","false_70",57,1,57,1,NA,29,0,4.638,NA
"1738","25","false_70",58,1,58,1,NA,39,0,5.232,NA
"1739","25","false_70",59,1,59,1,NA,39,0,12.683,NA
"1740","25","false_70",60,1,60,1,NA,65,0,4.959,NA
"1741","25","true_50",61,1,61,0,NA,57,1,3.186,NA
"1742","25","true_50",62,1,62,0,NA,16,1,14.331,NA
"1743","25","true_50",63,1,63,0,NA,41,1,6.892,NA
"1744","25","true_50",64,1,64,0,NA,69,1,4.985,NA
"1745","25","true_50",65,1,65,0,NA,71,1,4.973,NA
"1746","25","true_60",66,1,66,0,NA,55,1,6.844,NA
"1747","25","true_60",67,1,67,0,NA,61,1,4.605,NA
"1748","25","true_60",68,1,68,0,NA,76,1,7.04,NA
"1749","25","true_60",69,1,69,0,NA,59,1,3.54,NA
"1750","25","true_60",70,1,70,0,NA,45,1,6.12,NA
"1751","25","true_70",71,1,71,0,NA,72,1,5.75,NA
"1752","25","true_70",72,1,72,0,NA,72,1,5.484,NA
"1753","25","true_70",73,1,73,0,NA,41,1,9.308,NA
"1754","25","true_70",74,1,74,0,NA,38,1,5.491,NA
"1755","25","true_70",75,1,75,0,NA,35,1,6.069,NA
"1756","25","false_50",76,1,76,0,NA,28,1,8.61,NA
"1757","25","false_50",77,1,77,0,NA,36,1,7.757,NA
"1758","25","false_50",78,1,78,0,NA,56,1,5.125,NA
"1759","25","false_50",79,1,79,0,NA,0,1,7.057,NA
"1760","25","false_50",80,1,80,0,NA,0,1,16.062,NA
"1761","25","false_60",81,1,81,0,NA,64,1,4.897,NA
"1762","25","false_60",82,1,82,0,NA,76,1,71.329,NA
"1763","25","false_60",83,1,83,0,NA,43,1,7.784,NA
"1764","25","false_60",84,1,84,0,NA,39,1,4.194,NA
"1765","25","false_60",85,1,85,0,NA,35,1,4.22,NA
"1766","25","false_70",86,1,86,0,NA,46,1,8.927,NA
"1767","25","false_70",87,1,87,0,NA,58,1,5.648,NA
"1768","25","false_70",88,1,88,0,NA,36,1,7.46,NA
"1769","25","false_70",89,1,89,0,NA,64,1,6.65,NA
"1770","25","false_70",90,1,90,0,NA,67,1,3.276,NA
"1771","25","true_50",91,1,91,0,NA,18,0,8.699,NA
"1772","25","true_50",92,1,92,0,NA,61,0,10.797,NA
"1773","25","true_50",93,1,93,0,NA,45,0,10.281,NA
"1774","25","true_50",94,1,94,0,NA,42,0,5.309,NA
"1775","25","true_50",95,1,95,0,NA,100,0,8.048,NA
"1776","25","true_60",96,1,96,0,NA,32,0,7.973,NA
"1777","25","true_60",97,1,97,0,NA,64,0,4.312,NA
"1778","25","true_60",98,1,98,0,NA,60,0,6.732,NA
"1779","25","true_60",99,1,99,0,NA,61,0,6.021,NA
"1780","25","true_60",100,1,100,0,NA,23,0,20.384,NA
"1781","25","true_70",101,1,101,0,NA,36,0,6.979,NA
"1782","25","true_70",102,1,102,0,NA,62,0,12.816,NA
"1783","25","true_70",103,1,103,0,NA,10,0,8.005,NA
"1784","25","true_70",104,1,104,0,NA,63,0,4.467,NA
"1785","25","true_70",105,1,105,0,NA,63,0,5.048,NA
"1786","25","false_50",106,1,106,0,NA,63,0,7.462,NA
"1787","25","false_50",107,1,107,0,NA,33,0,7.933,NA
"1788","25","false_50",108,1,108,0,NA,62,0,20.727,NA
"1789","25","false_50",109,1,109,0,NA,44,0,4.378,NA
"1790","25","false_50",110,1,110,0,NA,37,0,7.748,NA
"1791","25","false_60",111,1,111,0,NA,10,0,4.845,NA
"1792","25","false_60",112,1,112,0,NA,37,0,4.324,NA
"1793","25","false_60",113,1,113,0,NA,43,0,4.759,NA
"1794","25","false_60",114,1,114,0,NA,12,0,10.062,NA
"1795","25","false_60",115,1,115,0,NA,58,0,7.257,NA
"1796","25","false_70",116,1,116,0,NA,38,0,18.835,NA
"1797","25","false_70",117,1,117,0,NA,25,0,15.559,NA
"1798","25","false_70",118,1,118,0,NA,63,0,6.443,NA
"1799","25","false_70",119,1,119,0,NA,20,0,6.223,NA
"1800","25","false_70",120,1,120,0,NA,39,0,5.749,NA
"1801","32","true_50",1,1,1,1,NA,51,1,7.222,NA
"1802","32","true_50",2,1,2,1,NA,59,1,6.143,NA
"1803","32","true_50",3,1,3,1,NA,55,1,6.73,NA
"1804","32","true_50",4,1,4,1,NA,39,1,10.976,NA
"1805","32","true_50",5,1,5,1,NA,59,1,4.16,NA
"1806","32","true_60",6,1,6,1,NA,58,1,5.574,NA
"1807","32","true_60",7,1,7,1,NA,82,1,5.519,NA
"1808","32","true_60",8,1,8,1,NA,71,1,5.298,NA
"1809","32","true_60",9,1,9,1,NA,64,1,9.672,NA
"1810","32","true_60",10,1,10,1,NA,98,1,3.914,NA
"1811","32","true_70",11,1,11,1,NA,71,1,3.774,NA
"1812","32","true_70",12,1,12,1,NA,91,1,13.294,NA
"1813","32","true_70",13,1,13,1,NA,100,1,6.108,NA
"1814","32","true_70",14,1,14,1,NA,80,1,4.963,NA
"1815","32","true_70",15,1,15,1,NA,100,1,4.073,NA
"1816","32","false_50",16,1,16,1,NA,40,1,12.14,NA
"1817","32","false_50",17,1,17,1,NA,93,1,11.286,NA
"1818","32","false_50",18,1,18,1,NA,37,1,5.109,NA
"1819","32","false_50",19,1,19,1,NA,60,1,5.184,NA
"1820","32","false_50",20,1,20,1,NA,95,1,7.939,NA
"1821","32","false_60",21,1,21,1,NA,4,1,32.708,NA
"1822","32","false_60",22,1,22,1,NA,70,1,4.388,NA
"1823","32","false_60",23,1,23,1,NA,81,1,9.138,NA
"1824","32","false_60",24,1,24,1,NA,37,1,5.996,NA
"1825","32","false_60",25,1,25,1,NA,90,1,6.236,NA
"1826","32","false_70",26,1,26,1,NA,90,1,4.006,NA
"1827","32","false_70",27,1,27,1,NA,12,1,4.801,NA
"1828","32","false_70",28,1,28,1,NA,26,1,5.849,NA
"1829","32","false_70",29,1,29,1,NA,12,1,12.009,NA
"1830","32","false_70",30,1,30,1,NA,12,1,5.865,NA
"1831","32","true_50",31,1,31,1,NA,65,0,9.003,NA
"1832","32","true_50",32,1,32,1,NA,55,0,7.764,NA
"1833","32","true_50",33,1,33,1,NA,55,0,6.614,NA
"1834","32","true_50",34,1,34,1,NA,34,0,9.376,NA
"1835","32","true_50",35,1,35,1,NA,58,0,8.851,NA
"1836","32","true_60",36,1,36,1,NA,69,0,7.363,NA
"1837","32","true_60",37,1,37,1,NA,38,0,4.615,NA
"1838","32","true_60",38,1,38,1,NA,38,0,19.04,NA
"1839","32","true_60",39,1,39,1,NA,65,0,7.031,NA
"1840","32","true_60",40,1,40,1,NA,58,0,6.002,NA
"1841","32","true_70",41,1,41,1,NA,74,0,3.697,NA
"1842","32","true_70",42,1,42,1,NA,87,0,7.756,NA
"1843","32","true_70",43,1,43,1,NA,94,0,7.763,NA
"1844","32","true_70",44,1,44,1,NA,89,0,6.179,NA
"1845","32","true_70",45,1,45,1,NA,88,0,5.049,NA
"1846","32","false_50",46,1,46,1,NA,44,0,7.955,NA
"1847","32","false_50",47,1,47,1,NA,100,0,8.623,NA
"1848","32","false_50",48,1,48,1,NA,96,0,8.289,NA
"1849","32","false_50",49,1,49,1,NA,31,0,13.76,NA
"1850","32","false_50",50,1,50,1,NA,42,0,6.587,NA
"1851","32","false_60",51,1,51,1,NA,63,0,6.792,NA
"1852","32","false_60",52,1,52,1,NA,41,0,5.185,NA
"1853","32","false_60",53,1,53,1,NA,41,0,11.206,NA
"1854","32","false_60",54,1,54,1,NA,32,0,8.271,NA
"1855","32","false_60",55,1,55,1,NA,61,0,12.271,NA
"1856","32","false_70",56,1,56,1,NA,12,0,7.434,NA
"1857","32","false_70",57,1,57,1,NA,13,0,6.339,NA
"1858","32","false_70",58,1,58,1,NA,94,0,4.495,NA
"1859","32","false_70",59,1,59,1,NA,9,0,8.8,NA
"1860","32","false_70",60,1,60,1,NA,23,0,8.144,NA
"1861","32","true_50",61,1,61,0,NA,55,1,7.144,NA
"1862","32","true_50",62,1,62,0,NA,54,1,7.725,NA
"1863","32","true_50",63,1,63,0,NA,44,1,4.631,NA
"1864","32","true_50",64,1,64,0,NA,57,1,7.563,NA
"1865","32","true_50",65,1,65,0,NA,58,1,4.6,NA
"1866","32","true_60",66,1,66,0,NA,57,1,4.921,NA
"1867","32","true_60",67,1,67,0,NA,68,1,7.016,NA
"1868","32","true_60",68,1,68,0,NA,67,1,7.559,NA
"1869","32","true_60",69,1,69,0,NA,86,1,4.122,NA
"1870","32","true_60",70,1,70,0,NA,63,1,6.254,NA
"1871","32","true_70",71,1,71,0,NA,91,1,6.281,NA
"1872","32","true_70",72,1,72,0,NA,81,1,5.151,NA
"1873","32","true_70",73,1,73,0,NA,87,1,5.996,NA
"1874","32","true_70",74,1,74,0,NA,35,1,9.941,NA
"1875","32","true_70",75,1,75,0,NA,81,1,5.792,NA
"1876","32","false_50",76,1,76,0,NA,76,1,12.741,NA
"1877","32","false_50",77,1,77,0,NA,65,1,8.623,NA
"1878","32","false_50",78,1,78,0,NA,35,1,6.496,NA
"1879","32","false_50",79,1,79,0,NA,100,1,5.394,NA
"1880","32","false_50",80,1,80,0,NA,42,1,9.19,NA
"1881","32","false_60",81,1,81,0,NA,82,1,14.019,NA
"1882","32","false_60",82,1,82,0,NA,43,1,6.624,NA
"1883","32","false_60",83,1,83,0,NA,69,1,8.891,NA
"1884","32","false_60",84,1,84,0,NA,57,1,6.799,NA
"1885","32","false_60",85,1,85,0,NA,35,1,19.287,NA
"1886","32","false_70",86,1,86,0,NA,8,1,7.721,NA
"1887","32","false_70",87,1,87,0,NA,9,1,8.602,NA
"1888","32","false_70",88,1,88,0,NA,26,1,8.443,NA
"1889","32","false_70",89,1,89,0,NA,12,1,6.008,NA
"1890","32","false_70",90,1,90,0,NA,87,1,12.039,NA
"1891","32","true_50",91,1,91,0,NA,56,0,5.304,NA
"1892","32","true_50",92,1,92,0,NA,38,0,6.048,NA
"1893","32","true_50",93,1,93,0,NA,42,0,6.288,NA
"1894","32","true_50",94,1,94,0,NA,41,0,7.989,NA
"1895","32","true_50",95,1,95,0,NA,85,0,9.208,NA
"1896","32","true_60",96,1,96,0,NA,62,0,3.702,NA
"1897","32","true_60",97,1,97,0,NA,62,0,6.261,NA
"1898","32","true_60",98,1,98,0,NA,64,0,7.56,NA
"1899","32","true_60",99,1,99,0,NA,57,0,7.04,NA
"1900","32","true_60",100,1,100,0,NA,56,0,14.763,NA
"1901","32","true_70",101,1,101,0,NA,100,0,15.892,NA
"1902","32","true_70",102,1,102,0,NA,89,0,6.007,NA
"1903","32","true_70",103,1,103,0,NA,75,0,6.018,NA
"1904","32","true_70",104,1,104,0,NA,89,0,8.403,NA
"1905","32","true_70",105,1,105,0,NA,88,0,14.14,NA
"1906","32","false_50",106,1,106,0,NA,44,0,4.752,NA
"1907","32","false_50",107,1,107,0,NA,32,0,6.542,NA
"1908","32","false_50",108,1,108,0,NA,43,0,12.353,NA
"1909","32","false_50",109,1,109,0,NA,57,0,8.437,NA
"1910","32","false_50",110,1,110,0,NA,42,0,6.422,NA
"1911","32","false_60",111,1,111,0,NA,32,0,15.2,NA
"1912","32","false_60",112,1,112,0,NA,38,0,11.719,NA
"1913","32","false_60",113,1,113,0,NA,61,0,10.301,NA
"1914","32","false_60",114,1,114,0,NA,43,0,5.97,NA
"1915","32","false_60",115,1,115,0,NA,91,0,7.296,NA
"1916","32","false_70",116,1,116,0,NA,23,0,4.865,NA
"1917","32","false_70",117,1,117,0,NA,32,0,6.887,NA
"1918","32","false_70",118,1,118,0,NA,9,0,5.972,NA
"1919","32","false_70",119,1,119,0,NA,1,0,5.575,NA
"1920","32","false_70",120,1,120,0,NA,18,0,12.353,NA
"1921","36","true_50",1,1,1,1,NA,36,1,5.844,NA
"1922","36","true_50",2,1,2,1,NA,62,1,5.918,NA
"1923","36","true_50",3,1,3,1,NA,48,1,5.55,NA
"1924","36","true_50",4,1,4,1,NA,47,1,5.745,NA
"1925","36","true_50",5,1,5,1,NA,62,1,3.832,NA
"1926","36","true_60",6,1,6,1,NA,43,1,5.996,NA
"1927","36","true_60",7,1,7,1,NA,39,1,5.905,NA
"1928","36","true_60",8,1,8,1,NA,68,1,4.675,NA
"1929","36","true_60",9,1,9,1,NA,9,1,5.201,NA
"1930","36","true_60",10,1,10,1,NA,8,1,5.68,NA
"1931","36","true_70",11,1,11,1,NA,88,1,4.307,NA
"1932","36","true_70",12,1,12,1,NA,42,1,5.444,NA
"1933","36","true_70",13,1,13,1,NA,100,1,5.068,NA
"1934","36","true_70",14,1,14,1,NA,57,1,9.201,NA
"1935","36","true_70",15,1,15,1,NA,95,1,8.907,NA
"1936","36","false_50",16,1,16,1,NA,58,1,4.148,NA
"1937","36","false_50",17,1,17,1,NA,58,1,6.55,NA
"1938","36","false_50",18,1,18,1,NA,62,1,4.896,NA
"1939","36","false_50",19,1,19,1,NA,44,1,6.01,NA
"1940","36","false_50",20,1,20,1,NA,85,1,5.485,NA
"1941","36","false_60",21,1,21,1,NA,62,1,11.718,NA
"1942","36","false_60",22,1,22,1,NA,45,1,4.647,NA
"1943","36","false_60",23,1,23,1,NA,0,1,10.892,NA
"1944","36","false_60",24,1,24,1,NA,41,1,6.528,NA
"1945","36","false_60",25,1,25,1,NA,59,1,4.818,NA
"1946","36","false_70",26,1,26,1,NA,43,1,10.633,NA
"1947","36","false_70",27,1,27,1,NA,6,1,5.908,NA
"1948","36","false_70",28,1,28,1,NA,33,1,6.967,NA
"1949","36","false_70",29,1,29,1,NA,1,1,9.514,NA
"1950","36","false_70",30,1,30,1,NA,47,1,5.464,NA
"1951","36","true_50",31,1,31,1,NA,35,0,2.472,NA
"1952","36","true_50",32,1,32,1,NA,31,0,7.785,NA
"1953","36","true_50",33,1,33,1,NA,75,0,3.098,NA
"1954","36","true_50",34,1,34,1,NA,79,0,5.94,NA
"1955","36","true_50",35,1,35,1,NA,97,0,4.054,NA
"1956","36","true_60",36,1,36,1,NA,54,0,5.45,NA
"1957","36","true_60",37,1,37,1,NA,57,0,5.499,NA
"1958","36","true_60",38,1,38,1,NA,88,0,6.695,NA
"1959","36","true_60",39,1,39,1,NA,61,0,6.354,NA
"1960","36","true_60",40,1,40,1,NA,82,0,6.079,NA
"1961","36","true_70",41,1,41,1,NA,93,0,6.753,NA
"1962","36","true_70",42,1,42,1,NA,61,0,5.223,NA
"1963","36","true_70",43,1,43,1,NA,38,0,4.483,NA
"1964","36","true_70",44,1,44,1,NA,40,0,6.494,NA
"1965","36","true_70",45,1,45,1,NA,74,0,5.963,NA
"1966","36","false_50",46,1,46,1,NA,66,0,7.071,NA
"1967","36","false_50",47,1,47,1,NA,11,0,5.744,NA
"1968","36","false_50",48,1,48,1,NA,45,0,3.977,NA
"1969","36","false_50",49,1,49,1,NA,5,0,8.457,NA
"1970","36","false_50",50,1,50,1,NA,55,0,5.836,NA
"1971","36","false_60",51,1,51,1,NA,40,0,3.853,NA
"1972","36","false_60",52,1,52,1,NA,29,0,3.71,NA
"1973","36","false_60",53,1,53,1,NA,71,0,4.333,NA
"1974","36","false_60",54,1,54,1,NA,45,0,4.421,NA
"1975","36","false_60",55,1,55,1,NA,81,0,8.79,NA
"1976","36","false_70",56,1,56,1,NA,0,0,6.461,NA
"1977","36","false_70",57,1,57,1,NA,9,0,4.433,NA
"1978","36","false_70",58,1,58,1,NA,10,0,7.673,NA
"1979","36","false_70",59,1,59,1,NA,0,0,13.755,NA
"1980","36","false_70",60,1,60,1,NA,10,0,10.395,NA
"1981","36","true_50",61,1,61,0,NA,56,1,3.706,NA
"1982","36","true_50",62,1,62,0,NA,59,1,10.707,NA
"1983","36","true_50",63,1,63,0,NA,20,1,7.886,NA
"1984","36","true_50",64,1,64,0,NA,46,1,23.343,NA
"1985","36","true_50",65,1,65,0,NA,35,1,7.673,NA
"1986","36","true_60",66,1,66,0,NA,46,1,9.557,NA
"1987","36","true_60",67,1,67,0,NA,60,1,5.615,NA
"1988","36","true_60",68,1,68,0,NA,41,1,4.979,NA
"1989","36","true_60",69,1,69,0,NA,33,1,4.321,NA
"1990","36","true_60",70,1,70,0,NA,56,1,6.684,NA
"1991","36","true_70",71,1,71,0,NA,100,1,5.008,NA
"1992","36","true_70",72,1,72,0,NA,95,1,8.124,NA
"1993","36","true_70",73,1,73,0,NA,95,1,6.889,NA
"1994","36","true_70",74,1,74,0,NA,59,1,4.107,NA
"1995","36","true_70",75,1,75,0,NA,94,1,6.796,NA
"1996","36","false_50",76,1,76,0,NA,60,1,6.615,NA
"1997","36","false_50",77,1,77,0,NA,34,1,5.508,NA
"1998","36","false_50",78,1,78,0,NA,47,1,9.163,NA
"1999","36","false_50",79,1,79,0,NA,23,1,9.118,NA
"2000","36","false_50",80,1,80,0,NA,23,1,9.271,NA
"2001","36","false_60",81,1,81,0,NA,36,1,11.548,NA
"2002","36","false_60",82,1,82,0,NA,45,1,5.401,NA
"2003","36","false_60",83,1,83,0,NA,19,1,6.715,NA
"2004","36","false_60",84,1,84,0,NA,52,1,9.67,NA
"2005","36","false_60",85,1,85,0,NA,62,1,2.994,NA
"2006","36","false_70",86,1,86,0,NA,74,1,5.64,NA
"2007","36","false_70",87,1,87,0,NA,32,1,6.723,NA
"2008","36","false_70",88,1,88,0,NA,46,1,8.824,NA
"2009","36","false_70",89,1,89,0,NA,4,1,5.396,NA
"2010","36","false_70",90,1,90,0,NA,42,1,6.243,NA
"2011","36","true_50",91,1,91,0,NA,41,0,6.229,NA
"2012","36","true_50",92,1,92,0,NA,59,0,6.043,NA
"2013","36","true_50",93,1,93,0,NA,46,0,10.75,NA
"2014","36","true_50",94,1,94,0,NA,55,0,7.235,NA
"2015","36","true_50",95,1,95,0,NA,20,0,5.254,NA
"2016","36","true_60",96,1,96,0,NA,93,0,7.644,NA
"2017","36","true_60",97,1,97,0,NA,36,0,13.195,NA
"2018","36","true_60",98,1,98,0,NA,43,0,6.871,NA
"2019","36","true_60",99,1,99,0,NA,92,0,7.914,NA
"2020","36","true_60",100,1,100,0,NA,66,0,5.363,NA
"2021","36","true_70",101,1,101,0,NA,90,0,4.583,NA
"2022","36","true_70",102,1,102,0,NA,87,0,6.507,NA
"2023","36","true_70",103,1,103,0,NA,80,0,4.592,NA
"2024","36","true_70",104,1,104,0,NA,56,0,5.711,NA
"2025","36","true_70",105,1,105,0,NA,87,0,6.629,NA
"2026","36","false_50",106,1,106,0,NA,63,0,6.027,NA
"2027","36","false_50",107,1,107,0,NA,46,0,4.858,NA
"2028","36","false_50",108,1,108,0,NA,41,0,6.425,NA
"2029","36","false_50",109,1,109,0,NA,52,0,18.665,NA
"2030","36","false_50",110,1,110,0,NA,42,0,4.727,NA
"2031","36","false_60",111,1,111,0,NA,18,0,8.019,NA
"2032","36","false_60",112,1,112,0,NA,40,0,4.716,NA
"2033","36","false_60",113,1,113,0,NA,27,0,5.883,NA
"2034","36","false_60",114,1,114,0,NA,44,0,5.701,NA
