"","subject","within_identifier","statement_identifier","presentation_identifier","statement_number","statement_accuracy","statement_text","response","repeated","rt","trial"
"1","3","true_50",1,1,1,1,NA,100,1,5.754,NA
"2","3","true_50",2,1,2,1,NA,100,1,4.554,NA
"3","3","true_50",3,1,3,1,NA,51,1,16.861,NA
"4","3","true_50",4,1,4,1,NA,100,1,7.3,NA
"5","3","true_50",5,1,5,1,NA,100,1,4.595,NA
"6","3","true_100",6,1,6,1,NA,100,1,7.091,NA
"7","3","true_100",7,1,7,1,NA,100,1,11.366,NA
"8","3","true_100",8,1,8,1,NA,100,1,8.777,NA
"9","3","true_100",9,1,9,1,NA,100,1,5.232,NA
"10","3","true_100",10,1,10,1,NA,100,1,8.103,NA
"11","3","false_50",11,1,11,1,NA,50,1,5.991,NA
"12","3","false_50",12,1,12,1,NA,22,1,5.59,NA
"13","3","false_50",13,1,13,1,NA,100,1,4.955,NA
"14","3","false_50",14,1,14,1,NA,28,1,8.535,NA
"15","3","false_50",15,1,15,1,NA,33,1,4.445,NA
"16","3","false_100",16,1,16,1,NA,51,1,12.506,NA
"17","3","false_100",17,1,17,1,NA,0,1,8.384,NA
"18","3","false_100",18,1,18,1,NA,0,1,7.439,NA
"19","3","false_100",19,1,19,1,NA,0,1,9.78,NA
"20","3","false_100",20,1,20,1,NA,0,1,8.414,NA
"21","3",NA,21,1,21,1,NA,NA,NA,NA,NA
"22","3",NA,22,1,22,1,NA,NA,NA,NA,NA
"23","3",NA,23,1,23,1,NA,NA,NA,NA,NA
"24","3",NA,24,1,24,1,NA,NA,NA,NA,NA
"25","3",NA,25,1,25,1,NA,NA,NA,NA,NA
"26","3",NA,26,1,26,1,NA,NA,NA,NA,NA
"27","3",NA,27,1,27,1,NA,NA,NA,NA,NA
"28","3",NA,28,1,28,1,NA,NA,NA,NA,NA
"29","3",NA,29,1,29,1,NA,NA,NA,NA,NA
"30","3",NA,30,1,30,1,NA,NA,NA,NA,NA
"31","3","true_50",31,1,31,1,NA,46,0,6.988,NA
"32","3","true_50",32,1,32,1,NA,59,0,6.726,NA
"33","3","true_50",33,1,33,1,NA,42,0,13.807,NA
"34","3","true_50",34,1,34,1,NA,9,0,9.001,NA
"35","3","true_50",35,1,35,1,NA,58,0,5.257,NA
"36","3","true_100",36,1,36,1,NA,100,0,21.574,NA
"37","3","true_100",37,1,37,1,NA,100,0,4.649,NA
"38","3","true_100",38,1,38,1,NA,100,0,8.863,NA
"39","3","true_100",39,1,39,1,NA,100,0,9.275,NA
"40","3","true_100",40,1,40,1,NA,76,0,6.622,NA
"41","3","false_50",41,1,41,1,NA,43,0,5.759,NA
"42","3","false_50",42,1,42,1,NA,100,0,8.602,NA
"43","3","false_50",43,1,43,1,NA,36,0,6.537,NA
"44","3","false_50",44,1,44,1,NA,49,0,6.761,NA
"45","3","false_50",45,1,45,1,NA,37,0,7.736,NA
"46","3","false_100",46,1,46,1,NA,0,0,7.228,NA
"47","3","false_100",47,1,47,1,NA,0,0,9.292,NA
"48","3","false_100",48,1,48,1,NA,0,0,7.478,NA
"49","3","false_100",49,1,49,1,NA,43,0,6.146,NA
"50","3","false_100",50,1,50,1,NA,0,0,7.132,NA
"51","3",NA,51,1,51,1,NA,NA,NA,NA,NA
"52","3",NA,52,1,52,1,NA,NA,NA,NA,NA
"53","3",NA,53,1,53,1,NA,NA,NA,NA,NA
"54","3",NA,54,1,54,1,NA,NA,NA,NA,NA
"55","3",NA,55,1,55,1,NA,NA,NA,NA,NA
"56","3",NA,56,1,56,1,NA,NA,NA,NA,NA
"57","3",NA,57,1,57,1,NA,NA,NA,NA,NA
"58","3",NA,58,1,58,1,NA,NA,NA,NA,NA
"59","3",NA,59,1,59,1,NA,NA,NA,NA,NA
"60","3",NA,60,1,60,1,NA,NA,NA,NA,NA
"61","3","true_50",61,1,61,0,NA,62,1,5.047,NA
"62","3","true_50",62,1,62,0,NA,40,1,8.456,NA
"63","3","true_50",63,1,63,0,NA,56,1,4.25,NA
"64","3","true_50",64,1,64,0,NA,54,1,7.833,NA
"65","3","true_50",65,1,65,0,NA,34,1,11.489,NA
"66","3","true_100",66,1,66,0,NA,100,1,8.025,NA
"67","3","true_100",67,1,67,0,NA,100,1,4.594,NA
"68","3","true_100",68,1,68,0,NA,100,1,6.59,NA
"69","3","true_100",69,1,69,0,NA,100,1,14.665,NA
"70","3","true_100",70,1,70,0,NA,100,1,6.471,NA
"71","3","false_50",71,1,71,0,NA,39,1,14.208,NA
"72","3","false_50",72,1,72,0,NA,0,1,7.683,NA
"73","3","false_50",73,1,73,0,NA,100,1,7.162,NA
"74","3","false_50",74,1,74,0,NA,59,1,15.964,NA
"75","3","false_50",75,1,75,0,NA,49,1,11.563,NA
"76","3","false_100",76,1,76,0,NA,0,1,14.882,NA
"77","3","false_100",77,1,77,0,NA,38,1,5.05,NA
"78","3","false_100",78,1,78,0,NA,0,1,6.652,NA
"79","3","false_100",79,1,79,0,NA,0,1,9.677,NA
"80","3","false_100",80,1,80,0,NA,0,1,9.439,NA
"81","3",NA,81,1,81,0,NA,NA,NA,NA,NA
"82","3",NA,82,1,82,0,NA,NA,NA,NA,NA
"83","3",NA,83,1,83,0,NA,NA,NA,NA,NA
"84","3",NA,84,1,84,0,NA,NA,NA,NA,NA
"85","3",NA,85,1,85,0,NA,NA,NA,NA,NA
"86","3",NA,86,1,86,0,NA,NA,NA,NA,NA
"87","3",NA,87,1,87,0,NA,NA,NA,NA,NA
"88","3",NA,88,1,88,0,NA,NA,NA,NA,NA
"89","3",NA,89,1,89,0,NA,NA,NA,NA,NA
"90","3",NA,90,1,90,0,NA,NA,NA,NA,NA
"91","3","true_50",91,1,91,0,NA,52,0,6.863,NA
"92","3","true_50",92,1,92,0,NA,0,0,36.059,NA
"93","3","true_50",93,1,93,0,NA,0,0,25.124,NA
"94","3","true_50",94,1,94,0,NA,41,0,4.335,NA
"95","3","true_50",95,1,95,0,NA,50,0,13.327,NA
"96","3","true_100",96,1,96,0,NA,100,0,17.825,NA
"97","3","true_100",97,1,97,0,NA,28,0,12.452,NA
"98","3","true_100",98,1,98,0,NA,100,0,14.805,NA
"99","3","true_100",99,1,99,0,NA,100,0,5.959,NA
"100","3","true_100",100,1,100,0,NA,100,0,6.504,NA
"101","3","false_50",101,1,101,0,NA,54,0,9.886,NA
"102","3","false_50",102,1,102,0,NA,30,0,21.178,NA
"103","3","false_50",103,1,103,0,NA,41,0,7.895,NA
"104","3","false_50",104,1,104,0,NA,10,0,7.042,NA
"105","3","false_50",105,1,105,0,NA,20,0,6.335,NA
"106","3","false_100",106,1,106,0,NA,0,0,7.624,NA
"107","3","false_100",107,1,107,0,NA,0,0,7.986,NA
"108","3","false_100",108,1,108,0,NA,0,0,7.663,NA
"109","3","false_100",109,1,109,0,NA,0,0,12.911,NA
"110","3","false_100",110,1,110,0,NA,0,0,8.366,NA
"111","3",NA,111,1,111,0,NA,NA,NA,NA,NA
"112","3",NA,112,1,112,0,NA,NA,NA,NA,NA
"113","3",NA,113,1,113,0,NA,NA,NA,NA,NA
"114","3",NA,114,1,114,0,NA,NA,NA,NA,NA
"115","3",NA,115,1,115,0,NA,NA,NA,NA,NA
"116","3",NA,116,1,116,0,NA,NA,NA,NA,NA
"117","3",NA,117,1,117,0,NA,NA,NA,NA,NA
"118","3",NA,118,1,118,0,NA,NA,NA,NA,NA
"119","3",NA,119,1,119,0,NA,NA,NA,NA,NA
"120","3",NA,120,1,120,0,NA,NA,NA,NA,NA
"121","7","true_50",1,1,1,1,NA,74,1,3.91,NA
"122","7","true_50",2,1,2,1,NA,100,1,3.905,NA
"123","7","true_50",3,1,3,1,NA,75,1,14.102,NA
"124","7","true_50",4,1,4,1,NA,25,1,6.239,NA
"125","7","true_50",5,1,5,1,NA,100,1,15.772,NA
"126","7","true_100",6,1,6,1,NA,95,1,2.822,NA
"127","7","true_100",7,1,7,1,NA,100,1,7.481,NA
"128","7","true_100",8,1,8,1,NA,92,1,6.202,NA
"129","7","true_100",9,1,9,1,NA,88,1,6.443,NA
"130","7","true_100",10,1,10,1,NA,81,1,3.814,NA
"131","7","false_50",11,1,11,1,NA,71,1,3.797,NA
"132","7","false_50",12,1,12,1,NA,5,1,3.558,NA
"133","7","false_50",13,1,13,1,NA,21,1,9.545,NA
"134","7","false_50",14,1,14,1,NA,15,1,3.42,NA
"135","7","false_50",15,1,15,1,NA,74,1,2.393,NA
"136","7","false_100",16,1,16,1,NA,100,1,8.89,NA
"137","7","false_100",17,1,17,1,NA,27,1,2.977,NA
"138","7","false_100",18,1,18,1,NA,26,1,3.288,NA
"139","7","false_100",19,1,19,1,NA,21,1,6.309,NA
"140","7","false_100",20,1,20,1,NA,29,1,6.14,NA
"141","7","true_50",31,1,31,1,NA,29,0,8.967,NA
"142","7","true_50",32,1,32,1,NA,67,0,3.916,NA
"143","7","true_50",33,1,33,1,NA,99,0,4.563,NA
"144","7","true_50",34,1,34,1,NA,82,0,4.554,NA
"145","7","true_50",35,1,35,1,NA,22,0,5.294,NA
"146","7","true_100",36,1,36,1,NA,73,0,5.051,NA
"147","7","true_100",37,1,37,1,NA,83,0,5.725,NA
"148","7","true_100",38,1,38,1,NA,25,0,6.321,NA
"149","7","true_100",39,1,39,1,NA,83,0,3.347,NA
"150","7","true_100",40,1,40,1,NA,34,0,8.804,NA
"151","7","false_50",41,1,41,1,NA,25,0,5.487,NA
"152","7","false_50",42,1,42,1,NA,73,0,7.798,NA
"153","7","false_50",43,1,43,1,NA,23,0,3.051,NA
"154","7","false_50",44,1,44,1,NA,25,0,4.463,NA
"155","7","false_50",45,1,45,1,NA,70,0,10.078,NA
"156","7","false_100",46,1,46,1,NA,25,0,4.303,NA
"157","7","false_100",47,1,47,1,NA,24,0,7.726,NA
"158","7","false_100",48,1,48,1,NA,19,0,4.27,NA
"159","7","false_100",49,1,49,1,NA,12,0,4.772,NA
"160","7","false_100",50,1,50,1,NA,28,0,6.531,NA
"161","7","true_50",61,1,61,0,NA,81,1,6.621,NA
"162","7","true_50",62,1,62,0,NA,89,1,6.675,NA
"163","7","true_50",63,1,63,0,NA,32,1,4.381,NA
"164","7","true_50",64,1,64,0,NA,71,1,5.744,NA
"165","7","true_50",65,1,65,0,NA,95,1,3.448,NA
"166","7","true_100",66,1,66,0,NA,25,1,2.848,NA
"167","7","true_100",67,1,67,0,NA,81,1,4.742,NA
"168","7","true_100",68,1,68,0,NA,78,1,3.766,NA
"169","7","true_100",69,1,69,0,NA,76,1,4.452,NA
"170","7","true_100",70,1,70,0,NA,100,1,31.431,NA
"171","7","false_50",71,1,71,0,NA,23,1,2.982,NA
"172","7","false_50",72,1,72,0,NA,16,1,4.024,NA
"173","7","false_50",73,1,73,0,NA,63,1,3.529,NA
"174","7","false_50",74,1,74,0,NA,76,1,4.712,NA
"175","7","false_50",75,1,75,0,NA,29,1,10.872,NA
"176","7","false_100",76,1,76,0,NA,16,1,2.745,NA
"177","7","false_100",77,1,77,0,NA,19,1,16.422,NA
"178","7","false_100",78,1,78,0,NA,97,1,4.572,NA
"179","7","false_100",79,1,79,0,NA,75,1,6.831,NA
"180","7","false_100",80,1,80,0,NA,25,1,7.958,NA
"181","7","true_50",91,1,91,0,NA,68,0,4.13,NA
"182","7","true_50",92,1,92,0,NA,84,0,4.335,NA
"183","7","true_50",93,1,93,0,NA,69,0,5.36,NA
"184","7","true_50",94,1,94,0,NA,29,0,5.944,NA
"185","7","true_50",95,1,95,0,NA,79,0,5.241,NA
"186","7","true_100",96,1,96,0,NA,75,0,2.581,NA
"187","7","true_100",97,1,97,0,NA,78,0,11.153,NA
"188","7","true_100",98,1,98,0,NA,27,0,6.397,NA
"189","7","true_100",99,1,99,0,NA,84,0,4.472,NA
"190","7","true_100",100,1,100,0,NA,34,0,4.312,NA
"191","7","false_50",101,1,101,0,NA,70,0,5.81,NA
"192","7","false_50",102,1,102,0,NA,70,0,5.62,NA
"193","7","false_50",103,1,103,0,NA,74,0,3.879,NA
"194","7","false_50",104,1,104,0,NA,24,0,9.899,NA
"195","7","false_50",105,1,105,0,NA,26,0,7.691,NA
"196","7","false_100",106,1,106,0,NA,17,0,4.607,NA
"197","7","false_100",107,1,107,0,NA,63,0,8.006,NA
"198","7","false_100",108,1,108,0,NA,13,0,15.096,NA
"199","7","false_100",109,1,109,0,NA,21,0,8.959,NA
"200","7","false_100",110,1,110,0,NA,84,0,4.592,NA
"201","10","true_50",1,1,1,1,NA,21,1,5.997,NA
"202","10","true_50",2,1,2,1,NA,80,1,8.684,NA
"203","10","true_50",3,1,3,1,NA,57,1,4.649,NA
"204","10","true_50",4,1,4,1,NA,86,1,5.917,NA
"205","10","true_50",5,1,5,1,NA,34,1,6.121,NA
"206","10","true_100",6,1,6,1,NA,34,1,7.293,NA
"207","10","true_100",7,1,7,1,NA,29,1,5.728,NA
"208","10","true_100",8,1,8,1,NA,0,1,7.22,NA
"209","10","true_100",9,1,9,1,NA,100,1,4.691,NA
"210","10","true_100",10,1,10,1,NA,100,1,5.912,NA
"211","10","false_50",11,1,11,1,NA,100,1,5.31,NA
"212","10","false_50",12,1,12,1,NA,82,1,9.075,NA
"213","10","false_50",13,1,13,1,NA,100,1,7.569,NA
"214","10","false_50",14,1,14,1,NA,69,1,5.384,NA
"215","10","false_50",15,1,15,1,NA,26,1,4.982,NA
"216","10","false_100",16,1,16,1,NA,69,1,5.435,NA
"217","10","false_100",17,1,17,1,NA,21,1,4.63,NA
"218","10","false_100",18,1,18,1,NA,100,1,11.231,NA
"219","10","false_100",19,1,19,1,NA,80,1,8.464,NA
"220","10","false_100",20,1,20,1,NA,19,1,6.654,NA
"221","10","true_50",31,1,31,1,NA,90,0,6.49,NA
"222","10","true_50",32,1,32,1,NA,35,0,4.976,NA
"223","10","true_50",33,1,33,1,NA,71,0,6.613,NA
"224","10","true_50",34,1,34,1,NA,23,0,7.048,NA
"225","10","true_50",35,1,35,1,NA,23,0,10.258,NA
"226","10","true_100",36,1,36,1,NA,100,0,12.21,NA
"227","10","true_100",37,1,37,1,NA,100,0,5.905,NA
"228","10","true_100",38,1,38,1,NA,100,0,5.401,NA
"229","10","true_100",39,1,39,1,NA,83,0,4.466,NA
"230","10","true_100",40,1,40,1,NA,100,0,6.368,NA
"231","10","false_50",41,1,41,1,NA,35,0,8.734,NA
"232","10","false_50",42,1,42,1,NA,100,0,6.843,NA
"233","10","false_50",43,1,43,1,NA,25,0,9.017,NA
"234","10","false_50",44,1,44,1,NA,29,0,13.975,NA
"235","10","false_50",45,1,45,1,NA,0,0,9.05,NA
"236","10","false_100",46,1,46,1,NA,0,0,6.776,NA
"237","10","false_100",47,1,47,1,NA,0,0,8.118,NA
"238","10","false_100",48,1,48,1,NA,80,0,6.376,NA
"239","10","false_100",49,1,49,1,NA,100,0,9.69,NA
"240","10","false_100",50,1,50,1,NA,27,0,5.784,NA
"241","10","true_50",61,1,61,0,NA,85,1,5.337,NA
"242","10","true_50",62,1,62,0,NA,40,1,8.965,NA
"243","10","true_50",63,1,63,0,NA,100,1,6.048,NA
"244","10","true_50",64,1,64,0,NA,19,1,8.817,NA
"245","10","true_50",65,1,65,0,NA,22,1,7.585,NA
"246","10","true_100",66,1,66,0,NA,0,1,8.39,NA
"247","10","true_100",67,1,67,0,NA,0,1,7.376,NA
"248","10","true_100",68,1,68,0,NA,82,1,7.165,NA
"249","10","true_100",69,1,69,0,NA,47,1,7.723,NA
"250","10","true_100",70,1,70,0,NA,100,1,4.666,NA
"251","10","false_50",71,1,71,0,NA,21,1,5.583,NA
"252","10","false_50",72,1,72,0,NA,21,1,9.221,NA
"253","10","false_50",73,1,73,0,NA,30,1,7.194,NA
"254","10","false_50",74,1,74,0,NA,79,1,7.154,NA
"255","10","false_50",75,1,75,0,NA,84,1,8.199,NA
"256","10","false_100",76,1,76,0,NA,0,1,8.06,NA
"257","10","false_100",77,1,77,0,NA,100,1,11.341,NA
"258","10","false_100",78,1,78,0,NA,0,1,5.885,NA
"259","10","false_100",79,1,79,0,NA,22,1,8.009,NA
"260","10","false_100",80,1,80,0,NA,24,1,6.009,NA
"261","10","true_50",91,1,91,0,NA,100,0,7.199,NA
"262","10","true_50",92,1,92,0,NA,81,0,6.59,NA
"263","10","true_50",93,1,93,0,NA,17,0,10.377,NA
"264","10","true_50",94,1,94,0,NA,100,0,7.319,NA
"265","10","true_50",95,1,95,0,NA,100,0,5.09,NA
"266","10","true_100",96,1,96,0,NA,100,0,5.647,NA
"267","10","true_100",97,1,97,0,NA,100,0,5.535,NA
"268","10","true_100",98,1,98,0,NA,86,0,10.169,NA
"269","10","true_100",99,1,99,0,NA,22,0,25.946,NA
"270","10","true_100",100,1,100,0,NA,100,0,7.464,NA
"271","10","false_50",101,1,101,0,NA,75,0,8.849,NA
"272","10","false_50",102,1,102,0,NA,33,0,5.329,NA
"273","10","false_50",103,1,103,0,NA,100,0,6.776,NA
"274","10","false_50",104,1,104,0,NA,31,0,9.592,NA
"275","10","false_50",105,1,105,0,NA,0,0,6.469,NA
"276","10","false_100",106,1,106,0,NA,91,0,6.766,NA
"277","10","false_100",107,1,107,0,NA,0,0,5.232,NA
"278","10","false_100",108,1,108,0,NA,0,0,19.127,NA
"279","10","false_100",109,1,109,0,NA,26,0,5.147,NA
"280","10","false_100",110,1,110,0,NA,0,0,9.322,NA
"281","14","true_50",1,1,1,1,NA,100,1,9.956,NA
"282","14","true_50",2,1,2,1,NA,85,1,19.026,NA
"283","14","true_50",3,1,3,1,NA,45,1,8.031,NA
"284","14","true_50",4,1,4,1,NA,45,1,15.669,NA
"285","14","true_50",5,1,5,1,NA,55,1,11.735,NA
"286","14","true_100",6,1,6,1,NA,45,1,19.76,NA
"287","14","true_100",7,1,7,1,NA,40,1,9.145,NA
"288","14","true_100",8,1,8,1,NA,55,1,16.609,NA
"289","14","true_100",9,1,9,1,NA,60,1,8.114,NA
"290","14","true_100",10,1,10,1,NA,65,1,13.172,NA
"291","14","false_50",11,1,11,1,NA,65,1,24.307,NA
"292","14","false_50",12,1,12,1,NA,40,1,7.23,NA
"293","14","false_50",13,1,13,1,NA,35,1,11.05,NA
"294","14","false_50",14,1,14,1,NA,80,1,15.196,NA
"295","14","false_50",15,1,15,1,NA,55,1,13.689,NA
"296","14","false_100",16,1,16,1,NA,30,1,8.056,NA
"297","14","false_100",17,1,17,1,NA,65,1,8.714,NA
"298","14","false_100",18,1,18,1,NA,55,1,12.258,NA
"299","14","false_100",19,1,19,1,NA,60,1,6.307,NA
"300","14","false_100",20,1,20,1,NA,45,1,6.098,NA
"301","14","true_50",31,1,31,1,NA,10,0,12.752,NA
"302","14","true_50",32,1,32,1,NA,60,0,22.429,NA
"303","14","true_50",33,1,33,1,NA,55,0,12.223,NA
"304","14","true_50",34,1,34,1,NA,40,0,8.786,NA
"305","14","true_50",35,1,35,1,NA,45,0,10.334,NA
"306","14","true_100",36,1,36,1,NA,60,0,10.418,NA
"307","14","true_100",37,1,37,1,NA,60,0,18.978,NA
"308","14","true_100",38,1,38,1,NA,40,0,12.648,NA
"309","14","true_100",39,1,39,1,NA,55,0,16.95,NA
"310","14","true_100",40,1,40,1,NA,35,0,15.905,NA
"311","14","false_50",41,1,41,1,NA,95,0,16.808,NA
"312","14","false_50",42,1,42,1,NA,40,0,8.184,NA
"313","14","false_50",43,1,43,1,NA,65,0,9.425,NA
"314","14","false_50",44,1,44,1,NA,45,0,13.199,NA
"315","14","false_50",45,1,45,1,NA,55,0,7.028,NA
"316","14","false_100",46,1,46,1,NA,45,0,6.047,NA
"317","14","false_100",47,1,47,1,NA,40,0,8.069,NA
"318","14","false_100",48,1,48,1,NA,55,0,7.609,NA
"319","14","false_100",49,1,49,1,NA,55,0,12.692,NA
"320","14","false_100",50,1,50,1,NA,40,0,26.623,NA
"321","14","true_50",61,1,61,0,NA,45,1,9.162,NA
"322","14","true_50",62,1,62,0,NA,55,1,12.032,NA
"323","14","true_50",63,1,63,0,NA,45,1,7.007,NA
"324","14","true_50",64,1,64,0,NA,80,1,7.567,NA
"325","14","true_50",65,1,65,0,NA,60,1,8.307,NA
"326","14","true_100",66,1,66,0,NA,95,1,10.677,NA
"327","14","true_100",67,1,67,0,NA,55,1,7.824,NA
"328","14","true_100",68,1,68,0,NA,40,1,13.78,NA
"329","14","true_100",69,1,69,0,NA,40,1,18.646,NA
"330","14","true_100",70,1,70,0,NA,40,1,17.361,NA
"331","14","false_50",71,1,71,0,NA,65,1,8.03,NA
"332","14","false_50",72,1,72,0,NA,35,1,15.679,NA
"333","14","false_50",73,1,73,0,NA,55,1,14.716,NA
"334","14","false_50",74,1,74,0,NA,45,1,11.851,NA
"335","14","false_50",75,1,75,0,NA,60,1,19.434,NA
"336","14","false_100",76,1,76,0,NA,60,1,26.149,NA
"337","14","false_100",77,1,77,0,NA,20,1,16.578,NA
"338","14","false_100",78,1,78,0,NA,40,1,12.52,NA
"339","14","false_100",79,1,79,0,NA,55,1,9.968,NA
"340","14","false_100",80,1,80,0,NA,45,1,6.283,NA
"341","14","true_50",91,1,91,0,NA,45,0,7.9,NA
"342","14","true_50",92,1,92,0,NA,60,0,12.06,NA
"343","14","true_50",93,1,93,0,NA,80,0,13.575,NA
"344","14","true_50",94,1,94,0,NA,20,0,10.116,NA
"345","14","true_50",95,1,95,0,NA,60,0,7.56,NA
"346","14","true_100",96,1,96,0,NA,55,0,15.166,NA
"347","14","true_100",97,1,97,0,NA,40,0,5.821,NA
"348","14","true_100",98,1,98,0,NA,45,0,5.681,NA
"349","14","true_100",99,1,99,0,NA,20,0,24.388,NA
"350","14","true_100",100,1,100,0,NA,65,0,15.545,NA
"351","14","false_50",101,1,101,0,NA,30,0,13.091,NA
"352","14","false_50",102,1,102,0,NA,55,0,14.505,NA
"353","14","false_50",103,1,103,0,NA,55,0,25.654,NA
"354","14","false_50",104,1,104,0,NA,45,0,7.765,NA
"355","14","false_50",105,1,105,0,NA,55,0,7.8,NA
"356","14","false_100",106,1,106,0,NA,45,0,9.276,NA
"357","14","false_100",107,1,107,0,NA,60,0,8.999,NA
"358","14","false_100",108,1,108,0,NA,40,0,16.512,NA
"359","14","false_100",109,1,109,0,NA,40,0,23.906,NA
"360","14","false_100",110,1,110,0,NA,65,0,8.588,NA
"361","17","true_50",1,1,1,1,NA,92,1,8.27,NA
"362","17","true_50",2,1,2,1,NA,93,1,8.804,NA
"363","17","true_50",3,1,3,1,NA,98,1,7.192,NA
"364","17","true_50",4,1,4,1,NA,78,1,10.029,NA
"365","17","true_50",5,1,5,1,NA,95,1,6.681,NA
"366","17","true_100",6,1,6,1,NA,96,1,12.679,NA
"367","17","true_100",7,1,7,1,NA,85,1,13.108,NA
"368","17","true_100",8,1,8,1,NA,100,1,29.609,NA
"369","17","true_100",9,1,9,1,NA,59,1,7.003,NA
"370","17","true_100",10,1,10,1,NA,73,1,10.663,NA
"371","17","false_50",11,1,11,1,NA,19,1,10.466,NA
"372","17","false_50",12,1,12,1,NA,100,1,9.138,NA
"373","17","false_50",13,1,13,1,NA,77,1,11.078,NA
"374","17","false_50",14,1,14,1,NA,22,1,9.881,NA
"375","17","false_50",15,1,15,1,NA,7,1,8.712,NA
"376","17","false_100",16,1,16,1,NA,0,1,5.105,NA
"377","17","false_100",17,1,17,1,NA,100,1,7.828,NA
"378","17","false_100",18,1,18,1,NA,74,1,19.388,NA
"379","17","false_100",19,1,19,1,NA,0,1,9.252,NA
"380","17","false_100",20,1,20,1,NA,74,1,6.015,NA
"381","17","true_50",31,1,31,1,NA,0,0,7.206,NA
"382","17","true_50",32,1,32,1,NA,100,0,10.657,NA
"383","17","true_50",33,1,33,1,NA,68,0,8.089,NA
"384","17","true_50",34,1,34,1,NA,76,0,9.354,NA
"385","17","true_50",35,1,35,1,NA,16,0,8.499,NA
"386","17","true_100",36,1,36,1,NA,100,0,6.666,NA
"387","17","true_100",37,1,37,1,NA,98,0,8.655,NA
"388","17","true_100",38,1,38,1,NA,29,0,6.937,NA
"389","17","true_100",39,1,39,1,NA,98,0,12.046,NA
"390","17","true_100",40,1,40,1,NA,98,0,6.948,NA
"391","17","false_50",41,1,41,1,NA,62,0,8.025,NA
"392","17","false_50",42,1,42,1,NA,28,0,10.526,NA
"393","17","false_50",43,1,43,1,NA,3,0,8.788,NA
"394","17","false_50",44,1,44,1,NA,2,0,8.984,NA
"395","17","false_50",45,1,45,1,NA,27,0,14.795,NA
"396","17","false_100",46,1,46,1,NA,0,0,9.957,NA
"397","17","false_100",47,1,47,1,NA,8,0,8.594,NA
"398","17","false_100",48,1,48,1,NA,7,0,6.884,NA
"399","17","false_100",49,1,49,1,NA,0,0,6.801,NA
"400","17","false_100",50,1,50,1,NA,0,0,10.018,NA
"401","17","true_50",61,1,61,0,NA,62,1,7.051,NA
"402","17","true_50",62,1,62,0,NA,65,1,5.957,NA
"403","17","true_50",63,1,63,0,NA,74,1,7.406,NA
"404","17","true_50",64,1,64,0,NA,74,1,6.794,NA
"405","17","true_50",65,1,65,0,NA,0,1,14.256,NA
"406","17","true_100",66,1,66,0,NA,100,1,7.238,NA
"407","17","true_100",67,1,67,0,NA,61,1,8.067,NA
"408","17","true_100",68,1,68,0,NA,71,1,11.463,NA
"409","17","true_100",69,1,69,0,NA,100,1,11.992,NA
"410","17","true_100",70,1,70,0,NA,77,1,9.288,NA
"411","17","false_50",71,1,71,0,NA,0,1,12.386,NA
"412","17","false_50",72,1,72,0,NA,57,1,8.19,NA
"413","17","false_50",73,1,73,0,NA,64,1,8.838,NA
"414","17","false_50",74,1,74,0,NA,3,1,8.179,NA
"415","17","false_50",75,1,75,0,NA,36,1,9.618,NA
"416","17","false_100",76,1,76,0,NA,25,1,6.144,NA
"417","17","false_100",77,1,77,0,NA,76,1,10.192,NA
"418","17","false_100",78,1,78,0,NA,76,1,18.715,NA
"419","17","false_100",79,1,79,0,NA,18,1,8.969,NA
"420","17","false_100",80,1,80,0,NA,0,1,11.046,NA
"421","17","true_50",91,1,91,0,NA,17,0,7.595,NA
"422","17","true_50",92,1,92,0,NA,27,0,10.561,NA
"423","17","true_50",93,1,93,0,NA,9,0,7.836,NA
"424","17","true_50",94,1,94,0,NA,70,0,10.172,NA
"425","17","true_50",95,1,95,0,NA,0,0,8.965,NA
"426","17","true_100",96,1,96,0,NA,97,0,8.357,NA
"427","17","true_100",97,1,97,0,NA,58,0,14.23,NA
"428","17","true_100",98,1,98,0,NA,91,0,5.169,NA
"429","17","true_100",99,1,99,0,NA,78,0,7.674,NA
"430","17","true_100",100,1,100,0,NA,91,0,15.006,NA
"431","17","false_50",101,1,101,0,NA,0,0,7.673,NA
"432","17","false_50",102,1,102,0,NA,100,0,17.01,NA
"433","17","false_50",103,1,103,0,NA,72,0,10.189,NA
"434","17","false_50",104,1,104,0,NA,94,0,12.31,NA
"435","17","false_50",105,1,105,0,NA,81,0,7.797,NA
"436","17","false_100",106,1,106,0,NA,10,0,7.528,NA
"437","17","false_100",107,1,107,0,NA,0,0,6.248,NA
"438","17","false_100",108,1,108,0,NA,0,0,6.295,NA
"439","17","false_100",109,1,109,0,NA,16,0,7.858,NA
"440","17","false_100",110,1,110,0,NA,0,0,7.43,NA
"441","19","true_50",1,1,1,1,NA,70,1,8.436,NA
"442","19","true_50",2,1,2,1,NA,66,1,9.855,NA
"443","19","true_50",3,1,3,1,NA,100,1,4.787,NA
"444","19","true_50",4,1,4,1,NA,70,1,9.946,NA
"445","19","true_50",5,1,5,1,NA,89,1,6.252,NA
"446","19","true_100",6,1,6,1,NA,100,1,9.455,NA
"447","19","true_100",7,1,7,1,NA,100,1,10.063,NA
"448","19","true_100",8,1,8,1,NA,100,1,6.32,NA
"449","19","true_100",9,1,9,1,NA,100,1,6.035,NA
"450","19","true_100",10,1,10,1,NA,100,1,4.781,NA
"451","19","false_50",11,1,11,1,NA,100,1,5.542,NA
"452","19","false_50",12,1,12,1,NA,77,1,11.557,NA
"453","19","false_50",13,1,13,1,NA,40,1,7.038,NA
"454","19","false_50",14,1,14,1,NA,40,1,8.425,NA
"455","19","false_50",15,1,15,1,NA,39,1,8.183,NA
"456","19","false_100",16,1,16,1,NA,85,1,9.097,NA
"457","19","false_100",17,1,17,1,NA,62,1,8.764,NA
"458","19","false_100",18,1,18,1,NA,77,1,9.247,NA
"459","19","false_100",19,1,19,1,NA,93,1,8.051,NA
"460","19","false_100",20,1,20,1,NA,8,1,7.173,NA
"461","19","true_50",31,1,31,1,NA,62,0,7.617,NA
"462","19","true_50",32,1,32,1,NA,61,0,13.38,NA
"463","19","true_50",33,1,33,1,NA,60,0,6.117,NA
"464","19","true_50",34,1,34,1,NA,70,0,17.344,NA
"465","19","true_50",35,1,35,1,NA,65,0,8.072,NA
"466","19","true_100",36,1,36,1,NA,100,0,9.07,NA
"467","19","true_100",37,1,37,1,NA,87,0,8.934,NA
"468","19","true_100",38,1,38,1,NA,100,0,6.845,NA
"469","19","true_100",39,1,39,1,NA,67,0,18.488,NA
"470","19","true_100",40,1,40,1,NA,100,0,7.834,NA
"471","19","false_50",41,1,41,1,NA,26,0,6.411,NA
"472","19","false_50",42,1,42,1,NA,37,0,6.562,NA
"473","19","false_50",43,1,43,1,NA,40,0,11.441,NA
"474","19","false_50",44,1,44,1,NA,76,0,6.911,NA
"475","19","false_50",45,1,45,1,NA,36,0,7.905,NA
"476","19","false_100",46,1,46,1,NA,31,0,8.175,NA
"477","19","false_100",47,1,47,1,NA,58,0,8.97,NA
"478","19","false_100",48,1,48,1,NA,2,0,12.306,NA
"479","19","false_100",49,1,49,1,NA,0,0,9.331,NA
"480","19","false_100",50,1,50,1,NA,12,0,10.385,NA
"481","19","true_50",61,1,61,0,NA,96,1,5.789,NA
"482","19","true_50",62,1,62,0,NA,70,1,16.889,NA
"483","19","true_50",63,1,63,0,NA,100,1,4.46,NA
"484","19","true_50",64,1,64,0,NA,63,1,10.313,NA
"485","19","true_50",65,1,65,0,NA,94,1,7.932,NA
"486","19","true_100",66,1,66,0,NA,100,1,21.055,NA
"487","19","true_100",67,1,67,0,NA,100,1,5.087,NA
"488","19","true_100",68,1,68,0,NA,100,1,5.433,NA
"489","19","true_100",69,1,69,0,NA,98,1,11.161,NA
"490","19","true_100",70,1,70,0,NA,76,1,6.265,NA
"491","19","false_50",71,1,71,0,NA,70,1,7.685,NA
"492","19","false_50",72,1,72,0,NA,78,1,7.815,NA
"493","19","false_50",73,1,73,0,NA,92,1,5.991,NA
"494","19","false_50",74,1,74,0,NA,100,1,6.698,NA
"495","19","false_50",75,1,75,0,NA,70,1,5.487,NA
"496","19","false_100",76,1,76,0,NA,9,1,13.214,NA
"497","19","false_100",77,1,77,0,NA,98,1,6.644,NA
"498","19","false_100",78,1,78,0,NA,45,1,5.425,NA
"499","19","false_100",79,1,79,0,NA,33,1,9.708,NA
"500","19","false_100",80,1,80,0,NA,66,1,12.499,NA
"501","19","true_50",91,1,91,0,NA,60,0,6.872,NA
"502","19","true_50",92,1,92,0,NA,64,0,5.254,NA
"503","19","true_50",93,1,93,0,NA,64,0,4.695,NA
"504","19","true_50",94,1,94,0,NA,54,0,12.763,NA
"505","19","true_50",95,1,95,0,NA,63,0,12.241,NA
"506","19","true_100",96,1,96,0,NA,100,0,7.026,NA
"507","19","true_100",97,1,97,0,NA,100,0,6.762,NA
"508","19","true_100",98,1,98,0,NA,90,0,6.23,NA
"509","19","true_100",99,1,99,0,NA,100,0,7.365,NA
"510","19","true_100",100,1,100,0,NA,100,0,11.916,NA
"511","19","false_50",101,1,101,0,NA,68,0,10.668,NA
"512","19","false_50",102,1,102,0,NA,35,0,9.104,NA
"513","19","false_50",103,1,103,0,NA,64,0,12.202,NA
"514","19","false_50",104,1,104,0,NA,38,0,10.223,NA
"515","19","false_50",105,1,105,0,NA,36,0,7.657,NA
"516","19","false_100",106,1,106,0,NA,67,0,9.014,NA
"517","19","false_100",107,1,107,0,NA,9,0,9.978,NA
"518","19","false_100",108,1,108,0,NA,0,0,7.31,NA
"519","19","false_100",109,1,109,0,NA,26,0,5.945,NA
"520","19","false_100",110,1,110,0,NA,20,0,6.494,NA
"521","24","true_50",1,1,1,1,NA,13,1,4.565,NA
"522","24","true_50",2,1,2,1,NA,90,1,9.351,NA
"523","24","true_50",3,1,3,1,NA,6,1,6.9,NA
"524","24","true_50",4,1,4,1,NA,93,1,4.273,NA
"525","24","true_50",5,1,5,1,NA,27,1,9.763,NA
"526","24","true_100",6,1,6,1,NA,0,1,4.987,NA
"527","24","true_100",7,1,7,1,NA,2,1,5.382,NA
"528","24","true_100",8,1,8,1,NA,58,1,8.854,NA
"529","24","true_100",9,1,9,1,NA,32,1,8.578,NA
"530","24","true_100",10,1,10,1,NA,11,1,4.069,NA
"531","24","false_50",11,1,11,1,NA,96,1,14.073,NA
"532","24","false_50",12,1,12,1,NA,66,1,5.208,NA
"533","24","false_50",13,1,13,1,NA,80,1,17.243,NA
"534","24","false_50",14,1,14,1,NA,18,1,13.646,NA
"535","24","false_50",15,1,15,1,NA,84,1,11.951,NA
"536","24","false_100",16,1,16,1,NA,27,1,23.053,NA
"537","24","false_100",17,1,17,1,NA,78,1,9.791,NA
"538","24","false_100",18,1,18,1,NA,100,1,8.61,NA
"539","24","false_100",19,1,19,1,NA,92,1,5.604,NA
"540","24","false_100",20,1,20,1,NA,100,1,4.681,NA
"541","24","true_50",31,1,31,1,NA,31,0,7.089,NA
"542","24","true_50",32,1,32,1,NA,34,0,4.834,NA
"543","24","true_50",33,1,33,1,NA,73,0,11.559,NA
"544","24","true_50",34,1,34,1,NA,26,0,7.021,NA
"545","24","true_50",35,1,35,1,NA,69,0,5.977,NA
"546","24","true_100",36,1,36,1,NA,100,0,11.409,NA
"547","24","true_100",37,1,37,1,NA,1,0,10.184,NA
"548","24","true_100",38,1,38,1,NA,100,0,4.172,NA
"549","24","true_100",39,1,39,1,NA,0,0,6.242,NA
"550","24","true_100",40,1,40,1,NA,1,0,11.072,NA
"551","24","false_50",41,1,41,1,NA,82,0,19.434,NA
"552","24","false_50",42,1,42,1,NA,17,0,5.733,NA
"553","24","false_50",43,1,43,1,NA,98,0,7.59,NA
"554","24","false_50",44,1,44,1,NA,95,0,6.772,NA
"555","24","false_50",45,1,45,1,NA,81,0,6.875,NA
"556","24","false_100",46,1,46,1,NA,61,0,8.82,NA
"557","24","false_100",47,1,47,1,NA,76,0,6.389,NA
"558","24","false_100",48,1,48,1,NA,66,0,13.98,NA
"559","24","false_100",49,1,49,1,NA,70,0,15.122,NA
"560","24","false_100",50,1,50,1,NA,100,0,9.12,NA
"561","24","true_50",61,1,61,0,NA,32,1,8.323,NA
"562","24","true_50",62,1,62,0,NA,63,1,10.295,NA
"563","24","true_50",63,1,63,0,NA,30,1,6.979,NA
"564","24","true_50",64,1,64,0,NA,67,1,8.378,NA
"565","24","true_50",65,1,65,0,NA,100,1,6.643,NA
"566","24","true_100",66,1,66,0,NA,89,1,7.09,NA
"567","24","true_100",67,1,67,0,NA,92,1,13.508,NA
"568","24","true_100",68,1,68,0,NA,81,1,3.35,NA
"569","24","true_100",69,1,69,0,NA,11,1,20.838,NA
"570","24","true_100",70,1,70,0,NA,5,1,8.773,NA
"571","24","false_50",71,1,71,0,NA,89,1,7.44,NA
"572","24","false_50",72,1,72,0,NA,14,1,9.782,NA
"573","24","false_50",73,1,73,0,NA,9,1,7.024,NA
"574","24","false_50",74,1,74,0,NA,74,1,6.892,NA
"575","24","false_50",75,1,75,0,NA,16,1,24.345,NA
"576","24","false_100",76,1,76,0,NA,81,1,11.416,NA
"577","24","false_100",77,1,77,0,NA,76,1,9.304,NA
"578","24","false_100",78,1,78,0,NA,85,1,7.89,NA
"579","24","false_100",79,1,79,0,NA,60,1,9.46,NA
"580","24","false_100",80,1,80,0,NA,17,1,6.995,NA
"581","24","true_50",91,1,91,0,NA,95,0,3.783,NA
"582","24","true_50",92,1,92,0,NA,4,0,9.331,NA
"583","24","true_50",93,1,93,0,NA,81,0,6.255,NA
"584","24","true_50",94,1,94,0,NA,13,0,8.671,NA
"585","24","true_50",95,1,95,0,NA,30,0,4.216,NA
"586","24","true_100",96,1,96,0,NA,10,0,9.641,NA
"587","24","true_100",97,1,97,0,NA,7,0,6.249,NA
"588","24","true_100",98,1,98,0,NA,0,0,8.142,NA
"589","24","true_100",99,1,99,0,NA,1,0,8.555,NA
"590","24","true_100",100,1,100,0,NA,0,0,11.884,NA
"591","24","false_50",101,1,101,0,NA,84,0,8.67,NA
"592","24","false_50",102,1,102,0,NA,25,0,10.534,NA
"593","24","false_50",103,1,103,0,NA,98,0,8.04,NA
"594","24","false_50",104,1,104,0,NA,67,0,8.245,NA
"595","24","false_50",105,1,105,0,NA,73,0,11.199,NA
"596","24","false_100",106,1,106,0,NA,22,0,9.258,NA
"597","24","false_100",107,1,107,0,NA,58,0,20.357,NA
"598","24","false_100",108,1,108,0,NA,69,0,26.829,NA
"599","24","false_100",109,1,109,0,NA,83,0,6.92,NA
"600","24","false_100",110,1,110,0,NA,72,0,7.771,NA
"601","30","true_50",1,1,1,1,NA,87,1,5.251,NA
"602","30","true_50",2,1,2,1,NA,65,1,9.249,NA
"603","30","true_50",3,1,3,1,NA,73,1,6.341,NA
"604","30","true_50",4,1,4,1,NA,36,1,10.607,NA
"605","30","true_50",5,1,5,1,NA,92,1,5.639,NA
"606","30","true_100",6,1,6,1,NA,85,1,5.657,NA
"607","30","true_100",7,1,7,1,NA,89,1,5.782,NA
"608","30","true_100",8,1,8,1,NA,98,1,5.074,NA
"609","30","true_100",9,1,9,1,NA,100,1,6.763,NA
"610","30","true_100",10,1,10,1,NA,100,1,11.781,NA
"611","30","false_50",11,1,11,1,NA,69,1,13.009,NA
"612","30","false_50",12,1,12,1,NA,79,1,6.755,NA
"613","30","false_50",13,1,13,1,NA,62,1,5.878,NA
"614","30","false_50",14,1,14,1,NA,39,1,7.37,NA
"615","30","false_50",15,1,15,1,NA,70,1,8.12,NA
"616","30","false_100",16,1,16,1,NA,90,1,10.213,NA
"617","30","false_100",17,1,17,1,NA,65,1,12.877,NA
"618","30","false_100",18,1,18,1,NA,8,1,8.193,NA
"619","30","false_100",19,1,19,1,NA,66,1,9.282,NA
"620","30","false_100",20,1,20,1,NA,70,1,11.613,NA
"621","30","true_50",31,1,31,1,NA,37,0,7.806,NA
"622","30","true_50",32,1,32,1,NA,68,0,5.562,NA
"623","30","true_50",33,1,33,1,NA,36,0,5.606,NA
"624","30","true_50",34,1,34,1,NA,32,0,5.334,NA
"625","30","true_50",35,1,35,1,NA,30,0,6.062,NA
"626","30","true_100",36,1,36,1,NA,94,0,8.308,NA
"627","30","true_100",37,1,37,1,NA,88,0,8.793,NA
"628","30","true_100",38,1,38,1,NA,100,0,6.603,NA
"629","30","true_100",39,1,39,1,NA,94,0,7.684,NA
"630","30","true_100",40,1,40,1,NA,100,0,5.104,NA
"631","30","false_50",41,1,41,1,NA,37,0,9.898,NA
"632","30","false_50",42,1,42,1,NA,57,0,8.228,NA
"633","30","false_50",43,1,43,1,NA,69,0,9.206,NA
"634","30","false_50",44,1,44,1,NA,21,0,9.608,NA
"635","30","false_50",45,1,45,1,NA,33,0,9.811,NA
"636","30","false_100",46,1,46,1,NA,0,0,7.097,NA
"637","30","false_100",47,1,47,1,NA,10,0,10.198,NA
"638","30","false_100",48,1,48,1,NA,4,0,7.469,NA
"639","30","false_100",49,1,49,1,NA,0,0,10.918,NA
"640","30","false_100",50,1,50,1,NA,100,0,10.029,NA
"641","30","true_50",61,1,61,0,NA,89,1,5.965,NA
"642","30","true_50",62,1,62,0,NA,99,1,15.606,NA
"643","30","true_50",63,1,63,0,NA,67,1,8.292,NA
"644","30","true_50",64,1,64,0,NA,30,1,7.39,NA
"645","30","true_50",65,1,65,0,NA,61,1,7.748,NA
"646","30","true_100",66,1,66,0,NA,98,1,5.237,NA
"647","30","true_100",67,1,67,0,NA,100,1,6.489,NA
"648","30","true_100",68,1,68,0,NA,97,1,8.942,NA
"649","30","true_100",69,1,69,0,NA,100,1,12.388,NA
"650","30","true_100",70,1,70,0,NA,100,1,10.24,NA
"651","30","false_50",71,1,71,0,NA,76,1,3.712,NA
"652","30","false_50",72,1,72,0,NA,34,1,6.144,NA
"653","30","false_50",73,1,73,0,NA,88,1,18.389,NA
"654","30","false_50",74,1,74,0,NA,84,1,6.358,NA
"655","30","false_50",75,1,75,0,NA,78,1,5.33,NA
"656","30","false_100",76,1,76,0,NA,100,1,9.457,NA
"657","30","false_100",77,1,77,0,NA,32,1,8.277,NA
"658","30","false_100",78,1,78,0,NA,6,1,10.956,NA
"659","30","false_100",79,1,79,0,NA,72,1,8.91,NA
"660","30","false_100",80,1,80,0,NA,20,1,6.551,NA
"661","30","true_50",91,1,91,0,NA,78,0,6.827,NA
"662","30","true_50",92,1,92,0,NA,37,0,10.094,NA
"663","30","true_50",93,1,93,0,NA,35,0,8.182,NA
"664","30","true_50",94,1,94,0,NA,69,0,5.605,NA
"665","30","true_50",95,1,95,0,NA,88,0,11.504,NA
"666","30","true_100",96,1,96,0,NA,100,0,5.408,NA
"667","30","true_100",97,1,97,0,NA,100,0,5.949,NA
"668","30","true_100",98,1,98,0,NA,98,0,5.018,NA
"669","30","true_100",99,1,99,0,NA,90,0,6.515,NA
"670","30","true_100",100,1,100,0,NA,100,0,48.207,NA
"671","30","false_50",101,1,101,0,NA,61,0,14.645,NA
"672","30","false_50",102,1,102,0,NA,67,0,9.089,NA
"673","30","false_50",103,1,103,0,NA,40,0,9.334,NA
"674","30","false_50",104,1,104,0,NA,58,0,12.312,NA
"675","30","false_50",105,1,105,0,NA,39,0,8.751,NA
"676","30","false_100",106,1,106,0,NA,0,0,6.842,NA
"677","30","false_100",107,1,107,0,NA,9,0,7.758,NA
"678","30","false_100",108,1,108,0,NA,12,0,8.572,NA
"679","30","false_100",109,1,109,0,NA,0,0,12.17,NA
"680","30","false_100",110,1,110,0,NA,0,0,6.398,NA
"681","36","true_50",1,1,1,1,NA,100,1,5.504,NA
"682","36","true_50",2,1,2,1,NA,83,1,6.995,NA
"683","36","true_50",3,1,3,1,NA,100,1,5.169,NA
"684","36","true_50",4,1,4,1,NA,100,1,6.242,NA
"685","36","true_50",5,1,5,1,NA,28,1,6.998,NA
"686","36","true_100",6,1,6,1,NA,100,1,5.52,NA
"687","36","true_100",7,1,7,1,NA,69,1,8.152,NA
"688","36","true_100",8,1,8,1,NA,100,1,11.063,NA
"689","36","true_100",9,1,9,1,NA,100,1,8.161,NA
"690","36","true_100",10,1,10,1,NA,100,1,6.426,NA
"691","36","false_50",11,1,11,1,NA,100,1,8.915,NA
"692","36","false_50",12,1,12,1,NA,100,1,7.364,NA
"693","36","false_50",13,1,13,1,NA,100,1,5.756,NA
"694","36","false_50",14,1,14,1,NA,0,1,10.545,NA
"695","36","false_50",15,1,15,1,NA,100,1,5.818,NA
"696","36","false_100",16,1,16,1,NA,100,1,5.535,NA
"697","36","false_100",17,1,17,1,NA,100,1,7.487,NA
"698","36","false_100",18,1,18,1,NA,0,1,10.705,NA
"699","36","false_100",19,1,19,1,NA,100,1,8.394,NA
"700","36","false_100",20,1,20,1,NA,100,1,8.148,NA
"701","36","true_50",31,1,31,1,NA,22,0,9.775,NA
"702","36","true_50",32,1,32,1,NA,68,0,8.009,NA
"703","36","true_50",33,1,33,1,NA,0,0,4.283,NA
"704","36","true_50",34,1,34,1,NA,69,0,8.734,NA
"705","36","true_50",35,1,35,1,NA,19,0,9.92,NA
"706","36","true_100",36,1,36,1,NA,100,0,6.768,NA
"707","36","true_100",37,1,37,1,NA,15,0,6.642,NA
"708","36","true_100",38,1,38,1,NA,76,0,9.735,NA
"709","36","true_100",39,1,39,1,NA,87,0,5.988,NA
"710","36","true_100",40,1,40,1,NA,30,0,5.288,NA
"711","36","false_50",41,1,41,1,NA,82,0,8.091,NA
"712","36","false_50",42,1,42,1,NA,82,0,8.243,NA
"713","36","false_50",43,1,43,1,NA,70,0,9.208,NA
"714","36","false_50",44,1,44,1,NA,75,0,5.379,NA
"715","36","false_50",45,1,45,1,NA,100,0,10.083,NA
"716","36","false_100",46,1,46,1,NA,0,0,11.57,NA
"717","36","false_100",47,1,47,1,NA,21,0,6.896,NA
"718","36","false_100",48,1,48,1,NA,30,0,10.813,NA
"719","36","false_100",49,1,49,1,NA,21,0,4,NA
"720","36","false_100",50,1,50,1,NA,9,0,6.812,NA
"721","36","true_50",61,1,61,0,NA,100,1,7.721,NA
"722","36","true_50",62,1,62,0,NA,78,1,4.866,NA
"723","36","true_50",63,1,63,0,NA,87,1,5.652,NA
"724","36","true_50",64,1,64,0,NA,100,1,12.595,NA
"725","36","true_50",65,1,65,0,NA,0,1,16.067,NA
"726","36","true_100",66,1,66,0,NA,100,1,4.868,NA
"727","36","true_100",67,1,67,0,NA,79,1,7.159,NA
"728","36","true_100",68,1,68,0,NA,72,1,4.92,NA
"729","36","true_100",69,1,69,0,NA,71,1,6.934,NA
"730","36","true_100",70,1,70,0,NA,100,1,3.855,NA
"731","36","false_50",71,1,71,0,NA,100,1,4.95,NA
"732","36","false_50",72,1,72,0,NA,100,1,10.763,NA
"733","36","false_50",73,1,73,0,NA,68,1,7.013,NA
"734","36","false_50",74,1,74,0,NA,34,1,7.03,NA
"735","36","false_50",75,1,75,0,NA,28,1,7.433,NA
"736","36","false_100",76,1,76,0,NA,38,1,6.819,NA
"737","36","false_100",77,1,77,0,NA,23,1,5.9,NA
"738","36","false_100",78,1,78,0,NA,100,1,10.823,NA
"739","36","false_100",79,1,79,0,NA,19,1,5.593,NA
"740","36","false_100",80,1,80,0,NA,100,1,6.883,NA
"741","36","true_50",91,1,91,0,NA,0,0,6.507,NA
"742","36","true_50",92,1,92,0,NA,70,0,8.166,NA
"743","36","true_50",93,1,93,0,NA,92,0,6.333,NA
"744","36","true_50",94,1,94,0,NA,73,0,6.283,NA
"745","36","true_50",95,1,95,0,NA,33,0,4.993,NA
"746","36","true_100",96,1,96,0,NA,0,0,7.233,NA
"747","36","true_100",97,1,97,0,NA,100,0,6.144,NA
"748","36","true_100",98,1,98,0,NA,62,0,7.208,NA
"749","36","true_100",99,1,99,0,NA,83,0,8.913,NA
"750","36","true_100",100,1,100,0,NA,81,0,4.72,NA
"751","36","false_50",101,1,101,0,NA,18,0,14.576,NA
"752","36","false_50",102,1,102,0,NA,89,0,6.654,NA
"753","36","false_50",103,1,103,0,NA,100,0,6.356,NA
"754","36","false_50",104,1,104,0,NA,0,0,9.944,NA
"755","36","false_50",105,1,105,0,NA,100,0,7.518,NA
"756","36","false_100",106,1,106,0,NA,25,0,4.788,NA
"757","36","false_100",107,1,107,0,NA,31,0,4.16,NA
"758","36","false_100",108,1,108,0,NA,82,0,6.72,NA
"759","36","false_100",109,1,109,0,NA,29,0,4.42,NA
"760","36","false_100",110,1,110,0,NA,82,0,6.713,NA
"761","4","true_50",1,1,1,1,NA,47,1,7.655,NA
"762","4","true_50",2,1,2,1,NA,46,1,4.867,NA
"763","4","true_50",3,1,3,1,NA,31,1,2.979,NA
"764","4","true_50",4,1,4,1,NA,51,1,8.724,NA
"765","4","true_50",5,1,5,1,NA,66,1,10.037,NA
"766","4","true_100",6,1,6,1,NA,61,1,6.528,NA
"767","4","true_100",7,1,7,1,NA,56,1,6.025,NA
"768","4","true_100",8,1,8,1,NA,55,1,11.503,NA
"769","4","true_100",9,1,9,1,NA,61,1,4.396,NA
"770","4","true_100",10,1,10,1,NA,40,1,4.451,NA
"771","4","false_50",11,1,11,1,NA,32,1,9.223,NA
"772","4","false_50",12,1,12,1,NA,59,1,4.55,NA
"773","4","false_50",13,1,13,1,NA,78,1,9.262,NA
"774","4","false_50",14,1,14,1,NA,77,1,11.36,NA
"775","4","false_50",15,1,15,1,NA,26,1,7.232,NA
"776","4","false_100",16,1,16,1,NA,57,1,6.208,NA
"777","4","false_100",17,1,17,1,NA,36,1,13.116,NA
"778","4","false_100",18,1,18,1,NA,31,1,13.33,NA
"779","4","false_100",19,1,19,1,NA,38,1,5.517,NA
"780","4","false_100",20,1,20,1,NA,36,1,7.499,NA
"781","4","true_50",31,1,31,1,NA,51,0,8.648,NA
"782","4","true_50",32,1,32,1,NA,51,0,6.641,NA
"783","4","true_50",33,1,33,1,NA,29,0,17.362,NA
"784","4","true_50",34,1,34,1,NA,58,0,6.256,NA
"785","4","true_50",35,1,35,1,NA,61,0,6.076,NA
"786","4","true_100",36,1,36,1,NA,42,0,4.752,NA
"787","4","true_100",37,1,37,1,NA,58,0,6.929,NA
"788","4","true_100",38,1,38,1,NA,64,0,4.875,NA
"789","4","true_100",39,1,39,1,NA,68,0,3.625,NA
"790","4","true_100",40,1,40,1,NA,45,0,6.747,NA
"791","4","false_50",41,1,41,1,NA,41,0,5.391,NA
"792","4","false_50",42,1,42,1,NA,61,0,6.52,NA
"793","4","false_50",43,1,43,1,NA,74,0,8.589,NA
"794","4","false_50",44,1,44,1,NA,31,0,11.891,NA
"795","4","false_50",45,1,45,1,NA,58,0,6.479,NA
"796","4","false_100",46,1,46,1,NA,62,0,7.626,NA
"797","4","false_100",47,1,47,1,NA,56,0,4.281,NA
"798","4","false_100",48,1,48,1,NA,48,0,7.017,NA
"799","4","false_100",49,1,49,1,NA,37,0,6.838,NA
"800","4","false_100",50,1,50,1,NA,43,0,5.285,NA
"801","4","true_50",61,1,61,0,NA,32,1,9.776,NA
"802","4","true_50",62,1,62,0,NA,54,1,11.334,NA
"803","4","true_50",63,1,63,0,NA,60,1,7.548,NA
"804","4","true_50",64,1,64,0,NA,55,1,5.246,NA
"805","4","true_50",65,1,65,0,NA,59,1,2.734,NA
"806","4","true_100",66,1,66,0,NA,65,1,4.127,NA
"807","4","true_100",67,1,67,0,NA,58,1,8.353,NA
"808","4","true_100",68,1,68,0,NA,69,1,8.647,NA
"809","4","true_100",69,1,69,0,NA,68,1,5.116,NA
"810","4","true_100",70,1,70,0,NA,67,1,4.731,NA
"811","4","false_50",71,1,71,0,NA,33,1,6.006,NA
"812","4","false_50",72,1,72,0,NA,30,1,11.063,NA
"813","4","false_50",73,1,73,0,NA,59,1,5.718,NA
"814","4","false_50",74,1,74,0,NA,33,1,6.572,NA
"815","4","false_50",75,1,75,0,NA,40,1,17.197,NA
"816","4","false_100",76,1,76,0,NA,63,1,8.198,NA
"817","4","false_100",77,1,77,0,NA,44,1,10.421,NA
"818","4","false_100",78,1,78,0,NA,30,1,10.755,NA
"819","4","false_100",79,1,79,0,NA,39,1,10.939,NA
"820","4","false_100",80,1,80,0,NA,38,1,5.382,NA
"821","4","true_50",91,1,91,0,NA,65,0,16.605,NA
"822","4","true_50",92,1,92,0,NA,66,0,10.773,NA
"823","4","true_50",93,1,93,0,NA,32,0,12.254,NA
"824","4","true_50",94,1,94,0,NA,44,0,6.919,NA
"825","4","true_50",95,1,95,0,NA,66,0,11.945,NA
"826","4","true_100",96,1,96,0,NA,42,0,8.141,NA
"827","4","true_100",97,1,97,0,NA,29,0,6.88,NA
"828","4","true_100",98,1,98,0,NA,73,0,11.961,NA
"829","4","true_100",99,1,99,0,NA,38,0,11.574,NA
"830","4","true_100",100,1,100,0,NA,35,0,7.693,NA
"831","4","false_50",101,1,101,0,NA,24,0,15.318,NA
"832","4","false_50",102,1,102,0,NA,49,0,9.841,NA
"833","4","false_50",103,1,103,0,NA,62,0,9.675,NA
"834","4","false_50",104,1,104,0,NA,42,0,8.658,NA
"835","4","false_50",105,1,105,0,NA,47,0,18.247,NA
"836","4","false_100",106,1,106,0,NA,44,0,7.479,NA
"837","4","false_100",107,1,107,0,NA,32,0,7.927,NA
"838","4","false_100",108,1,108,0,NA,57,0,5.748,NA
"839","4","false_100",109,1,109,0,NA,38,0,7.341,NA
"840","4","false_100",110,1,110,0,NA,59,0,4.791,NA
"841","8","true_50",1,1,1,1,NA,100,1,8.069,NA
"842","8","true_50",2,1,2,1,NA,100,1,5.983,NA
"843","8","true_50",3,1,3,1,NA,74,1,4.591,NA
"844","8","true_50",4,1,4,1,NA,100,1,3.732,NA
"845","8","true_50",5,1,5,1,NA,100,1,4.411,NA
"846","8","true_100",6,1,6,1,NA,35,1,7.581,NA
"847","8","true_100",7,1,7,1,NA,68,1,4.564,NA
"848","8","true_100",8,1,8,1,NA,93,1,5.499,NA
"849","8","true_100",9,1,9,1,NA,100,1,4.093,NA
"850","8","true_100",10,1,10,1,NA,100,1,5.639,NA
"851","8","false_50",11,1,11,1,NA,0,1,5.105,NA
"852","8","false_50",12,1,12,1,NA,95,1,6.394,NA
"853","8","false_50",13,1,13,1,NA,61,1,8.396,NA
"854","8","false_50",14,1,14,1,NA,30,1,3.724,NA
"855","8","false_50",15,1,15,1,NA,100,1,12.776,NA
"856","8","false_100",16,1,16,1,NA,72,1,4.76,NA
"857","8","false_100",17,1,17,1,NA,100,1,8.609,NA
"858","8","false_100",18,1,18,1,NA,95,1,5.968,NA
"859","8","false_100",19,1,19,1,NA,100,1,7.073,NA
"860","8","false_100",20,1,20,1,NA,0,1,10.494,NA
"861","8","true_50",31,1,31,1,NA,100,0,4.564,NA
"862","8","true_50",32,1,32,1,NA,68,0,7.562,NA
"863","8","true_50",33,1,33,1,NA,100,0,8.127,NA
"864","8","true_50",34,1,34,1,NA,100,0,7.763,NA
"865","8","true_50",35,1,35,1,NA,23,0,7.016,NA
"866","8","true_100",36,1,36,1,NA,56,0,3.74,NA
"867","8","true_100",37,1,37,1,NA,100,0,5.045,NA
"868","8","true_100",38,1,38,1,NA,19,0,6.746,NA
"869","8","true_100",39,1,39,1,NA,29,0,3.477,NA
"870","8","true_100",40,1,40,1,NA,62,0,13.032,NA
"871","8","false_50",41,1,41,1,NA,91,0,7.199,NA
"872","8","false_50",42,1,42,1,NA,0,0,4.683,NA
"873","8","false_50",43,1,43,1,NA,68,0,10.906,NA
"874","8","false_50",44,1,44,1,NA,63,0,9.963,NA
"875","8","false_50",45,1,45,1,NA,26,0,2.999,NA
"876","8","false_100",46,1,46,1,NA,0,0,9.832,NA
"877","8","false_100",47,1,47,1,NA,11,0,5.88,NA
"878","8","false_100",48,1,48,1,NA,67,0,3.915,NA
"879","8","false_100",49,1,49,1,NA,59,0,7.011,NA
"880","8","false_100",50,1,50,1,NA,75,0,5.977,NA
"881","8","true_50",61,1,61,0,NA,100,1,3.821,NA
"882","8","true_50",62,1,62,0,NA,4,1,4.244,NA
"883","8","true_50",63,1,63,0,NA,80,1,5.188,NA
"884","8","true_50",64,1,64,0,NA,100,1,7.343,NA
"885","8","true_50",65,1,65,0,NA,100,1,6.591,NA
"886","8","true_100",66,1,66,0,NA,0,1,6.807,NA
"887","8","true_100",67,1,67,0,NA,96,1,3.192,NA
"888","8","true_100",68,1,68,0,NA,76,1,3.39,NA
"889","8","true_100",69,1,69,0,NA,100,1,5.793,NA
"890","8","true_100",70,1,70,0,NA,0,1,11.098,NA
"891","8","false_50",71,1,71,0,NA,83,1,3.934,NA
"892","8","false_50",72,1,72,0,NA,21,1,6.289,NA
"893","8","false_50",73,1,73,0,NA,0,1,9.751,NA
"894","8","false_50",74,1,74,0,NA,25,1,5.158,NA
"895","8","false_50",75,1,75,0,NA,83,1,7.38,NA
"896","8","false_100",76,1,76,0,NA,100,1,4.413,NA
"897","8","false_100",77,1,77,0,NA,74,1,5.363,NA
"898","8","false_100",78,1,78,0,NA,100,1,4.313,NA
"899","8","false_100",79,1,79,0,NA,100,1,5.018,NA
"900","8","false_100",80,1,80,0,NA,71,1,4.988,NA
"901","8","true_50",91,1,91,0,NA,0,0,6.175,NA
"902","8","true_50",92,1,92,0,NA,35,0,5.774,NA
"903","8","true_50",93,1,93,0,NA,0,0,29.569,NA
"904","8","true_50",94,1,94,0,NA,0,0,3.914,NA
"905","8","true_50",95,1,95,0,NA,20,0,7.1,NA
"906","8","true_100",96,1,96,0,NA,100,0,7.789,NA
"907","8","true_100",97,1,97,0,NA,0,0,6.165,NA
"908","8","true_100",98,1,98,0,NA,42,0,7.225,NA
"909","8","true_100",99,1,99,0,NA,0,0,16.261,NA
"910","8","true_100",100,1,100,0,NA,0,0,6.236,NA
"911","8","false_50",101,1,101,0,NA,100,0,5.233,NA
"912","8","false_50",102,1,102,0,NA,26,0,4.693,NA
"913","8","false_50",103,1,103,0,NA,84,0,4.706,NA
"914","8","false_50",104,1,104,0,NA,0,0,11.94,NA
"915","8","false_50",105,1,105,0,NA,64,0,8.073,NA
"916","8","false_100",106,1,106,0,NA,87,0,4.367,NA
"917","8","false_100",107,1,107,0,NA,87,0,3.955,NA
"918","8","false_100",108,1,108,0,NA,75,0,7.534,NA
"919","8","false_100",109,1,109,0,NA,59,0,5.464,NA
"920","8","false_100",110,1,110,0,NA,65,0,5.733,NA
"921","11","true_50",1,1,1,1,NA,54,1,11.706,NA
"922","11","true_50",2,1,2,1,NA,100,1,10.373,NA
"923","11","true_50",3,1,3,1,NA,91,1,7.253,NA
"924","11","true_50",4,1,4,1,NA,100,1,9.003,NA
"925","11","true_50",5,1,5,1,NA,99,1,10.899,NA
"926","11","true_100",6,1,6,1,NA,100,1,7.424,NA
"927","11","true_100",7,1,7,1,NA,98,1,12.019,NA
"928","11","true_100",8,1,8,1,NA,89,1,8.43,NA
"929","11","true_100",9,1,9,1,NA,99,1,10.62,NA
"930","11","true_100",10,1,10,1,NA,85,1,7.939,NA
"931","11","false_50",11,1,11,1,NA,19,1,7.638,NA
"932","11","false_50",12,1,12,1,NA,27,1,7.553,NA
"933","11","false_50",13,1,13,1,NA,63,1,8.258,NA
"934","11","false_50",14,1,14,1,NA,23,1,9.144,NA
"935","11","false_50",15,1,15,1,NA,73,1,7.542,NA
"936","11","false_100",16,1,16,1,NA,87,1,8.488,NA
"937","11","false_100",17,1,17,1,NA,72,1,7.209,NA
"938","11","false_100",18,1,18,1,NA,17,1,8.185,NA
"939","11","false_100",19,1,19,1,NA,100,1,7.301,NA
"940","11","false_100",20,1,20,1,NA,13,1,13.397,NA
"941","11","true_50",31,1,31,1,NA,56,0,4.939,NA
"942","11","true_50",32,1,32,1,NA,75,0,7.309,NA
"943","11","true_50",33,1,33,1,NA,85,0,6.627,NA
"944","11","true_50",34,1,34,1,NA,88,0,7.481,NA
"945","11","true_50",35,1,35,1,NA,76,0,6.458,NA
"946","11","true_100",36,1,36,1,NA,100,0,10.012,NA
"947","11","true_100",37,1,37,1,NA,100,0,11.048,NA
"948","11","true_100",38,1,38,1,NA,85,0,8.4,NA
"949","11","true_100",39,1,39,1,NA,99,0,9.835,NA
"950","11","true_100",40,1,40,1,NA,100,0,11.484,NA
"951","11","false_50",41,1,41,1,NA,55,0,12.804,NA
"952","11","false_50",42,1,42,1,NA,68,0,9.157,NA
"953","11","false_50",43,1,43,1,NA,43,0,6.329,NA
"954","11","false_50",44,1,44,1,NA,68,0,11.153,NA
"955","11","false_50",45,1,45,1,NA,41,0,6.849,NA
"956","11","false_100",46,1,46,1,NA,11,0,7.869,NA
"957","11","false_100",47,1,47,1,NA,58,0,10.497,NA
"958","11","false_100",48,1,48,1,NA,21,0,8.153,NA
"959","11","false_100",49,1,49,1,NA,17,0,6.309,NA
"960","11","false_100",50,1,50,1,NA,12,0,8.184,NA
"961","11","true_50",61,1,61,0,NA,70,1,5.663,NA
"962","11","true_50",62,1,62,0,NA,76,1,6.745,NA
"963","11","true_50",63,1,63,0,NA,100,1,9.484,NA
"964","11","true_50",64,1,64,0,NA,89,1,16.928,NA
"965","11","true_50",65,1,65,0,NA,100,1,7.38,NA
"966","11","true_100",66,1,66,0,NA,83,1,8.806,NA
"967","11","true_100",67,1,67,0,NA,86,1,8.18,NA
"968","11","true_100",68,1,68,0,NA,90,1,8.172,NA
"969","11","true_100",69,1,69,0,NA,97,1,7.559,NA
"970","11","true_100",70,1,70,0,NA,82,1,6.415,NA
"971","11","false_50",71,1,71,0,NA,33,1,9.563,NA
"972","11","false_50",72,1,72,0,NA,62,1,5.139,NA
"973","11","false_50",73,1,73,0,NA,99,1,11.085,NA
"974","11","false_50",74,1,74,0,NA,40,1,9.349,NA
"975","11","false_50",75,1,75,0,NA,21,1,6.718,NA
"976","11","false_100",76,1,76,0,NA,100,1,7.518,NA
"977","11","false_100",77,1,77,0,NA,19,1,8.438,NA
"978","11","false_100",78,1,78,0,NA,13,1,8.074,NA
"979","11","false_100",79,1,79,0,NA,30,1,11.946,NA
"980","11","false_100",80,1,80,0,NA,100,1,7.011,NA
"981","11","true_50",91,1,91,0,NA,74,0,18.068,NA
"982","11","true_50",92,1,92,0,NA,71,0,6.663,NA
"983","11","true_50",93,1,93,0,NA,0,0,11.544,NA
"984","11","true_50",94,1,94,0,NA,99,0,7.949,NA
"985","11","true_50",95,1,95,0,NA,84,0,7.536,NA
"986","11","true_100",96,1,96,0,NA,86,0,6.352,NA
"987","11","true_100",97,1,97,0,NA,99,0,11.525,NA
"988","11","true_100",98,1,98,0,NA,86,0,7.822,NA
"989","11","true_100",99,1,99,0,NA,84,0,6.414,NA
"990","11","true_100",100,1,100,0,NA,85,0,7.841,NA
"991","11","false_50",101,1,101,0,NA,30,0,9.017,NA
"992","11","false_50",102,1,102,0,NA,27,0,6.912,NA
"993","11","false_50",103,1,103,0,NA,77,0,14.534,NA
"994","11","false_50",104,1,104,0,NA,76,0,6.947,NA
"995","11","false_50",105,1,105,0,NA,21,0,8.499,NA
"996","11","false_100",106,1,106,0,NA,27,0,7.947,NA
"997","11","false_100",107,1,107,0,NA,13,0,8.799,NA
"998","11","false_100",108,1,108,0,NA,14,0,7.322,NA
"999","11","false_100",109,1,109,0,NA,14,0,6.729,NA
"1000","11","false_100",110,1,110,0,NA,66,0,9.517,NA
"1001","18","true_50",1,1,1,1,NA,70,1,3.616,NA
"1002","18","true_50",2,1,2,1,NA,29,1,4.151,NA
"1003","18","true_50",3,1,3,1,NA,2,1,5.713,NA
"1004","18","true_50",4,1,4,1,NA,58,1,19.895,NA
"1005","18","true_50",5,1,5,1,NA,58,1,15.88,NA
"1006","18","true_100",6,1,6,1,NA,34,1,6.133,NA
"1007","18","true_100",7,1,7,1,NA,91,1,5.449,NA
"1008","18","true_100",8,1,8,1,NA,75,1,13.246,NA
"1009","18","true_100",9,1,9,1,NA,65,1,5.805,NA
"1010","18","true_100",10,1,10,1,NA,40,1,6.734,NA
"1011","18","false_50",11,1,11,1,NA,44,1,4.068,NA
"1012","18","false_50",12,1,12,1,NA,63,1,3.522,NA
"1013","18","false_50",13,1,13,1,NA,62,1,6.118,NA
"1014","18","false_50",14,1,14,1,NA,58,1,7.463,NA
"1015","18","false_50",15,1,15,1,NA,34,1,3.59,NA
"1016","18","false_100",16,1,16,1,NA,8,1,5.549,NA
"1017","18","false_100",17,1,17,1,NA,13,1,6.055,NA
"1018","18","false_100",18,1,18,1,NA,59,1,8.696,NA
"1019","18","false_100",19,1,19,1,NA,21,1,5.579,NA
"1020","18","false_100",20,1,20,1,NA,30,1,4.205,NA
"1021","18","true_50",31,1,31,1,NA,42,0,5.305,NA
"1022","18","true_50",32,1,32,1,NA,68,0,4.733,NA
"1023","18","true_50",33,1,33,1,NA,67,0,3.212,NA
"1024","18","true_50",34,1,34,1,NA,55,0,6.128,NA
"1025","18","true_50",35,1,35,1,NA,34,0,4.239,NA
"1026","18","true_100",36,1,36,1,NA,66,0,4.495,NA
"1027","18","true_100",37,1,37,1,NA,78,0,10.685,NA
"1028","18","true_100",38,1,38,1,NA,63,0,4.441,NA
"1029","18","true_100",39,1,39,1,NA,65,0,5.753,NA
"1030","18","true_100",40,1,40,1,NA,72,0,10.263,NA
"1031","18","false_50",41,1,41,1,NA,60,0,4.062,NA
"1032","18","false_50",42,1,42,1,NA,34,0,3.716,NA
"1033","18","false_50",43,1,43,1,NA,99,0,5.618,NA
"1034","18","false_50",44,1,44,1,NA,49,0,12.254,NA
"1035","18","false_50",45,1,45,1,NA,23,0,6.286,NA
"1036","18","false_100",46,1,46,1,NA,4,0,5.577,NA
"1037","18","false_100",47,1,47,1,NA,64,0,6.8,NA
"1038","18","false_100",48,1,48,1,NA,58,0,10.042,NA
"1039","18","false_100",49,1,49,1,NA,93,0,8.207,NA
"1040","18","false_100",50,1,50,1,NA,40,0,3.908,NA
"1041","18","true_50",61,1,61,0,NA,56,1,4.741,NA
"1042","18","true_50",62,1,62,0,NA,63,1,5.358,NA
"1043","18","true_50",63,1,63,0,NA,21,1,4.407,NA
"1044","18","true_50",64,1,64,0,NA,29,1,7.375,NA
"1045","18","true_50",65,1,65,0,NA,46,1,4.942,NA
"1046","18","true_100",66,1,66,0,NA,78,1,5.647,NA
"1047","18","true_100",67,1,67,0,NA,59,1,4.504,NA
"1048","18","true_100",68,1,68,0,NA,65,1,3.386,NA
"1049","18","true_100",69,1,69,0,NA,66,1,4.276,NA
"1050","18","true_100",70,1,70,0,NA,55,1,3.972,NA
"1051","18","false_50",71,1,71,0,NA,29,1,5.796,NA
"1052","18","false_50",72,1,72,0,NA,65,1,4.155,NA
"1053","18","false_50",73,1,73,0,NA,19,1,10.241,NA
"1054","18","false_50",74,1,74,0,NA,26,1,3.609,NA
"1055","18","false_50",75,1,75,0,NA,22,1,4.062,NA
"1056","18","false_100",76,1,76,0,NA,52,1,8.027,NA
"1057","18","false_100",77,1,77,0,NA,36,1,6.355,NA
"1058","18","false_100",78,1,78,0,NA,8,1,5.986,NA
"1059","18","false_100",79,1,79,0,NA,79,1,9.798,NA
"1060","18","false_100",80,1,80,0,NA,12,1,6.037,NA
"1061","18","true_50",91,1,91,0,NA,39,0,4.59,NA
"1062","18","true_50",92,1,92,0,NA,53,0,3.638,NA
"1063","18","true_50",93,1,93,0,NA,0,0,11.415,NA
"1064","18","true_50",94,1,94,0,NA,56,0,4.937,NA
"1065","18","true_50",95,1,95,0,NA,27,0,5.199,NA
"1066","18","true_100",96,1,96,0,NA,52,0,4.179,NA
"1067","18","true_100",97,1,97,0,NA,62,0,7.203,NA
"1068","18","true_100",98,1,98,0,NA,75,0,4.037,NA
"1069","18","true_100",99,1,99,0,NA,66,0,5.979,NA
"1070","18","true_100",100,1,100,0,NA,0,0,16.945,NA
"1071","18","false_50",101,1,101,0,NA,97,0,6.806,NA
"1072","18","false_50",102,1,102,0,NA,20,0,5.286,NA
"1073","18","false_50",103,1,103,0,NA,9,0,4.903,NA
"1074","18","false_50",104,1,104,0,NA,45,0,4.119,NA
"1075","18","false_50",105,1,105,0,NA,14,0,6.992,NA
"1076","18","false_100",106,1,106,0,NA,15,0,7.615,NA
"1077","18","false_100",107,1,107,0,NA,8,0,5.025,NA
"1078","18","false_100",108,1,108,0,NA,54,0,5.594,NA
"1079","18","false_100",109,1,109,0,NA,0,0,5.099,NA
"1080","18","false_100",110,1,110,0,NA,100,0,5.579,NA
"1081","25","true_50",1,1,1,1,NA,17,1,3.748,NA
"1082","25","true_50",2,1,2,1,NA,75,1,4.442,NA
"1083","25","true_50",3,1,3,1,NA,0,1,9.586,NA
"1084","25","true_50",4,1,4,1,NA,16,1,7.124,NA
"1085","25","true_50",5,1,5,1,NA,1,1,6.656,NA
"1086","25","true_100",6,1,6,1,NA,95,1,5.249,NA
"1087","25","true_100",7,1,7,1,NA,94,1,4.881,NA
"1088","25","true_100",8,1,8,1,NA,73,1,6.954,NA
"1089","25","true_100",9,1,9,1,NA,98,1,5.324,NA
"1090","25","true_100",10,1,10,1,NA,97,1,5.93,NA
"1091","25","false_50",11,1,11,1,NA,100,1,5.563,NA
"1092","25","false_50",12,1,12,1,NA,97,1,5.047,NA
"1093","25","false_50",13,1,13,1,NA,16,1,3.532,NA
"1094","25","false_50",14,1,14,1,NA,73,1,5.528,NA
"1095","25","false_50",15,1,15,1,NA,21,1,3.8,NA
"1096","25","false_100",16,1,16,1,NA,1,1,4.069,NA
"1097","25","false_100",17,1,17,1,NA,1,1,5.097,NA
"1098","25","false_100",18,1,18,1,NA,2,1,5.639,NA
"1099","25","false_100",19,1,19,1,NA,100,1,7.565,NA
"1100","25","false_100",20,1,20,1,NA,27,1,6.334,NA
"1101","25","true_50",31,1,31,1,NA,10,0,3.922,NA
"1102","25","true_50",32,1,32,1,NA,89,0,5.019,NA
"1103","25","true_50",33,1,33,1,NA,75,0,4.185,NA
"1104","25","true_50",34,1,34,1,NA,98,0,4.319,NA
"1105","25","true_50",35,1,35,1,NA,6,0,4.998,NA
"1106","25","true_100",36,1,36,1,NA,100,0,5.004,NA
"1107","25","true_100",37,1,37,1,NA,100,0,12.177,NA
"1108","25","true_100",38,1,38,1,NA,6,0,6.503,NA
"1109","25","true_100",39,1,39,1,NA,87,0,6.565,NA
"1110","25","true_100",40,1,40,1,NA,88,0,5.427,NA
"1111","25","false_50",41,1,41,1,NA,25,0,5.533,NA
"1112","25","false_50",42,1,42,1,NA,2,0,2.797,NA
"1113","25","false_50",43,1,43,1,NA,9,0,3.08,NA
"1114","25","false_50",44,1,44,1,NA,14,0,6.367,NA
"1115","25","false_50",45,1,45,1,NA,96,0,5.075,NA
"1116","25","false_100",46,1,46,1,NA,7,0,2.909,NA
"1117","25","false_100",47,1,47,1,NA,12,0,4.801,NA
"1118","25","false_100",48,1,48,1,NA,3,0,5.327,NA
"1119","25","false_100",49,1,49,1,NA,0,0,8.389,NA
"1120","25","false_100",50,1,50,1,NA,76,0,11.44,NA
"1121","25","true_50",61,1,61,0,NA,1,1,4.344,NA
"1122","25","true_50",62,1,62,0,NA,78,1,4.99,NA
"1123","25","true_50",63,1,63,0,NA,19,1,5.153,NA
"1124","25","true_50",64,1,64,0,NA,85,1,5.041,NA
"1125","25","true_50",65,1,65,0,NA,12,1,6.048,NA
"1126","25","true_100",66,1,66,0,NA,97,1,5.687,NA
"1127","25","true_100",67,1,67,0,NA,91,1,5.902,NA
"1128","25","true_100",68,1,68,0,NA,100,1,4.526,NA
"1129","25","true_100",69,1,69,0,NA,67,1,8.494,NA
"1130","25","true_100",70,1,70,0,NA,100,1,5.167,NA
"1131","25","false_50",71,1,71,0,NA,87,1,5.61,NA
"1132","25","false_50",72,1,72,0,NA,1,1,5.296,NA
"1133","25","false_50",73,1,73,0,NA,4,1,3.861,NA
"1134","25","false_50",74,1,74,0,NA,28,1,5.701,NA
"1135","25","false_50",75,1,75,0,NA,20,1,5.774,NA
"1136","25","false_100",76,1,76,0,NA,0,1,4.544,NA
"1137","25","false_100",77,1,77,0,NA,2,1,6.597,NA
"1138","25","false_100",78,1,78,0,NA,1,1,4.945,NA
"1139","25","false_100",79,1,79,0,NA,73,1,4.022,NA
"1140","25","false_100",80,1,80,0,NA,9,1,5.159,NA
"1141","25","true_50",91,1,91,0,NA,5,0,4.001,NA
"1142","25","true_50",92,1,92,0,NA,75,0,4.523,NA
"1143","25","true_50",93,1,93,0,NA,9,0,6.085,NA
"1144","25","true_50",94,1,94,0,NA,81,0,3.884,NA
"1145","25","true_50",95,1,95,0,NA,15,0,3.548,NA
"1146","25","true_100",96,1,96,0,NA,98,0,8.346,NA
"1147","25","true_100",97,1,97,0,NA,100,0,11.852,NA
"1148","25","true_100",98,1,98,0,NA,96,0,4.348,NA
"1149","25","true_100",99,1,99,0,NA,100,0,5.332,NA
"1150","25","true_100",100,1,100,0,NA,1,0,4.339,NA
"1151","25","false_50",101,1,101,0,NA,2,0,2.873,NA
"1152","25","false_50",102,1,102,0,NA,75,0,4.106,NA
"1153","25","false_50",103,1,103,0,NA,0,0,4.059,NA
"1154","25","false_50",104,1,104,0,NA,87,0,4.398,NA
"1155","25","false_50",105,1,105,0,NA,100,0,5.539,NA
"1156","25","false_100",106,1,106,0,NA,2,0,4.229,NA
"1157","25","false_100",107,1,107,0,NA,99,0,4.652,NA
"1158","25","false_100",108,1,108,0,NA,0,0,6.812,NA
"1159","25","false_100",109,1,109,0,NA,0,0,5.109,NA
"1160","25","false_100",110,1,110,0,NA,7,0,3.244,NA
"1161","29","true_50",1,1,1,1,NA,77,1,10.619,NA
"1162","29","true_50",2,1,2,1,NA,91,1,9.061,NA
"1163","29","true_50",3,1,3,1,NA,64,1,10.322,NA
"1164","29","true_50",4,1,4,1,NA,49,1,11.449,NA
"1165","29","true_50",5,1,5,1,NA,64,1,8.139,NA
"1166","29","true_100",6,1,6,1,NA,72,1,9.639,NA
"1167","29","true_100",7,1,7,1,NA,52,1,6.307,NA
"1168","29","true_100",8,1,8,1,NA,60,1,6.935,NA
"1169","29","true_100",9,1,9,1,NA,66,1,12.235,NA
"1170","29","true_100",10,1,10,1,NA,58,1,7.309,NA
"1171","29","false_50",11,1,11,1,NA,67,1,7.082,NA
"1172","29","false_50",12,1,12,1,NA,39,1,13.092,NA
"1173","29","false_50",13,1,13,1,NA,60,1,10.943,NA
"1174","29","false_50",14,1,14,1,NA,67,1,13.023,NA
"1175","29","false_50",15,1,15,1,NA,40,1,11.131,NA
"1176","29","false_100",16,1,16,1,NA,42,1,10.053,NA
"1177","29","false_100",17,1,17,1,NA,37,1,20.264,NA
"1178","29","false_100",18,1,18,1,NA,27,1,10.547,NA
"1179","29","false_100",19,1,19,1,NA,85,1,13.04,NA
"1180","29","false_100",20,1,20,1,NA,31,1,11.781,NA
"1181","29","true_50",31,1,31,1,NA,39,0,15.685,NA
"1182","29","true_50",32,1,32,1,NA,51,0,6.835,NA
"1183","29","true_50",33,1,33,1,NA,62,0,13.782,NA
"1184","29","true_50",34,1,34,1,NA,28,0,18.604,NA
"1185","29","true_50",35,1,35,1,NA,71,0,13.242,NA
"1186","29","true_100",36,1,36,1,NA,100,0,15.028,NA
"1187","29","true_100",37,1,37,1,NA,61,0,15.273,NA
"1188","29","true_100",38,1,38,1,NA,51,0,9.858,NA
"1189","29","true_100",39,1,39,1,NA,88,0,9.411,NA
"1190","29","true_100",40,1,40,1,NA,51,0,11.954,NA
"1191","29","false_50",41,1,41,1,NA,52,0,10.374,NA
"1192","29","false_50",42,1,42,1,NA,24,0,13.437,NA
"1193","29","false_50",43,1,43,1,NA,58,0,10.503,NA
"1194","29","false_50",44,1,44,1,NA,38,0,10.125,NA
"1195","29","false_50",45,1,45,1,NA,38,0,15.267,NA
"1196","29","false_100",46,1,46,1,NA,29,0,21.142,NA
"1197","29","false_100",47,1,47,1,NA,100,0,14.462,NA
"1198","29","false_100",48,1,48,1,NA,52,0,16.396,NA
"1199","29","false_100",49,1,49,1,NA,80,0,12.58,NA
"1200","29","false_100",50,1,50,1,NA,65,0,12.608,NA
"1201","29","true_50",61,1,61,0,NA,28,1,11.395,NA
"1202","29","true_50",62,1,62,0,NA,69,1,10.286,NA
"1203","29","true_50",63,1,63,0,NA,42,1,7.7,NA
"1204","29","true_50",64,1,64,0,NA,59,1,8.733,NA
"1205","29","true_50",65,1,65,0,NA,52,1,8.608,NA
"1206","29","true_100",66,1,66,0,NA,55,1,7.49,NA
"1207","29","true_100",67,1,67,0,NA,59,1,23.061,NA
"1208","29","true_100",68,1,68,0,NA,86,1,7.015,NA
"1209","29","true_100",69,1,69,0,NA,59,1,10.195,NA
"1210","29","true_100",70,1,70,0,NA,27,1,8.691,NA
"1211","29","false_50",71,1,71,0,NA,55,1,13.185,NA
"1212","29","false_50",72,1,72,0,NA,54,1,9.333,NA
"1213","29","false_50",73,1,73,0,NA,51,1,10.085,NA
"1214","29","false_50",74,1,74,0,NA,64,1,22.168,NA
"1215","29","false_50",75,1,75,0,NA,51,1,14.691,NA
"1216","29","false_100",76,1,76,0,NA,40,1,14.091,NA
"1217","29","false_100",77,1,77,0,NA,40,1,15.094,NA
"1218","29","false_100",78,1,78,0,NA,49,1,13.608,NA
"1219","29","false_100",79,1,79,0,NA,35,1,6.151,NA
"1220","29","false_100",80,1,80,0,NA,38,1,15.203,NA
"1221","29","true_50",91,1,91,0,NA,57,0,11.248,NA
"1222","29","true_50",92,1,92,0,NA,39,0,9.207,NA
"1223","29","true_50",93,1,93,0,NA,60,0,9.851,NA
"1224","29","true_50",94,1,94,0,NA,42,0,9.069,NA
"1225","29","true_50",95,1,95,0,NA,17,0,13.321,NA
"1226","29","true_100",96,1,96,0,NA,0,0,14.41,NA
"1227","29","true_100",97,1,97,0,NA,80,0,9.538,NA
"1228","29","true_100",98,1,98,0,NA,62,0,12.041,NA
"1229","29","true_100",99,1,99,0,NA,63,0,13.901,NA
"1230","29","true_100",100,1,100,0,NA,69,0,16.645,NA
"1231","29","false_50",101,1,101,0,NA,57,0,10.975,NA
"1232","29","false_50",102,1,102,0,NA,38,0,28.675,NA
"1233","29","false_50",103,1,103,0,NA,26,0,30.48,NA
"1234","29","false_50",104,1,104,0,NA,27,0,13.934,NA
"1235","29","false_50",105,1,105,0,NA,79,0,22.072,NA
"1236","29","false_100",106,1,106,0,NA,0,0,16.767,NA
"1237","29","false_100",107,1,107,0,NA,8,0,25.14,NA
"1238","29","false_100",108,1,108,0,NA,47,0,6.909,NA
"1239","29","false_100",109,1,109,0,NA,54,0,11.55,NA
"1240","29","false_100",110,1,110,0,NA,70,0,7.401,NA
"1241","35","true_50",1,1,1,1,NA,81,1,4.72,NA
"1242","35","true_50",2,1,2,1,NA,83,1,6.422,NA
"1243","35","true_50",3,1,3,1,NA,100,1,5.98,NA
"1244","35","true_50",4,1,4,1,NA,89,1,4.222,NA
"1245","35","true_50",5,1,5,1,NA,80,1,5.642,NA
"1246","35","true_100",6,1,6,1,NA,80,1,7.62,NA
"1247","35","true_100",7,1,7,1,NA,85,1,6.225,NA
"1248","35","true_100",8,1,8,1,NA,80,1,4.155,NA
"1249","35","true_100",9,1,9,1,NA,84,1,4.994,NA
"1250","35","true_100",10,1,10,1,NA,90,1,6.407,NA
"1251","35","false_50",11,1,11,1,NA,0,1,4.728,NA
"1252","35","false_50",12,1,12,1,NA,19,1,13.319,NA
"1253","35","false_50",13,1,13,1,NA,20,1,6.673,NA
"1254","35","false_50",14,1,14,1,NA,15,1,4.122,NA
"1255","35","false_50",15,1,15,1,NA,16,1,4.578,NA
"1256","35","false_100",16,1,16,1,NA,20,1,15.305,NA
"1257","35","false_100",17,1,17,1,NA,20,1,4.971,NA
"1258","35","false_100",18,1,18,1,NA,86,1,7.943,NA
"1259","35","false_100",19,1,19,1,NA,0,1,5.59,NA
"1260","35","false_100",20,1,20,1,NA,0,1,6.248,NA
"1261","35","true_50",31,1,31,1,NA,89,0,4.041,NA
"1262","35","true_50",32,1,32,1,NA,74,0,8.604,NA
"1263","35","true_50",33,1,33,1,NA,100,0,5.132,NA
"1264","35","true_50",34,1,34,1,NA,75,0,9.058,NA
"1265","35","true_50",35,1,35,1,NA,100,0,5.338,NA
"1266","35","true_100",36,1,36,1,NA,12,0,6.621,NA
"1267","35","true_100",37,1,37,1,NA,90,0,7.416,NA
"1268","35","true_100",38,1,38,1,NA,100,0,4.503,NA
"1269","35","true_100",39,1,39,1,NA,89,0,4.918,NA
"1270","35","true_100",40,1,40,1,NA,88,0,5.109,NA
"1271","35","false_50",41,1,41,1,NA,12,0,4.325,NA
"1272","35","false_50",42,1,42,1,NA,15,0,8.192,NA
"1273","35","false_50",43,1,43,1,NA,18,0,26.313,NA
"1274","35","false_50",44,1,44,1,NA,0,0,8.49,NA
"1275","35","false_50",45,1,45,1,NA,16,0,8.462,NA
"1276","35","false_100",46,1,46,1,NA,5,0,7.694,NA
"1277","35","false_100",47,1,47,1,NA,10,0,13.861,NA
"1278","35","false_100",48,1,48,1,NA,11,0,5.248,NA
"1279","35","false_100",49,1,49,1,NA,10,0,3.961,NA
"1280","35","false_100",50,1,50,1,NA,10,0,3.878,NA
"1281","35","true_50",61,1,61,0,NA,100,1,5.75,NA
"1282","35","true_50",62,1,62,0,NA,86,1,3.643,NA
"1283","35","true_50",63,1,63,0,NA,100,1,4.731,NA
"1284","35","true_50",64,1,64,0,NA,89,1,3.82,NA
"1285","35","true_50",65,1,65,0,NA,75,1,3.916,NA
"1286","35","true_100",66,1,66,0,NA,20,1,5.462,NA
"1287","35","true_100",67,1,67,0,NA,80,1,4.834,NA
"1288","35","true_100",68,1,68,0,NA,15,1,6.724,NA
"1289","35","true_100",69,1,69,0,NA,100,1,7.5,NA
"1290","35","true_100",70,1,70,0,NA,85,1,6.525,NA
"1291","35","false_50",71,1,71,0,NA,20,1,5.919,NA
"1292","35","false_50",72,1,72,0,NA,23,1,7.943,NA
"1293","35","false_50",73,1,73,0,NA,15,1,4.343,NA
"1294","35","false_50",74,1,74,0,NA,84,1,5.734,NA
"1295","35","false_50",75,1,75,0,NA,5,1,9.226,NA
"1296","35","false_100",76,1,76,0,NA,0,1,6.768,NA
"1297","35","false_100",77,1,77,0,NA,0,1,6.929,NA
"1298","35","false_100",78,1,78,0,NA,13,1,10.669,NA
"1299","35","false_100",79,1,79,0,NA,14,1,3.915,NA
"1300","35","false_100",80,1,80,0,NA,23,1,6.267,NA
"1301","35","true_50",91,1,91,0,NA,85,0,4.662,NA
"1302","35","true_50",92,1,92,0,NA,13,0,3.669,NA
"1303","35","true_50",93,1,93,0,NA,87,0,4.429,NA
"1304","35","true_50",94,1,94,0,NA,86,0,6.011,NA
"1305","35","true_50",95,1,95,0,NA,84,0,5.066,NA
"1306","35","true_100",96,1,96,0,NA,80,0,11.468,NA
"1307","35","true_100",97,1,97,0,NA,89,0,6.492,NA
"1308","35","true_100",98,1,98,0,NA,86,0,7.758,NA
"1309","35","true_100",99,1,99,0,NA,100,0,5.856,NA
"1310","35","true_100",100,1,100,0,NA,87,0,10.898,NA
"1311","35","false_50",101,1,101,0,NA,16,0,4.378,NA
"1312","35","false_50",102,1,102,0,NA,13,0,6.841,NA
"1313","35","false_50",103,1,103,0,NA,14,0,6.016,NA
"1314","35","false_50",104,1,104,0,NA,0,0,12.064,NA
"1315","35","false_50",105,1,105,0,NA,14,0,8.785,NA
"1316","35","false_100",106,1,106,0,NA,20,0,6.841,NA
"1317","35","false_100",107,1,107,0,NA,0,0,9.952,NA
"1318","35","false_100",108,1,108,0,NA,0,0,12.497,NA
"1319","35","false_100",109,1,109,0,NA,90,0,6.217,NA
"1320","35","false_100",110,1,110,0,NA,15,0,5.933,NA
"1321","37","true_50",1,1,1,1,NA,9,1,23.209,NA
"1322","37","true_50",2,1,2,1,NA,83,1,6.427,NA
"1323","37","true_50",3,1,3,1,NA,74,1,12.742,NA
"1324","37","true_50",4,1,4,1,NA,15,1,6.517,NA
"1325","37","true_50",5,1,5,1,NA,11,1,9.309,NA
"1326","37","true_100",6,1,6,1,NA,89,1,7.989,NA
"1327","37","true_100",7,1,7,1,NA,88,1,8.009,NA
"1328","37","true_100",8,1,8,1,NA,23,1,10.111,NA
"1329","37","true_100",9,1,9,1,NA,25,1,11.808,NA
"1330","37","true_100",10,1,10,1,NA,55,1,11.114,NA
"1331","37","false_50",11,1,11,1,NA,85,1,6.402,NA
"1332","37","false_50",12,1,12,1,NA,10,1,11.75,NA
"1333","37","false_50",13,1,13,1,NA,80,1,10.561,NA
"1334","37","false_50",14,1,14,1,NA,15,1,6.265,NA
"1335","37","false_50",15,1,15,1,NA,12,1,10.76,NA
"1336","37","false_100",16,1,16,1,NA,20,1,5.585,NA
"1337","37","false_100",17,1,17,1,NA,14,1,8.133,NA
"1338","37","false_100",18,1,18,1,NA,70,1,9.804,NA
"1339","37","false_100",19,1,19,1,NA,22,1,15.053,NA
"1340","37","false_100",20,1,20,1,NA,20,1,10.272,NA
"1341","37","true_50",31,1,31,1,NA,85,0,5.565,NA
"1342","37","true_50",32,1,32,1,NA,74,0,8.778,NA
"1343","37","true_50",33,1,33,1,NA,75,0,5.296,NA
"1344","37","true_50",34,1,34,1,NA,100,0,7.636,NA
"1345","37","true_50",35,1,35,1,NA,50,0,24.248,NA
"1346","37","true_100",36,1,36,1,NA,34,0,11.56,NA
"1347","37","true_100",37,1,37,1,NA,70,0,14.927,NA
"1348","37","true_100",38,1,38,1,NA,79,0,25.953,NA
"1349","37","true_100",39,1,39,1,NA,20,0,6.978,NA
"1350","37","true_100",40,1,40,1,NA,60,0,11.235,NA
"1351","37","false_50",41,1,41,1,NA,82,0,9.086,NA
"1352","37","false_50",42,1,42,1,NA,87,0,10.341,NA
"1353","37","false_50",43,1,43,1,NA,70,0,7.323,NA
"1354","37","false_50",44,1,44,1,NA,30,0,27.238,NA
"1355","37","false_50",45,1,45,1,NA,25,0,10.063,NA
"1356","37","false_100",46,1,46,1,NA,31,0,17.692,NA
"1357","37","false_100",47,1,47,1,NA,5,0,6.779,NA
"1358","37","false_100",48,1,48,1,NA,35,0,4.918,NA
"1359","37","false_100",49,1,49,1,NA,15,0,20.574,NA
"1360","37","false_100",50,1,50,1,NA,0,0,9.708,NA
"1361","37","true_50",61,1,61,0,NA,10,1,16.354,NA
"1362","37","true_50",62,1,62,0,NA,85,1,11.811,NA
"1363","37","true_50",63,1,63,0,NA,70,1,8.622,NA
"1364","37","true_50",64,1,64,0,NA,2,1,8.374,NA
"1365","37","true_50",65,1,65,0,NA,76,1,17.494,NA
"1366","37","true_100",66,1,66,0,NA,85,1,8.04,NA
"1367","37","true_100",67,1,67,0,NA,70,1,7.518,NA
"1368","37","true_100",68,1,68,0,NA,36,1,10.377,NA
"1369","37","true_100",69,1,69,0,NA,67,1,19.978,NA
"1370","37","true_100",70,1,70,0,NA,2,1,10.507,NA
"1371","37","false_50",71,1,71,0,NA,65,1,7.678,NA
"1372","37","false_50",72,1,72,0,NA,70,1,10.079,NA
"1373","37","false_50",73,1,73,0,NA,83,1,7.98,NA
"1374","37","false_50",74,1,74,0,NA,75,1,5.696,NA
"1375","37","false_50",75,1,75,0,NA,15,1,11.354,NA
"1376","37","false_100",76,1,76,0,NA,6,1,11.359,NA
"1377","37","false_100",77,1,77,0,NA,17,1,7.255,NA
"1378","37","false_100",78,1,78,0,NA,7,1,6.531,NA
"1379","37","false_100",79,1,79,0,NA,30,1,16.789,NA
"1380","37","false_100",80,1,80,0,NA,10,1,9.433,NA
"1381","37","true_50",91,1,91,0,NA,11,0,11.363,NA
"1382","37","true_50",92,1,92,0,NA,75,0,7.121,NA
"1383","37","true_50",93,1,93,0,NA,33,0,22.11,NA
"1384","37","true_50",94,1,94,0,NA,94,0,16.625,NA
"1385","37","true_50",95,1,95,0,NA,15,0,9.526,NA
"1386","37","true_100",96,1,96,0,NA,26,0,16.638,NA
"1387","37","true_100",97,1,97,0,NA,80,0,12.282,NA
"1388","37","true_100",98,1,98,0,NA,15,0,17.021,NA
"1389","37","true_100",99,1,99,0,NA,88,0,20.039,NA
"1390","37","true_100",100,1,100,0,NA,100,0,11.192,NA
"1391","37","false_50",101,1,101,0,NA,25,0,4.756,NA
"1392","37","false_50",102,1,102,0,NA,90,0,8.483,NA
"1393","37","false_50",103,1,103,0,NA,20,0,5.714,NA
"1394","37","false_50",104,1,104,0,NA,25,0,8.882,NA
"1395","37","false_50",105,1,105,0,NA,15,0,9.87,NA
"1396","37","false_100",106,1,106,0,NA,25,0,17.261,NA
"1397","37","false_100",107,1,107,0,NA,81,0,18.396,NA
"1398","37","false_100",108,1,108,0,NA,36,0,13.234,NA
"1399","37","false_100",109,1,109,0,NA,25,0,10.592,NA
"1400","37","false_100",110,1,110,0,NA,5,0,10.858,NA
"1401","38","true_50",1,1,1,1,NA,40,1,10.364,NA
"1402","38","true_50",2,1,2,1,NA,51,1,19.218,NA
"1403","38","true_50",3,1,3,1,NA,52,1,5.927,NA
"1404","38","true_50",4,1,4,1,NA,65,1,8.346,NA
"1405","38","true_50",5,1,5,1,NA,22,1,11.046,NA
"1406","38","true_100",6,1,6,1,NA,94,1,4.282,NA
"1407","38","true_100",7,1,7,1,NA,73,1,5.885,NA
"1408","38","true_100",8,1,8,1,NA,97,1,12.134,NA
"1409","38","true_100",9,1,9,1,NA,71,1,4.188,NA
"1410","38","true_100",10,1,10,1,NA,70,1,5.838,NA
"1411","38","false_50",11,1,11,1,NA,71,1,3.705,NA
"1412","38","false_50",12,1,12,1,NA,74,1,12.162,NA
"1413","38","false_50",13,1,13,1,NA,56,1,8.731,NA
"1414","38","false_50",14,1,14,1,NA,52,1,11.527,NA
"1415","38","false_50",15,1,15,1,NA,44,1,5.001,NA
"1416","38","false_100",16,1,16,1,NA,28,1,5.066,NA
"1417","38","false_100",17,1,17,1,NA,36,1,4.077,NA
"1418","38","false_100",18,1,18,1,NA,34,1,4.44,NA
"1419","38","false_100",19,1,19,1,NA,30,1,9.399,NA
"1420","38","false_100",20,1,20,1,NA,100,1,11.508,NA
"1421","38","true_50",31,1,31,1,NA,51,0,8.416,NA
"1422","38","true_50",32,1,32,1,NA,57,0,6.792,NA
"1423","38","true_50",33,1,33,1,NA,55,0,4.584,NA
"1424","38","true_50",34,1,34,1,NA,74,0,4.922,NA
"1425","38","true_50",35,1,35,1,NA,55,0,7.312,NA
"1426","38","true_100",36,1,36,1,NA,66,0,5.156,NA
"1427","38","true_100",37,1,37,1,NA,99,0,8.401,NA
"1428","38","true_100",38,1,38,1,NA,65,0,4.969,NA
"1429","38","true_100",39,1,39,1,NA,76,0,7.41,NA
"1430","38","true_100",40,1,40,1,NA,64,0,6.486,NA
"1431","38","false_50",41,1,41,1,NA,36,0,6.23,NA
"1432","38","false_50",42,1,42,1,NA,56,0,5.351,NA
"1433","38","false_50",43,1,43,1,NA,57,0,6.564,NA
"1434","38","false_50",44,1,44,1,NA,44,0,5.539,NA
"1435","38","false_50",45,1,45,1,NA,53,0,6.986,NA
"1436","38","false_100",46,1,46,1,NA,30,0,6.414,NA
"1437","38","false_100",47,1,47,1,NA,25,0,10.055,NA
"1438","38","false_100",48,1,48,1,NA,37,0,8.063,NA
"1439","38","false_100",49,1,49,1,NA,25,0,6.322,NA
"1440","38","false_100",50,1,50,1,NA,100,0,7.985,NA
"1441","38","true_50",61,1,61,0,NA,51,1,10.636,NA
"1442","38","true_50",62,1,62,0,NA,54,1,7.877,NA
"1443","38","true_50",63,1,63,0,NA,56,1,5.484,NA
"1444","38","true_50",64,1,64,0,NA,53,1,5.321,NA
"1445","38","true_50",65,1,65,0,NA,64,1,5.15,NA
"1446","38","true_100",66,1,66,0,NA,83,1,5.101,NA
"1447","38","true_100",67,1,67,0,NA,90,1,9.27,NA
"1448","38","true_100",68,1,68,0,NA,52,1,5.685,NA
"1449","38","true_100",69,1,69,0,NA,96,1,5.378,NA
"1450","38","true_100",70,1,70,0,NA,74,1,5.966,NA
"1451","38","false_50",71,1,71,0,NA,46,1,10.966,NA
"1452","38","false_50",72,1,72,0,NA,45,1,13.066,NA
"1453","38","false_50",73,1,73,0,NA,43,1,4.657,NA
"1454","38","false_50",74,1,74,0,NA,43,1,4.697,NA
"1455","38","false_50",75,1,75,0,NA,57,1,4.894,NA
"1456","38","false_100",76,1,76,0,NA,30,1,4.58,NA
"1457","38","false_100",77,1,77,0,NA,25,1,4.725,NA
"1458","38","false_100",78,1,78,0,NA,38,1,6.326,NA
"1459","38","false_100",79,1,79,0,NA,20,1,6.644,NA
"1460","38","false_100",80,1,80,0,NA,35,1,3.403,NA
"1461","38","true_50",91,1,91,0,NA,51,0,7.623,NA
"1462","38","true_50",92,1,92,0,NA,57,0,11.391,NA
"1463","38","true_50",93,1,93,0,NA,71,0,7.445,NA
"1464","38","true_50",94,1,94,0,NA,86,0,5.129,NA
"1465","38","true_50",95,1,95,0,NA,53,0,3.696,NA
"1466","38","true_100",96,1,96,0,NA,83,0,7.522,NA
"1467","38","true_100",97,1,97,0,NA,71,0,8.689,NA
"1468","38","true_100",98,1,98,0,NA,69,0,5.497,NA
"1469","38","true_100",99,1,99,0,NA,74,0,5.609,NA
"1470","38","true_100",100,1,100,0,NA,97,0,6.186,NA
"1471","38","false_50",101,1,101,0,NA,58,0,5.271,NA
"1472","38","false_50",102,1,102,0,NA,20,0,4.435,NA
"1473","38","false_50",103,1,103,0,NA,58,0,8.791,NA
"1474","38","false_50",104,1,104,0,NA,40,0,5.466,NA
"1475","38","false_50",105,1,105,0,NA,29,0,5.693,NA
"1476","38","false_100",106,1,106,0,NA,23,0,6.39,NA
"1477","38","false_100",107,1,107,0,NA,23,0,4.68,NA
"1478","38","false_100",108,1,108,0,NA,29,0,8.079,NA
"1479","38","false_100",109,1,109,0,NA,21,0,4.527,NA
"1480","38","false_100",110,1,110,0,NA,37,0,11.588,NA
"1481","6","true_50",1,1,1,1,NA,64,1,7.934,NA
"1482","6","true_50",2,1,2,1,NA,64,1,7.671,NA
"1483","6","true_50",3,1,3,1,NA,55,1,6.878,NA
"1484","6","true_50",4,1,4,1,NA,100,1,6.444,NA
"1485","6","true_50",5,1,5,1,NA,57,1,13.97,NA
"1486","6","true_100",6,1,6,1,NA,100,1,10.854,NA
"1487","6","true_100",7,1,7,1,NA,100,1,4.59,NA
"1488","6","true_100",8,1,8,1,NA,90,1,6.578,NA
"1489","6","true_100",9,1,9,1,NA,70,1,10.979,NA
"1490","6","true_100",10,1,10,1,NA,78,1,11.684,NA
"1491","6","false_50",11,1,11,1,NA,40,1,6.461,NA
"1492","6","false_50",12,1,12,1,NA,55,1,9.562,NA
"1493","6","false_50",13,1,13,1,NA,59,1,8.25,NA
"1494","6","false_50",14,1,14,1,NA,26,1,6.21,NA
"1495","6","false_50",15,1,15,1,NA,38,1,12.563,NA
"1496","6","false_100",16,1,16,1,NA,60,1,5.201,NA
"1497","6","false_100",17,1,17,1,NA,61,1,4.952,NA
"1498","6","false_100",18,1,18,1,NA,37,1,6.788,NA
"1499","6","false_100",19,1,19,1,NA,41,1,7.433,NA
"1500","6","false_100",20,1,20,1,NA,65,1,4.259,NA
"1501","6","true_50",31,1,31,1,NA,55,0,5.498,NA
"1502","6","true_50",32,1,32,1,NA,71,0,8.108,NA
"1503","6","true_50",33,1,33,1,NA,45,0,6.34,NA
"1504","6","true_50",34,1,34,1,NA,60,0,8.627,NA
"1505","6","true_50",35,1,35,1,NA,44,0,13.157,NA
"1506","6","true_100",36,1,36,1,NA,62,0,10.297,NA
"1507","6","true_100",37,1,37,1,NA,29,0,8.503,NA
"1508","6","true_100",38,1,38,1,NA,60,0,5.789,NA
"1509","6","true_100",39,1,39,1,NA,60,0,7.553,NA
"1510","6","true_100",40,1,40,1,NA,62,0,10.612,NA
"1511","6","false_50",41,1,41,1,NA,55,0,7.405,NA
"1512","6","false_50",42,1,42,1,NA,34,0,6.619,NA
"1513","6","false_50",43,1,43,1,NA,40,0,8.911,NA
"1514","6","false_50",44,1,44,1,NA,45,0,8.565,NA
"1515","6","false_50",45,1,45,1,NA,41,0,13.819,NA
"1516","6","false_100",46,1,46,1,NA,25,0,9.645,NA
"1517","6","false_100",47,1,47,1,NA,29,0,4.427,NA
"1518","6","false_100",48,1,48,1,NA,72,0,11.077,NA
"1519","6","false_100",49,1,49,1,NA,45,0,7.729,NA
"1520","6","false_100",50,1,50,1,NA,75,0,17.507,NA
"1521","6","true_50",61,1,61,0,NA,45,1,6.336,NA
"1522","6","true_50",62,1,62,0,NA,63,1,7.959,NA
"1523","6","true_50",63,1,63,0,NA,60,1,7.603,NA
"1524","6","true_50",64,1,64,0,NA,65,1,6.293,NA
"1525","6","true_50",65,1,65,0,NA,0,1,19.227,NA
"1526","6","true_100",66,1,66,0,NA,69,1,8.466,NA
"1527","6","true_100",67,1,67,0,NA,63,1,9.707,NA
"1528","6","true_100",68,1,68,0,NA,55,1,18.248,NA
"1529","6","true_100",69,1,69,0,NA,65,1,8.091,NA
"1530","6","true_100",70,1,70,0,NA,58,1,7.438,NA
"1531","6","false_50",71,1,71,0,NA,70,1,6.646,NA
"1532","6","false_50",72,1,72,0,NA,34,1,8.649,NA
"1533","6","false_50",73,1,73,0,NA,68,1,6.333,NA
"1534","6","false_50",74,1,74,0,NA,38,1,6.258,NA
"1535","6","false_50",75,1,75,0,NA,45,1,6.989,NA
"1536","6","false_100",76,1,76,0,NA,81,1,5.245,NA
"1537","6","false_100",77,1,77,0,NA,21,1,14.895,NA
"1538","6","false_100",78,1,78,0,NA,29,1,8.324,NA
"1539","6","false_100",79,1,79,0,NA,65,1,6.79,NA
"1540","6","false_100",80,1,80,0,NA,75,1,4.973,NA
"1541","6","true_50",91,1,91,0,NA,55,0,7.359,NA
"1542","6","true_50",92,1,92,0,NA,55,0,7.711,NA
"1543","6","true_50",93,1,93,0,NA,55,0,8.026,NA
"1544","6","true_50",94,1,94,0,NA,36,0,8.575,NA
"1545","6","true_50",95,1,95,0,NA,37,0,7.606,NA
"1546","6","true_100",96,1,96,0,NA,57,0,6.57,NA
"1547","6","true_100",97,1,97,0,NA,75,0,7.708,NA
"1548","6","true_100",98,1,98,0,NA,60,0,5.956,NA
"1549","6","true_100",99,1,99,0,NA,72,0,5.112,NA
"1550","6","true_100",100,1,100,0,NA,65,0,4.945,NA
"1551","6","false_50",101,1,101,0,NA,37,0,7.307,NA
"1552","6","false_50",102,1,102,0,NA,40,0,6.818,NA
"1553","6","false_50",103,1,103,0,NA,38,0,4.785,NA
"1554","6","false_50",104,1,104,0,NA,40,0,5.966,NA
"1555","6","false_50",105,1,105,0,NA,77,0,17.282,NA
"1556","6","false_100",106,1,106,0,NA,35,0,5.445,NA
"1557","6","false_100",107,1,107,0,NA,34,0,10.387,NA
"1558","6","false_100",108,1,108,0,NA,44,0,19.722,NA
"1559","6","false_100",109,1,109,0,NA,33,0,6.509,NA
"1560","6","false_100",110,1,110,0,NA,20,0,11.044,NA
"1561","28","true_50",1,1,1,1,NA,26,1,8.233,NA
"1562","28","true_50",2,1,2,1,NA,24,1,6.459,NA
"1563","28","true_50",3,1,3,1,NA,100,1,5.673,NA
"1564","28","true_50",4,1,4,1,NA,31,1,7.126,NA
"1565","28","true_50",5,1,5,1,NA,23,1,8.633,NA
"1566","28","true_100",6,1,6,1,NA,100,1,7.159,NA
"1567","28","true_100",7,1,7,1,NA,91,1,9.72,NA
"1568","28","true_100",8,1,8,1,NA,17,1,6.715,NA
"1569","28","true_100",9,1,9,1,NA,100,1,10.493,NA
"1570","28","true_100",10,1,10,1,NA,91,1,7.982,NA
"1571","28","false_50",11,1,11,1,NA,72,1,5.054,NA
"1572","28","false_50",12,1,12,1,NA,40,1,11.885,NA
"1573","28","false_50",13,1,13,1,NA,39,1,8.739,NA
"1574","28","false_50",14,1,14,1,NA,96,1,8.481,NA
"1575","28","false_50",15,1,15,1,NA,59,1,11.481,NA
"1576","28","false_100",16,1,16,1,NA,16,1,9.695,NA
"1577","28","false_100",17,1,17,1,NA,18,1,20.107,NA
"1578","28","false_100",18,1,18,1,NA,100,1,22.285,NA
"1579","28","false_100",19,1,19,1,NA,30,1,6.253,NA
"1580","28","false_100",20,1,20,1,NA,74,1,7.648,NA
"1581","28","true_50",31,1,31,1,NA,59,0,13.589,NA
"1582","28","true_50",32,1,32,1,NA,0,0,14.469,NA
"1583","28","true_50",33,1,33,1,NA,30,0,10.096,NA
"1584","28","true_50",34,1,34,1,NA,40,0,10.281,NA
"1585","28","true_50",35,1,35,1,NA,100,0,8.997,NA
"1586","28","true_100",36,1,36,1,NA,100,0,7.073,NA
"1587","28","true_100",37,1,37,1,NA,100,0,12.405,NA
"1588","28","true_100",38,1,38,1,NA,80,0,11.024,NA
"1589","28","true_100",39,1,39,1,NA,63,0,10.587,NA
"1590","28","true_100",40,1,40,1,NA,100,0,14.878,NA
"1591","28","false_50",41,1,41,1,NA,37,0,6.844,NA
"1592","28","false_50",42,1,42,1,NA,20,0,11.417,NA
"1593","28","false_50",43,1,43,1,NA,35,0,7.549,NA
"1594","28","false_50",44,1,44,1,NA,4,0,6.483,NA
"1595","28","false_50",45,1,45,1,NA,68,0,14.007,NA
"1596","28","false_100",46,1,46,1,NA,9,0,9.35,NA
"1597","28","false_100",47,1,47,1,NA,11,0,6.336,NA
"1598","28","false_100",48,1,48,1,NA,70,0,20.713,NA
"1599","28","false_100",49,1,49,1,NA,26,0,9.286,NA
"1600","28","false_100",50,1,50,1,NA,17,0,6.502,NA
"1601","28","true_50",61,1,61,0,NA,0,1,10.816,NA
"1602","28","true_50",62,1,62,0,NA,36,1,5.454,NA
"1603","28","true_50",63,1,63,0,NA,62,1,9.586,NA
"1604","28","true_50",64,1,64,0,NA,67,1,7.355,NA
"1605","28","true_50",65,1,65,0,NA,27,1,11.188,NA
"1606","28","true_100",66,1,66,0,NA,85,1,6.754,NA
"1607","28","true_100",67,1,67,0,NA,100,1,9.11,NA
"1608","28","true_100",68,1,68,0,NA,63,1,7.358,NA
"1609","28","true_100",69,1,69,0,NA,71,1,7.052,NA
"1610","28","true_100",70,1,70,0,NA,90,1,6.944,NA
"1611","28","false_50",71,1,71,0,NA,100,1,4.976,NA
"1612","28","false_50",72,1,72,0,NA,14,1,18.116,NA
"1613","28","false_50",73,1,73,0,NA,29,1,13.214,NA
"1614","28","false_50",74,1,74,0,NA,33,1,6.634,NA
"1615","28","false_50",75,1,75,0,NA,20,1,25.916,NA
"1616","28","false_100",76,1,76,0,NA,23,1,8.775,NA
"1617","28","false_100",77,1,77,0,NA,0,1,6.091,NA
"1618","28","false_100",78,1,78,0,NA,26,1,10.176,NA
"1619","28","false_100",79,1,79,0,NA,11,1,6.18,NA
"1620","28","false_100",80,1,80,0,NA,80,1,43.983,NA
"1621","28","true_50",91,1,91,0,NA,86,0,6.778,NA
"1622","28","true_50",92,1,92,0,NA,14,0,5.591,NA
"1623","28","true_50",93,1,93,0,NA,63,0,6.13,NA
"1624","28","true_50",94,1,94,0,NA,41,0,9.575,NA
"1625","28","true_50",95,1,95,0,NA,29,0,6.58,NA
"1626","28","true_100",96,1,96,0,NA,90,0,5.198,NA
"1627","28","true_100",97,1,97,0,NA,56,0,17.347,NA
"1628","28","true_100",98,1,98,0,NA,74,0,5.434,NA
"1629","28","true_100",99,1,99,0,NA,69,0,9.967,NA
"1630","28","true_100",100,1,100,0,NA,85,0,6.328,NA
"1631","28","false_50",101,1,101,0,NA,15,0,9.531,NA
"1632","28","false_50",102,1,102,0,NA,37,0,6.145,NA
"1633","28","false_50",103,1,103,0,NA,75,0,7.03,NA
"1634","28","false_50",104,1,104,0,NA,60,0,8.474,NA
"1635","28","false_50",105,1,105,0,NA,29,0,5.716,NA
"1636","28","false_100",106,1,106,0,NA,0,0,5.919,NA
"1637","28","false_100",107,1,107,0,NA,37,0,6.239,NA
"1638","28","false_100",108,1,108,0,NA,3,0,6.006,NA
"1639","28","false_100",109,1,109,0,NA,19,0,7.496,NA
"1640","28","false_100",110,1,110,0,NA,33,0,6.463,NA
"1641","31","true_50",1,1,1,1,NA,74,1,5.077,NA
"1642","31","true_50",2,1,2,1,NA,64,1,9.354,NA
"1643","31","true_50",3,1,3,1,NA,45,1,11.458,NA
"1644","31","true_50",4,1,4,1,NA,66,1,7.752,NA
"1645","31","true_50",5,1,5,1,NA,67,1,4.685,NA
"1646","31","true_100",6,1,6,1,NA,59,1,8.071,NA
"1647","31","true_100",7,1,7,1,NA,61,1,5.304,NA
"1648","31","true_100",8,1,8,1,NA,67,1,5.126,NA
"1649","31","true_100",9,1,9,1,NA,66,1,6.297,NA
"1650","31","true_100",10,1,10,1,NA,60,1,5.576,NA
"1651","31","false_50",11,1,11,1,NA,78,1,12.559,NA
"1652","31","false_50",12,1,12,1,NA,29,1,7.123,NA
"1653","31","false_50",13,1,13,1,NA,41,1,8.373,NA
"1654","31","false_50",14,1,14,1,NA,41,1,5.854,NA
"1655","31","false_50",15,1,15,1,NA,82,1,11.617,NA
"1656","31","false_100",16,1,16,1,NA,42,1,6.248,NA
"1657","31","false_100",17,1,17,1,NA,100,1,4.982,NA
"1658","31","false_100",18,1,18,1,NA,44,1,6.08,NA
"1659","31","false_100",19,1,19,1,NA,0,1,11.432,NA
"1660","31","false_100",20,1,20,1,NA,65,1,18.509,NA
"1661","31","true_50",31,1,31,1,NA,62,0,7.635,NA
"1662","31","true_50",32,1,32,1,NA,65,0,19.24,NA
"1663","31","true_50",33,1,33,1,NA,89,0,8.928,NA
"1664","31","true_50",34,1,34,1,NA,61,0,10.234,NA
"1665","31","true_50",35,1,35,1,NA,25,0,24.449,NA
"1666","31","true_100",36,1,36,1,NA,61,0,6.779,NA
"1667","31","true_100",37,1,37,1,NA,54,0,11.741,NA
"1668","31","true_100",38,1,38,1,NA,67,0,8.896,NA
"1669","31","true_100",39,1,39,1,NA,70,0,12.183,NA
"1670","31","true_100",40,1,40,1,NA,81,0,6.376,NA
"1671","31","false_50",41,1,41,1,NA,57,0,6.565,NA
"1672","31","false_50",42,1,42,1,NA,46,0,6.386,NA
"1673","31","false_50",43,1,43,1,NA,100,0,11.284,NA
"1674","31","false_50",44,1,44,1,NA,32,0,9.971,NA
"1675","31","false_50",45,1,45,1,NA,47,0,11.757,NA
"1676","31","false_100",46,1,46,1,NA,85,0,5.845,NA
"1677","31","false_100",47,1,47,1,NA,92,0,10.984,NA
"1678","31","false_100",48,1,48,1,NA,42,0,7.702,NA
"1679","31","false_100",49,1,49,1,NA,38,0,11.509,NA
"1680","31","false_100",50,1,50,1,NA,43,0,6.756,NA
"1681","31","true_50",61,1,61,0,NA,30,1,5.984,NA
"1682","31","true_50",62,1,62,0,NA,92,1,23.2,NA
"1683","31","true_50",63,1,63,0,NA,62,1,5.503,NA
"1684","31","true_50",64,1,64,0,NA,73,1,6.807,NA
"1685","31","true_50",65,1,65,0,NA,54,1,6.298,NA
"1686","31","true_100",66,1,66,0,NA,67,1,9.422,NA
"1687","31","true_100",67,1,67,0,NA,52,1,33.053,NA
"1688","31","true_100",68,1,68,0,NA,44,1,10.742,NA
"1689","31","true_100",69,1,69,0,NA,36,1,9.996,NA
"1690","31","true_100",70,1,70,0,NA,55,1,4.606,NA
"1691","31","false_50",71,1,71,0,NA,17,1,6.776,NA
"1692","31","false_50",72,1,72,0,NA,0,1,6.798,NA
"1693","31","false_50",73,1,73,0,NA,9,1,10.019,NA
"1694","31","false_50",74,1,74,0,NA,40,1,9.019,NA
"1695","31","false_50",75,1,75,0,NA,35,1,8.311,NA
"1696","31","false_100",76,1,76,0,NA,41,1,7.248,NA
"1697","31","false_100",77,1,77,0,NA,33,1,8.594,NA
"1698","31","false_100",78,1,78,0,NA,46,1,4.102,NA
"1699","31","false_100",79,1,79,0,NA,23,1,4.604,NA
"1700","31","false_100",80,1,80,0,NA,35,1,6.769,NA
"1701","31","true_50",91,1,91,0,NA,46,0,25.929,NA
"1702","31","true_50",92,1,92,0,NA,40,0,15.215,NA
"1703","31","true_50",93,1,93,0,NA,0,0,13.18,NA
"1704","31","true_50",94,1,94,0,NA,62,0,7.074,NA
"1705","31","true_50",95,1,95,0,NA,65,0,6.406,NA
"1706","31","true_100",96,1,96,0,NA,88,0,21.483,NA
"1707","31","true_100",97,1,97,0,NA,68,0,7.107,NA
"1708","31","true_100",98,1,98,0,NA,67,0,5.331,NA
"1709","31","true_100",99,1,99,0,NA,57,0,6.329,NA
"1710","31","true_100",100,1,100,0,NA,94,0,13.875,NA
"1711","31","false_50",101,1,101,0,NA,45,0,6.002,NA
"1712","31","false_50",102,1,102,0,NA,53,0,8.596,NA
"1713","31","false_50",103,1,103,0,NA,43,0,6.637,NA
"1714","31","false_50",104,1,104,0,NA,45,0,4.388,NA
"1715","31","false_50",105,1,105,0,NA,76,0,8.604,NA
"1716","31","false_100",106,1,106,0,NA,41,0,5.582,NA
"1717","31","false_100",107,1,107,0,NA,19,0,21.17,NA
"1718","31","false_100",108,1,108,0,NA,26,0,7.993,NA
"1719","31","false_100",109,1,109,0,NA,64,0,9.585,NA
"1720","31","false_100",110,1,110,0,NA,46,0,4.91,NA
"1721","34","true_50",1,1,1,1,NA,80,1,5.313,NA
"1722","34","true_50",2,1,2,1,NA,96,1,6.405,NA
"1723","34","true_50",3,1,3,1,NA,31,1,7.022,NA
"1724","34","true_50",4,1,4,1,NA,100,1,4.298,NA
"1725","34","true_50",5,1,5,1,NA,65,1,4.512,NA
"1726","34","true_100",6,1,6,1,NA,91,1,3.787,NA
"1727","34","true_100",7,1,7,1,NA,94,1,3.947,NA
"1728","34","true_100",8,1,8,1,NA,91,1,5.477,NA
"1729","34","true_100",9,1,9,1,NA,96,1,5.941,NA
"1730","34","true_100",10,1,10,1,NA,65,1,7.249,NA
"1731","34","false_50",11,1,11,1,NA,18,1,3.727,NA
"1732","34","false_50",12,1,12,1,NA,63,1,7.595,NA
"1733","34","false_50",13,1,13,1,NA,90,1,7.08,NA
"1734","34","false_50",14,1,14,1,NA,100,1,4.885,NA
"1735","34","false_50",15,1,15,1,NA,78,1,12.907,NA
"1736","34","false_100",16,1,16,1,NA,100,1,9.266,NA
"1737","34","false_100",17,1,17,1,NA,0,1,6.534,NA
"1738","34","false_100",18,1,18,1,NA,9,1,4.986,NA
"1739","34","false_100",19,1,19,1,NA,68,1,6.942,NA
"1740","34","false_100",20,1,20,1,NA,14,1,4.102,NA
"1741","34","true_50",31,1,31,1,NA,78,0,5.195,NA
"1742","34","true_50",32,1,32,1,NA,89,0,3.16,NA
"1743","34","true_50",33,1,33,1,NA,71,0,5.556,NA
"1744","34","true_50",34,1,34,1,NA,100,0,6.051,NA
"1745","34","true_50",35,1,35,1,NA,85,0,6.945,NA
"1746","34","true_100",36,1,36,1,NA,100,0,8.467,NA
"1747","34","true_100",37,1,37,1,NA,86,0,5.437,NA
"1748","34","true_100",38,1,38,1,NA,100,0,6.151,NA
"1749","34","true_100",39,1,39,1,NA,21,0,17.911,NA
"1750","34","true_100",40,1,40,1,NA,100,0,11.03,NA
"1751","34","false_50",41,1,41,1,NA,68,0,10.717,NA
"1752","34","false_50",42,1,42,1,NA,46,0,10.048,NA
"1753","34","false_50",43,1,43,1,NA,100,0,6.864,NA
"1754","34","false_50",44,1,44,1,NA,71,0,7.924,NA
"1755","34","false_50",45,1,45,1,NA,29,0,6.881,NA
"1756","34","false_100",46,1,46,1,NA,76,0,11.766,NA
"1757","34","false_100",47,1,47,1,NA,9,0,5.504,NA
"1758","34","false_100",48,1,48,1,NA,27,0,6.955,NA
"1759","34","false_100",49,1,49,1,NA,20,0,7.143,NA
"1760","34","false_100",50,1,50,1,NA,90,0,7.064,NA
"1761","34","true_50",61,1,61,0,NA,63,1,4.054,NA
"1762","34","true_50",62,1,62,0,NA,8,1,5.094,NA
"1763","34","true_50",63,1,63,0,NA,73,1,11.592,NA
"1764","34","true_50",64,1,64,0,NA,24,1,11.939,NA
"1765","34","true_50",65,1,65,0,NA,19,1,15.434,NA
"1766","34","true_100",66,1,66,0,NA,81,1,5.96,NA
"1767","34","true_100",67,1,67,0,NA,100,1,8.873,NA
"1768","34","true_100",68,1,68,0,NA,84,1,4.049,NA
"1769","34","true_100",69,1,69,0,NA,81,1,6.031,NA
"1770","34","true_100",70,1,70,0,NA,29,1,5.668,NA
"1771","34","false_50",71,1,71,0,NA,61,1,4.916,NA
"1772","34","false_50",72,1,72,0,NA,31,1,7.768,NA
"1773","34","false_50",73,1,73,0,NA,0,1,7.537,NA
"1774","34","false_50",74,1,74,0,NA,68,1,4.697,NA
"1775","34","false_50",75,1,75,0,NA,2,1,4.47,NA
"1776","34","false_100",76,1,76,0,NA,0,1,10.158,NA
"1777","34","false_100",77,1,77,0,NA,16,1,6.613,NA
"1778","34","false_100",78,1,78,0,NA,92,1,5.016,NA
"1779","34","false_100",79,1,79,0,NA,11,1,7.026,NA
"1780","34","false_100",80,1,80,0,NA,32,1,9.141,NA
"1781","34","true_50",91,1,91,0,NA,0,0,13.062,NA
"1782","34","true_50",92,1,92,0,NA,19,0,6.935,NA
"1783","34","true_50",93,1,93,0,NA,90,0,9.604,NA
"1784","34","true_50",94,1,94,0,NA,20,0,9.394,NA
"1785","34","true_50",95,1,95,0,NA,28,0,7.343,NA
"1786","34","true_100",96,1,96,0,NA,0,0,10.22,NA
"1787","34","true_100",97,1,97,0,NA,100,0,5.918,NA
"1788","34","true_100",98,1,98,0,NA,100,0,18.579,NA
"1789","34","true_100",99,1,99,0,NA,22,0,5.702,NA
"1790","34","true_100",100,1,100,0,NA,89,0,8.501,NA
"1791","34","false_50",101,1,101,0,NA,0,0,14.477,NA
"1792","34","false_50",102,1,102,0,NA,35,0,10.281,NA
"1793","34","false_50",103,1,103,0,NA,25,0,8.768,NA
"1794","34","false_50",104,1,104,0,NA,25,0,6.614,NA
"1795","34","false_50",105,1,105,0,NA,77,0,4.28,NA
"1796","34","false_100",106,1,106,0,NA,29,0,5.193,NA
"1797","34","false_100",107,1,107,0,NA,6,0,8.619,NA
"1798","34","false_100",108,1,108,0,NA,20,0,6.721,NA
"1799","34","false_100",109,1,109,0,NA,0,0,6.913,NA
"1800","34","false_100",110,1,110,0,NA,0,0,9.003,NA
"1801","2","true_50",1,1,1,1,NA,19,1,8.813,NA
"1802","2","true_50",2,1,2,1,NA,0,1,8.336,NA
"1803","2","true_50",3,1,3,1,NA,100,1,7.276,NA
"1804","2","true_50",4,1,4,1,NA,97,1,3.903,NA
"1805","2","true_50",5,1,5,1,NA,74,1,8.972,NA
"1806","2","true_100",6,1,6,1,NA,100,1,6.24,NA
"1807","2","true_100",7,1,7,1,NA,100,1,8.418,NA
"1808","2","true_100",8,1,8,1,NA,100,1,6.026,NA
"1809","2","true_100",9,1,9,1,NA,100,1,10.069,NA
"1810","2","true_100",10,1,10,1,NA,100,1,10.347,NA
"1811","2","false_50",11,1,11,1,NA,10,1,6.549,NA
"1812","2","false_50",12,1,12,1,NA,19,1,5.809,NA
"1813","2","false_50",13,1,13,1,NA,28,1,8.277,NA
"1814","2","false_50",14,1,14,1,NA,76,1,7.829,NA
"1815","2","false_50",15,1,15,1,NA,100,1,7.763,NA
"1816","2","false_100",16,1,16,1,NA,0,1,7.056,NA
"1817","2","false_100",17,1,17,1,NA,0,1,4.845,NA
"1818","2","false_100",18,1,18,1,NA,0,1,6.283,NA
"1819","2","false_100",19,1,19,1,NA,0,1,6.222,NA
"1820","2","false_100",20,1,20,1,NA,0,1,4.722,NA
"1821","2","true_50",31,1,31,1,NA,69,0,4.527,NA
"1822","2","true_50",32,1,32,1,NA,68,0,5.076,NA
"1823","2","true_50",33,1,33,1,NA,100,0,9.28,NA
"1824","2","true_50",34,1,34,1,NA,69,0,6.898,NA
"1825","2","true_50",35,1,35,1,NA,100,0,9.831,NA
"1826","2","true_100",36,1,36,1,NA,100,0,4.384,NA
"1827","2","true_100",37,1,37,1,NA,100,0,7.145,NA
"1828","2","true_100",38,1,38,1,NA,100,0,10.413,NA
"1829","2","true_100",39,1,39,1,NA,100,0,6.522,NA
"1830","2","true_100",40,1,40,1,NA,100,0,4.373,NA
"1831","2","false_50",41,1,41,1,NA,35,0,11.797,NA
"1832","2","false_50",42,1,42,1,NA,32,0,7.368,NA
"1833","2","false_50",43,1,43,1,NA,0,0,9.768,NA
"1834","2","false_50",44,1,44,1,NA,70,0,8.094,NA
"1835","2","false_50",45,1,45,1,NA,2,0,9.964,NA
"1836","2","false_100",46,1,46,1,NA,0,0,6.135,NA
"1837","2","false_100",47,1,47,1,NA,0,0,6.834,NA
"1838","2","false_100",48,1,48,1,NA,0,0,6.68,NA
"1839","2","false_100",49,1,49,1,NA,0,0,9.426,NA
"1840","2","false_100",50,1,50,1,NA,0,0,4.125,NA
"1841","2","true_50",61,1,61,0,NA,0,1,4.506,NA
"1842","2","true_50",62,1,62,0,NA,30,1,8.931,NA
"1843","2","true_50",63,1,63,0,NA,55,1,4.04,NA
"1844","2","true_50",64,1,64,0,NA,45,1,7.118,NA
"1845","2","true_50",65,1,65,0,NA,0,1,7.787,NA
"1846","2","true_100",66,1,66,0,NA,100,1,6.745,NA
"1847","2","true_100",67,1,67,0,NA,100,1,6.732,NA
"1848","2","true_100",68,1,68,0,NA,100,1,4.003,NA
"1849","2","true_100",69,1,69,0,NA,100,1,4.397,NA
"1850","2","true_100",70,1,70,0,NA,100,1,16.091,NA
"1851","2","false_50",71,1,71,0,NA,16,1,4.861,NA
"1852","2","false_50",72,1,72,0,NA,67,1,6.862,NA
"1853","2","false_50",73,1,73,0,NA,0,1,19.153,NA
"1854","2","false_50",74,1,74,0,NA,0,1,11.977,NA
"1855","2","false_50",75,1,75,0,NA,76,1,4.275,NA
"1856","2","false_100",76,1,76,0,NA,0,1,7.248,NA
"1857","2","false_100",77,1,77,0,NA,0,1,6.955,NA
"1858","2","false_100",78,1,78,0,NA,0,1,5.845,NA
"1859","2","false_100",79,1,79,0,NA,0,1,5.712,NA
"1860","2","false_100",80,1,80,0,NA,0,1,4.468,NA
"1861","2","true_50",91,1,91,0,NA,24,0,6.274,NA
"1862","2","true_50",92,1,92,0,NA,56,0,4.92,NA
"1863","2","true_50",93,1,93,0,NA,55,0,9.886,NA
"1864","2","true_50",94,1,94,0,NA,28,0,5.323,NA
"1865","2","true_50",95,1,95,0,NA,79,0,8.748,NA
"1866","2","true_100",96,1,96,0,NA,100,0,13.945,NA
"1867","2","true_100",97,1,97,0,NA,100,0,6.187,NA
"1868","2","true_100",98,1,98,0,NA,100,0,7.135,NA
"1869","2","true_100",99,1,99,0,NA,100,0,4.63,NA
"1870","2","true_100",100,1,100,0,NA,100,0,5.91,NA
"1871","2","false_50",101,1,101,0,NA,76,0,8.056,NA
"1872","2","false_50",102,1,102,0,NA,0,0,13.644,NA
"1873","2","false_50",103,1,103,0,NA,25,0,8.932,NA
"1874","2","false_50",104,1,104,0,NA,27,0,7.621,NA
"1875","2","false_50",105,1,105,0,NA,0,0,17.111,NA
"1876","2","false_100",106,1,106,0,NA,0,0,5.929,NA
"1877","2","false_100",107,1,107,0,NA,0,0,9.101,NA
"1878","2","false_100",108,1,108,0,NA,0,0,6.093,NA
"1879","2","false_100",109,1,109,0,NA,0,0,5.051,NA
"1880","2","false_100",110,1,110,0,NA,0,0,4.762,NA
"1881","22","true_50",1,1,1,1,NA,81,1,3.463,NA
"1882","22","true_50",2,1,2,1,NA,42,1,7.17,NA
"1883","22","true_50",3,1,3,1,NA,60,1,4.171,NA
"1884","22","true_50",4,1,4,1,NA,95,1,8.204,NA
"1885","22","true_50",5,1,5,1,NA,40,1,10.658,NA
"1886","22","true_100",6,1,6,1,NA,100,1,4.778,NA
"1887","22","true_100",7,1,7,1,NA,76,1,3.916,NA
"1888","22","true_100",8,1,8,1,NA,89,1,6.429,NA
"1889","22","true_100",9,1,9,1,NA,91,1,2.735,NA
"1890","22","true_100",10,1,10,1,NA,90,1,5.491,NA
"1891","22","false_50",11,1,11,1,NA,22,1,4.442,NA
"1892","22","false_50",12,1,12,1,NA,34,1,6.457,NA
"1893","22","false_50",13,1,13,1,NA,75,1,2.863,NA
"1894","22","false_50",14,1,14,1,NA,23,1,3.234,NA
"1895","22","false_50",15,1,15,1,NA,100,1,5.701,NA
"1896","22","false_100",16,1,16,1,NA,2,1,6.362,NA
"1897","22","false_100",17,1,17,1,NA,6,1,4.85,NA
"1898","22","false_100",18,1,18,1,NA,15,1,5.051,NA
"1899","22","false_100",19,1,19,1,NA,13,1,4.887,NA
"1900","22","false_100",20,1,20,1,NA,19,1,3.515,NA
"1901","22","true_50",31,1,31,1,NA,25,0,4.524,NA
"1902","22","true_50",32,1,32,1,NA,93,0,3.748,NA
"1903","22","true_50",33,1,33,1,NA,61,0,6.337,NA
"1904","22","true_50",34,1,34,1,NA,63,0,8.875,NA
"1905","22","true_50",35,1,35,1,NA,33,0,4.494,NA
"1906","22","true_100",36,1,36,1,NA,79,0,6.619,NA
"1907","22","true_100",37,1,37,1,NA,70,0,3.166,NA
"1908","22","true_100",38,1,38,1,NA,86,0,7.586,NA
"1909","22","true_100",39,1,39,1,NA,82,0,3.809,NA
"1910","22","true_100",40,1,40,1,NA,68,0,3.578,NA
"1911","22","false_50",41,1,41,1,NA,60,0,3.782,NA
"1912","22","false_50",42,1,42,1,NA,68,0,4.054,NA
"1913","22","false_50",43,1,43,1,NA,70,0,5.89,NA
"1914","22","false_50",44,1,44,1,NA,33,0,11.249,NA
"1915","22","false_50",45,1,45,1,NA,35,0,4.812,NA
"1916","22","false_100",46,1,46,1,NA,7,0,5.588,NA
"1917","22","false_100",47,1,47,1,NA,18,0,4.172,NA
"1918","22","false_100",48,1,48,1,NA,12,0,6.304,NA
"1919","22","false_100",49,1,49,1,NA,30,0,6.935,NA
"1920","22","false_100",50,1,50,1,NA,11,0,4.086,NA
"1921","22","true_50",61,1,61,0,NA,88,1,3.191,NA
"1922","22","true_50",62,1,62,0,NA,87,1,3.896,NA
"1923","22","true_50",63,1,63,0,NA,64,1,2.998,NA
"1924","22","true_50",64,1,64,0,NA,4,1,11.618,NA
"1925","22","true_50",65,1,65,0,NA,91,1,3.857,NA
"1926","22","true_100",66,1,66,0,NA,92,1,6.222,NA
"1927","22","true_100",67,1,67,0,NA,77,1,4.657,NA
"1928","22","true_100",68,1,68,0,NA,80,1,4.439,NA
"1929","22","true_100",69,1,69,0,NA,91,1,5.995,NA
"1930","22","true_100",70,1,70,0,NA,88,1,3.931,NA
"1931","22","false_50",71,1,71,0,NA,59,1,4.763,NA
"1932","22","false_50",72,1,72,0,NA,15,1,4.85,NA
"1933","22","false_50",73,1,73,0,NA,26,1,5.532,NA
"1934","22","false_50",74,1,74,0,NA,37,1,3.958,NA
"1935","22","false_50",75,1,75,0,NA,23,1,5.93,NA
"1936","22","false_100",76,1,76,0,NA,12,1,6.479,NA
"1937","22","false_100",77,1,77,0,NA,10,1,7.317,NA
"1938","22","false_100",78,1,78,0,NA,39,1,4.36,NA
"1939","22","false_100",79,1,79,0,NA,17,1,4.72,NA
"1940","22","false_100",80,1,80,0,NA,34,1,2.853,NA
"1941","22","true_50",91,1,91,0,NA,57,0,4.594,NA
"1942","22","true_50",92,1,92,0,NA,86,0,6.589,NA
"1943","22","true_50",93,1,93,0,NA,83,0,5.68,NA
"1944","22","true_50",94,1,94,0,NA,69,0,4.883,NA
"1945","22","true_50",95,1,95,0,NA,67,0,4.947,NA
"1946","22","true_100",96,1,96,0,NA,87,0,5.549,NA
"1947","22","true_100",97,1,97,0,NA,77,0,3.705,NA
"1948","22","true_100",98,1,98,0,NA,84,0,4.338,NA
"1949","22","true_100",99,1,99,0,NA,89,0,4.263,NA
"1950","22","true_100",100,1,100,0,NA,91,0,5.393,NA
"1951","22","false_50",101,1,101,0,NA,63,0,5.775,NA
"1952","22","false_50",102,1,102,0,NA,73,0,3.446,NA
"1953","22","false_50",103,1,103,0,NA,45,0,3.755,NA
"1954","22","false_50",104,1,104,0,NA,65,0,5.041,NA
"1955","22","false_50",105,1,105,0,NA,28,0,4.061,NA
"1956","22","false_100",106,1,106,0,NA,13,0,5.999,NA
"1957","22","false_100",107,1,107,0,NA,23,0,4.891,NA
"1958","22","false_100",108,1,108,0,NA,13,0,5.442,NA
"1959","22","false_100",109,1,109,0,NA,20,0,8.11,NA
"1960","22","false_100",110,1,110,0,NA,11,0,3.636,NA
"1961","13","true_50",1,1,1,1,NA,89,1,7.005,NA
"1962","13","true_50",2,1,2,1,NA,17,1,8.626,NA
"1963","13","true_50",3,1,3,1,NA,100,1,9.102,NA
"1964","13","true_50",4,1,4,1,NA,100,1,6.887,NA
"1965","13","true_50",5,1,5,1,NA,97,1,13.946,NA
"1966","13","true_100",6,1,6,1,NA,100,1,3.712,NA
"1967","13","true_100",7,1,7,1,NA,100,1,7.228,NA
"1968","13","true_100",8,1,8,1,NA,100,1,5.707,NA
"1969","13","true_100",9,1,9,1,NA,100,1,4.165,NA
"1970","13","true_100",10,1,10,1,NA,100,1,5.468,NA
"1971","13","false_50",11,1,11,1,NA,65,1,6.871,NA
"1972","13","false_50",12,1,12,1,NA,40,1,9.484,NA
"1973","13","false_50",13,1,13,1,NA,100,1,9.191,NA
"1974","13","false_50",14,1,14,1,NA,0,1,6.922,NA
"1975","13","false_50",15,1,15,1,NA,0,1,5.034,NA
"1976","13","false_100",16,1,16,1,NA,21,1,9.73,NA
"1977","13","false_100",17,1,17,1,NA,0,1,6.55,NA
"1978","13","false_100",18,1,18,1,NA,0,1,7.366,NA
"1979","13","false_100",19,1,19,1,NA,0,1,4.209,NA
"1980","13","false_100",20,1,20,1,NA,0,1,9.194,NA
"1981","13","true_50",31,1,31,1,NA,96,0,5.93,NA
"1982","13","true_50",32,1,32,1,NA,85,0,10.862,NA
"1983","13","true_50",33,1,33,1,NA,100,0,9.353,NA
"1984","13","true_50",34,1,34,1,NA,91,0,6.708,NA
"1985","13","true_50",35,1,35,1,NA,84,0,8.783,NA
"1986","13","true_100",36,1,36,1,NA,100,0,4.907,NA
"1987","13","true_100",37,1,37,1,NA,100,0,15.182,NA
"1988","13","true_100",38,1,38,1,NA,100,0,3.869,NA
"1989","13","true_100",39,1,39,1,NA,100,0,5.39,NA
"1990","13","true_100",40,1,40,1,NA,100,0,9.407,NA
"1991","13","false_50",41,1,41,1,NA,0,0,4.933,NA
"1992","13","false_50",42,1,42,1,NA,10,0,8.665,NA
"1993","13","false_50",43,1,43,1,NA,59,0,13.252,NA
"1994","13","false_50",44,1,44,1,NA,0,0,5.767,NA
"1995","13","false_50",45,1,45,1,NA,30,0,7.157,NA
"1996","13","false_100",46,1,46,1,NA,0,0,5.337,NA
"1997","13","false_100",47,1,47,1,NA,0,0,10.688,NA
"1998","13","false_100",48,1,48,1,NA,77,0,9.123,NA
"1999","13","false_100",49,1,49,1,NA,0,0,4.399,NA
"2000","13","false_100",50,1,50,1,NA,25,0,6.255,NA
"2001","13","true_50",61,1,61,0,NA,11,1,7.196,NA
"2002","13","true_50",62,1,62,0,NA,67,1,4.916,NA
"2003","13","true_50",63,1,63,0,NA,14,1,5.46,NA
"2004","13","true_50",64,1,64,0,NA,35,1,7.576,NA
"2005","13","true_50",65,1,65,0,NA,4,1,4.593,NA
"2006","13","true_100",66,1,66,0,NA,100,1,4.934,NA
"2007","13","true_100",67,1,67,0,NA,100,1,8.637,NA
"2008","13","true_100",68,1,68,0,NA,100,1,6.259,NA
"2009","13","true_100",69,1,69,0,NA,100,1,4.652,NA
"2010","13","true_100",70,1,70,0,NA,100,1,14.494,NA
"2011","13","false_50",71,1,71,0,NA,0,1,5.609,NA
"2012","13","false_50",72,1,72,0,NA,0,1,8.432,NA
"2013","13","false_50",73,1,73,0,NA,0,1,5.194,NA
"2014","13","false_50",74,1,74,0,NA,100,1,6.111,NA
"2015","13","false_50",75,1,75,0,NA,74,1,5.164,NA
"2016","13","false_100",76,1,76,0,NA,0,1,5.555,NA
"2017","13","false_100",77,1,77,0,NA,0,1,10.894,NA
"2018","13","false_100",78,1,78,0,NA,0,1,6.752,NA
"2019","13","false_100",79,1,79,0,NA,0,1,4.59,NA
"2020","13","false_100",80,1,80,0,NA,0,1,6.685,NA
"2021","13","true_50",91,1,91,0,NA,65,0,11.7,NA
"2022","13","true_50",92,1,92,0,NA,84,0,6.631,NA
"2023","13","true_50",93,1,93,0,NA,80,0,6.415,NA
"2024","13","true_50",94,1,94,0,NA,65,0,8.705,NA
"2025","13","true_50",95,1,95,0,NA,40,0,9.577,NA
"2026","13","true_100",96,1,96,0,NA,100,0,5.374,NA
"2027","13","true_100",97,1,97,0,NA,100,0,6.598,NA
"2028","13","true_100",98,1,98,0,NA,100,0,6.246,NA
"2029","13","true_100",99,1,99,0,NA,100,0,6.843,NA
