"","subject","statement_identifier","procedure_identifier","within_identifier","between_identifier","response","repeated","rt","trial"
"1",1,"1_1",1,1,1,3,1,NA,NA
"2",1,"1_2",1,1,1,4,1,NA,NA
"3",1,"1_3",1,1,1,3,1,NA,NA
"4",1,"1_4",1,1,1,6,1,NA,NA
"5",1,"1_5",1,1,1,6,1,NA,NA
"6",1,"1_6",1,1,1,3,1,NA,NA
"7",1,"1_7",1,1,1,6,1,NA,NA
"8",1,"1_8",1,1,1,2,1,NA,NA
"9",1,"1_9",1,1,1,3,1,NA,NA
"10",1,"1_10",1,1,1,6,1,NA,NA
"11",1,"1_11",1,1,1,3,1,NA,NA
"12",1,"1_12",1,1,1,5,1,NA,NA
"13",1,"1_13",1,1,1,3,1,NA,NA
"14",1,"1_14",1,1,1,4,1,NA,NA
"15",1,"1_15",1,1,1,4,1,NA,NA
"16",1,"1_16",1,1,1,4,1,NA,NA
"17",1,"1_17",1,1,1,4,1,NA,NA
"18",1,"1_18",1,1,1,4,1,NA,NA
"19",1,"1_19",1,1,1,5,1,NA,NA
"20",1,"1_20",1,1,1,3,1,NA,NA
"21",1,"1_21",1,1,1,3,0,NA,NA
"22",1,"1_22",1,1,1,4,0,NA,NA
"23",1,"1_23",1,1,1,3,0,NA,NA
"24",1,"1_24",1,1,1,3,0,NA,NA
"25",1,"1_25",1,1,1,5,0,NA,NA
"26",1,"1_26",1,1,1,6,0,NA,NA
"27",1,"1_27",1,1,1,1,0,NA,NA
"28",1,"1_28",1,1,1,4,0,NA,NA
"29",1,"1_29",1,1,1,4,0,NA,NA
"30",1,"1_30",1,1,1,3,0,NA,NA
"31",1,"1_31",1,1,1,3,0,NA,NA
"32",1,"1_32",1,1,1,3,0,NA,NA
"33",1,"1_33",1,1,1,3,0,NA,NA
"34",1,"1_34",1,1,1,2,0,NA,NA
"35",1,"1_35",1,1,1,5,0,NA,NA
"36",1,"1_36",1,1,1,3,0,NA,NA
"37",1,"1_37",1,1,1,4,0,NA,NA
"38",1,"1_38",1,1,1,4,0,NA,NA
"39",1,"1_39",1,1,1,2,0,NA,NA
"40",1,"1_40",1,1,1,1,0,NA,NA
"41",2,"1_1",1,1,1,4,1,NA,NA
"42",2,"1_2",1,1,1,6,1,NA,NA
"43",2,"1_3",1,1,1,2,1,NA,NA
"44",2,"1_4",1,1,1,4,1,NA,NA
"45",2,"1_5",1,1,1,6,1,NA,NA
"46",2,"1_6",1,1,1,3,1,NA,NA
"47",2,"1_7",1,1,1,6,1,NA,NA
"48",2,"1_8",1,1,1,2,1,NA,NA
"49",2,"1_9",1,1,1,4,1,NA,NA
"50",2,"1_10",1,1,1,6,1,NA,NA
"51",2,"1_11",1,1,1,6,1,NA,NA
"52",2,"1_12",1,1,1,5,1,NA,NA
"53",2,"1_13",1,1,1,5,1,NA,NA
"54",2,"1_14",1,1,1,3,1,NA,NA
"55",2,"1_15",1,1,1,5,1,NA,NA
"56",2,"1_16",1,1,1,6,1,NA,NA
"57",2,"1_17",1,1,1,5,1,NA,NA
"58",2,"1_18",1,1,1,3,1,NA,NA
"59",2,"1_19",1,1,1,4,1,NA,NA
"60",2,"1_20",1,1,1,2,1,NA,NA
"61",2,"1_21",1,1,1,5,0,NA,NA
"62",2,"1_22",1,1,1,6,0,NA,NA
"63",2,"1_23",1,1,1,5,0,NA,NA
"64",2,"1_24",1,1,1,3,0,NA,NA
"65",2,"1_25",1,1,1,1,0,NA,NA
"66",2,"1_26",1,1,1,5,0,NA,NA
"67",2,"1_27",1,1,1,4,0,NA,NA
"68",2,"1_28",1,1,1,4,0,NA,NA
"69",2,"1_29",1,1,1,6,0,NA,NA
"70",2,"1_30",1,1,1,3,0,NA,NA
"71",2,"1_31",1,1,1,3,0,NA,NA
"72",2,"1_32",1,1,1,6,0,NA,NA
"73",2,"1_33",1,1,1,3,0,NA,NA
"74",2,"1_34",1,1,1,5,0,NA,NA
"75",2,"1_35",1,1,1,4,0,NA,NA
"76",2,"1_36",1,1,1,6,0,NA,NA
"77",2,"1_37",1,1,1,5,0,NA,NA
"78",2,"1_38",1,1,1,4,0,NA,NA
"79",2,"1_39",1,1,1,5,0,NA,NA
"80",2,"1_40",1,1,1,3,0,NA,NA
"81",3,"1_1",1,1,1,4,0,NA,NA
"82",3,"1_2",1,1,1,6,0,NA,NA
"83",3,"1_3",1,1,1,5,0,NA,NA
"84",3,"1_4",1,1,1,5,0,NA,NA
"85",3,"1_5",1,1,1,5,0,NA,NA
"86",3,"1_6",1,1,1,4,0,NA,NA
"87",3,"1_7",1,1,1,6,0,NA,NA
"88",3,"1_8",1,1,1,2,0,NA,NA
"89",3,"1_9",1,1,1,4,0,NA,NA
"90",3,"1_10",1,1,1,6,0,NA,NA
"91",3,"1_11",1,1,1,2,0,NA,NA
"92",3,"1_12",1,1,1,4,0,NA,NA
"93",3,"1_13",1,1,1,4,0,NA,NA
"94",3,"1_14",1,1,1,3,0,NA,NA
"95",3,"1_15",1,1,1,5,0,NA,NA
"96",3,"1_16",1,1,1,5,0,NA,NA
"97",3,"1_17",1,1,1,4,0,NA,NA
"98",3,"1_18",1,1,1,5,0,NA,NA
"99",3,"1_19",1,1,1,5,0,NA,NA
"100",3,"1_20",1,1,1,3,0,NA,NA
"101",3,"1_21",1,1,1,6,1,NA,NA
"102",3,"1_22",1,1,1,6,1,NA,NA
"103",3,"1_23",1,1,1,5,1,NA,NA
"104",3,"1_24",1,1,1,6,1,NA,NA
"105",3,"1_25",1,1,1,5,1,NA,NA
"106",3,"1_26",1,1,1,6,1,NA,NA
"107",3,"1_27",1,1,1,6,1,NA,NA
"108",3,"1_28",1,1,1,6,1,NA,NA
"109",3,"1_29",1,1,1,6,1,NA,NA
"110",3,"1_30",1,1,1,6,1,NA,NA
"111",3,"1_31",1,1,1,6,1,NA,NA
"112",3,"1_32",1,1,1,6,1,NA,NA
"113",3,"1_33",1,1,1,5,1,NA,NA
"114",3,"1_34",1,1,1,6,1,NA,NA
"115",3,"1_35",1,1,1,6,1,NA,NA
"116",3,"1_36",1,1,1,6,1,NA,NA
"117",3,"1_37",1,1,1,6,1,NA,NA
"118",3,"1_38",1,1,1,6,1,NA,NA
"119",3,"1_39",1,1,1,6,1,NA,NA
"120",3,"1_40",1,1,1,6,1,NA,NA
"121",4,"1_1",1,1,1,4,0,NA,NA
"122",4,"1_2",1,1,1,6,0,NA,NA
"123",4,"1_3",1,1,1,6,0,NA,NA
"124",4,"1_4",1,1,1,5,0,NA,NA
"125",4,"1_5",1,1,1,6,0,NA,NA
"126",4,"1_6",1,1,1,3,0,NA,NA
"127",4,"1_7",1,1,1,6,0,NA,NA
"128",4,"1_8",1,1,1,2,0,NA,NA
"129",4,"1_9",1,1,1,2,0,NA,NA
"130",4,"1_10",1,1,1,6,0,NA,NA
"131",4,"1_11",1,1,1,6,0,NA,NA
"132",4,"1_12",1,1,1,6,0,NA,NA
"133",4,"1_13",1,1,1,1,0,NA,NA
"134",4,"1_14",1,1,1,1,0,NA,NA
"135",4,"1_15",1,1,1,5,0,NA,NA
"136",4,"1_16",1,1,1,1,0,NA,NA
"137",4,"1_17",1,1,1,1,0,NA,NA
"138",4,"1_18",1,1,1,5,0,NA,NA
"139",4,"1_19",1,1,1,6,0,NA,NA
"140",4,"1_20",1,1,1,1,0,NA,NA
"141",4,"1_21",1,1,1,2,1,NA,NA
"142",4,"1_22",1,1,1,6,1,NA,NA
"143",4,"1_23",1,1,1,4,1,NA,NA
"144",4,"1_24",1,1,1,5,1,NA,NA
"145",4,"1_25",1,1,1,1,1,NA,NA
"146",4,"1_26",1,1,1,6,1,NA,NA
"147",4,"1_27",1,1,1,6,1,NA,NA
"148",4,"1_28",1,1,1,6,1,NA,NA
"149",4,"1_29",1,1,1,6,1,NA,NA
"150",4,"1_30",1,1,1,6,1,NA,NA
"151",4,"1_31",1,1,1,1,1,NA,NA
"152",4,"1_32",1,1,1,1,1,NA,NA
"153",4,"1_33",1,1,1,5,1,NA,NA
"154",4,"1_34",1,1,1,1,1,NA,NA
"155",4,"1_35",1,1,1,6,1,NA,NA
"156",4,"1_36",1,1,1,6,1,NA,NA
"157",4,"1_37",1,1,1,5,1,NA,NA
"158",4,"1_38",1,1,1,6,1,NA,NA
"159",4,"1_39",1,1,1,1,1,NA,NA
"160",4,"1_40",1,1,1,1,1,NA,NA
"161",5,"1_1",1,1,1,5,1,NA,NA
"162",5,"1_2",1,1,1,5,1,NA,NA
"163",5,"1_3",1,1,1,6,1,NA,NA
"164",5,"1_4",1,1,1,4,1,NA,NA
"165",5,"1_5",1,1,1,6,1,NA,NA
"166",5,"1_6",1,1,1,3,1,NA,NA
"167",5,"1_7",1,1,1,3,1,NA,NA
"168",5,"1_8",1,1,1,5,1,NA,NA
"169",5,"1_9",1,1,1,5,1,NA,NA
"170",5,"1_10",1,1,1,6,1,NA,NA
"171",5,"1_11",1,1,1,5,1,NA,NA
"172",5,"1_12",1,1,1,6,1,NA,NA
"173",5,"1_13",1,1,1,3,1,NA,NA
"174",5,"1_14",1,1,1,5,1,NA,NA
"175",5,"1_15",1,1,1,5,1,NA,NA
"176",5,"1_16",1,1,1,5,1,NA,NA
"177",5,"1_17",1,1,1,5,1,NA,NA
"178",5,"1_18",1,1,1,5,1,NA,NA
"179",5,"1_19",1,1,1,5,1,NA,NA
"180",5,"1_20",1,1,1,2,1,NA,NA
"181",5,"1_21",1,1,1,3,0,NA,NA
"182",5,"1_22",1,1,1,3,0,NA,NA
"183",5,"1_23",1,1,1,3,0,NA,NA
"184",5,"1_24",1,1,1,3,0,NA,NA
"185",5,"1_25",1,1,1,6,0,NA,NA
"186",5,"1_26",1,1,1,3,0,NA,NA
"187",5,"1_27",1,1,1,3,0,NA,NA
"188",5,"1_28",1,1,1,3,0,NA,NA
"189",5,"1_29",1,1,1,3,0,NA,NA
"190",5,"1_30",1,1,1,3,0,NA,NA
"191",5,"1_31",1,1,1,3,0,NA,NA
"192",5,"1_32",1,1,1,4,0,NA,NA
"193",5,"1_33",1,1,1,3,0,NA,NA
"194",5,"1_34",1,1,1,2,0,NA,NA
"195",5,"1_35",1,1,1,2,0,NA,NA
"196",5,"1_36",1,1,1,3,0,NA,NA
"197",5,"1_37",1,1,1,3,0,NA,NA
"198",5,"1_38",1,1,1,4,0,NA,NA
"199",5,"1_39",1,1,1,3,0,NA,NA
"200",5,"1_40",1,1,1,3,0,NA,NA
"201",6,"1_1",1,1,1,4,0,NA,NA
"202",6,"1_2",1,1,1,2,0,NA,NA
"203",6,"1_3",1,1,1,3,0,NA,NA
"204",6,"1_4",1,1,1,3,0,NA,NA
"205",6,"1_5",1,1,1,2,0,NA,NA
"206",6,"1_6",1,1,1,3,0,NA,NA
"207",6,"1_7",1,1,1,4,0,NA,NA
"208",6,"1_8",1,1,1,3,0,NA,NA
"209",6,"1_9",1,1,1,4,0,NA,NA
"210",6,"1_10",1,1,1,4,0,NA,NA
"211",6,"1_11",1,1,1,4,0,NA,NA
"212",6,"1_12",1,1,1,5,0,NA,NA
"213",6,"1_13",1,1,1,3,0,NA,NA
"214",6,"1_14",1,1,1,3,0,NA,NA
"215",6,"1_15",1,1,1,3,0,NA,NA
"216",6,"1_16",1,1,1,4,0,NA,NA
"217",6,"1_17",1,1,1,4,0,NA,NA
"218",6,"1_18",1,1,1,4,0,NA,NA
"219",6,"1_19",1,1,1,3,0,NA,NA
"220",6,"1_20",1,1,1,4,0,NA,NA
"221",6,"1_21",1,1,1,5,1,NA,NA
"222",6,"1_22",1,1,1,4,1,NA,NA
"223",6,"1_23",1,1,1,4,1,NA,NA
"224",6,"1_24",1,1,1,4,1,NA,NA
"225",6,"1_25",1,1,1,4,1,NA,NA
"226",6,"1_26",1,1,1,3,1,NA,NA
"227",6,"1_27",1,1,1,4,1,NA,NA
"228",6,"1_28",1,1,1,2,1,NA,NA
"229",6,"1_29",1,1,1,3,1,NA,NA
"230",6,"1_30",1,1,1,3,1,NA,NA
"231",6,"1_31",1,1,1,3,1,NA,NA
"232",6,"1_32",1,1,1,4,1,NA,NA
"233",6,"1_33",1,1,1,4,1,NA,NA
"234",6,"1_34",1,1,1,1,1,NA,NA
"235",6,"1_35",1,1,1,3,1,NA,NA
"236",6,"1_36",1,1,1,3,1,NA,NA
"237",6,"1_37",1,1,1,4,1,NA,NA
"238",6,"1_38",1,1,1,4,1,NA,NA
"239",6,"1_39",1,1,1,1,1,NA,NA
"240",6,"1_40",1,1,1,4,1,NA,NA
"241",7,"1_1",1,1,1,3,0,NA,NA
"242",7,"1_2",1,1,1,3,0,NA,NA
"243",7,"1_3",1,1,1,3,0,NA,NA
"244",7,"1_4",1,1,1,5,0,NA,NA
"245",7,"1_5",1,1,1,4,0,NA,NA
"246",7,"1_6",1,1,1,3,0,NA,NA
"247",7,"1_7",1,1,1,6,0,NA,NA
"248",7,"1_8",1,1,1,6,0,NA,NA
"249",7,"1_9",1,1,1,4,0,NA,NA
"250",7,"1_10",1,1,1,5,0,NA,NA
"251",7,"1_11",1,1,1,3,0,NA,NA
"252",7,"1_12",1,1,1,5,0,NA,NA
"253",7,"1_13",1,1,1,3,0,NA,NA
"254",7,"1_14",1,1,1,4,0,NA,NA
"255",7,"1_15",1,1,1,4,0,NA,NA
"256",7,"1_16",1,1,1,4,0,NA,NA
"257",7,"1_17",1,1,1,3,0,NA,NA
"258",7,"1_18",1,1,1,4,0,NA,NA
"259",7,"1_19",1,1,1,2,0,NA,NA
"260",7,"1_20",1,1,1,3,0,NA,NA
"261",7,"1_21",1,1,1,5,1,NA,NA
"262",7,"1_22",1,1,1,6,1,NA,NA
"263",7,"1_23",1,1,1,4,1,NA,NA
"264",7,"1_24",1,1,1,4,1,NA,NA
"265",7,"1_25",1,1,1,1,1,NA,NA
"266",7,"1_26",1,1,1,6,1,NA,NA
"267",7,"1_27",1,1,1,4,1,NA,NA
"268",7,"1_28",1,1,1,4,1,NA,NA
"269",7,"1_29",1,1,1,4,1,NA,NA
"270",7,"1_30",1,1,1,4,1,NA,NA
"271",7,"1_31",1,1,1,3,1,NA,NA
"272",7,"1_32",1,1,1,3,1,NA,NA
"273",7,"1_33",1,1,1,4,1,NA,NA
"274",7,"1_34",1,1,1,2,1,NA,NA
"275",7,"1_35",1,1,1,4,1,NA,NA
"276",7,"1_36",1,1,1,4,1,NA,NA
"277",7,"1_37",1,1,1,4,1,NA,NA
"278",7,"1_38",1,1,1,4,1,NA,NA
"279",7,"1_39",1,1,1,1,1,NA,NA
"280",7,"1_40",1,1,1,5,1,NA,NA
"281",8,"1_1",1,1,1,4,0,NA,NA
"282",8,"1_2",1,1,1,2,0,NA,NA
"283",8,"1_3",1,1,1,3,0,NA,NA
"284",8,"1_4",1,1,1,4,0,NA,NA
"285",8,"1_5",1,1,1,2,0,NA,NA
"286",8,"1_6",1,1,1,3,0,NA,NA
"287",8,"1_7",1,1,1,4,0,NA,NA
"288",8,"1_8",1,1,1,1,0,NA,NA
"289",8,"1_9",1,1,1,4,0,NA,NA
"290",8,"1_10",1,1,1,6,0,NA,NA
"291",8,"1_11",1,1,1,4,0,NA,NA
"292",8,"1_12",1,1,1,6,0,NA,NA
"293",8,"1_13",1,1,1,4,0,NA,NA
"294",8,"1_14",1,1,1,3,0,NA,NA
"295",8,"1_15",1,1,1,3,0,NA,NA
"296",8,"1_16",1,1,1,6,0,NA,NA
"297",8,"1_17",1,1,1,4,0,NA,NA
"298",8,"1_18",1,1,1,3,0,NA,NA
"299",8,"1_19",1,1,1,6,0,NA,NA
"300",8,"1_20",1,1,1,5,0,NA,NA
"301",8,"1_21",1,1,1,2,1,NA,NA
"302",8,"1_22",1,1,1,3,1,NA,NA
"303",8,"1_23",1,1,1,5,1,NA,NA
"304",8,"1_24",1,1,1,4,1,NA,NA
"305",8,"1_25",1,1,1,3,1,NA,NA
"306",8,"1_26",1,1,1,3,1,NA,NA
"307",8,"1_27",1,1,1,4,1,NA,NA
"308",8,"1_28",1,1,1,4,1,NA,NA
"309",8,"1_29",1,1,1,4,1,NA,NA
"310",8,"1_30",1,1,1,4,1,NA,NA
"311",8,"1_31",1,1,1,2,1,NA,NA
"312",8,"1_32",1,1,1,4,1,NA,NA
"313",8,"1_33",1,1,1,3,1,NA,NA
"314",8,"1_34",1,1,1,2,1,NA,NA
"315",8,"1_35",1,1,1,4,1,NA,NA
"316",8,"1_36",1,1,1,4,1,NA,NA
"317",8,"1_37",1,1,1,5,1,NA,NA
"318",8,"1_38",1,1,1,6,1,NA,NA
"319",8,"1_39",1,1,1,2,1,NA,NA
"320",8,"1_40",1,1,1,4,1,NA,NA
"321",9,"1_1",1,1,1,1,1,NA,NA
"322",9,"1_2",1,1,1,6,1,NA,NA
"323",9,"1_3",1,1,1,5,1,NA,NA
"324",9,"1_4",1,1,1,4,1,NA,NA
"325",9,"1_5",1,1,1,6,1,NA,NA
"326",9,"1_6",1,1,1,4,1,NA,NA
"327",9,"1_7",1,1,1,6,1,NA,NA
"328",9,"1_8",1,1,1,6,1,NA,NA
"329",9,"1_9",1,1,1,5,1,NA,NA
"330",9,"1_10",1,1,1,6,1,NA,NA
"331",9,"1_11",1,1,1,1,1,NA,NA
"332",9,"1_12",1,1,1,1,1,NA,NA
"333",9,"1_13",1,1,1,4,1,NA,NA
"334",9,"1_14",1,1,1,2,1,NA,NA
"335",9,"1_15",1,1,1,1,1,NA,NA
"336",9,"1_16",1,1,1,1,1,NA,NA
"337",9,"1_17",1,1,1,5,1,NA,NA
"338",9,"1_18",1,1,1,5,1,NA,NA
"339",9,"1_19",1,1,1,5,1,NA,NA
"340",9,"1_20",1,1,1,6,1,NA,NA
"341",9,"1_21",1,1,1,5,0,NA,NA
"342",9,"1_22",1,1,1,6,0,NA,NA
"343",9,"1_23",1,1,1,6,0,NA,NA
"344",9,"1_24",1,1,1,4,0,NA,NA
"345",9,"1_25",1,1,1,6,0,NA,NA
"346",9,"1_26",1,1,1,2,0,NA,NA
"347",9,"1_27",1,1,1,3,0,NA,NA
"348",9,"1_28",1,1,1,6,0,NA,NA
"349",9,"1_29",1,1,1,1,0,NA,NA
"350",9,"1_30",1,1,1,4,0,NA,NA
"351",9,"1_31",1,1,1,5,0,NA,NA
"352",9,"1_32",1,1,1,6,0,NA,NA
"353",9,"1_33",1,1,1,4,0,NA,NA
"354",9,"1_34",1,1,1,5,0,NA,NA
"355",9,"1_35",1,1,1,2,0,NA,NA
"356",9,"1_36",1,1,1,4,0,NA,NA
"357",9,"1_37",1,1,1,1,0,NA,NA
"358",9,"1_38",1,1,1,6,0,NA,NA
"359",9,"1_39",1,1,1,1,0,NA,NA
"360",9,"1_40",1,1,1,1,0,NA,NA
"361",10,"1_1",1,1,1,5,0,NA,NA
"362",10,"1_2",1,1,1,6,0,NA,NA
"363",10,"1_3",1,1,1,6,0,NA,NA
"364",10,"1_4",1,1,1,4,0,NA,NA
"365",10,"1_5",1,1,1,6,0,NA,NA
"366",10,"1_6",1,1,1,3,0,NA,NA
"367",10,"1_7",1,1,1,1,0,NA,NA
"368",10,"1_8",1,1,1,6,0,NA,NA
"369",10,"1_9",1,1,1,2,0,NA,NA
"370",10,"1_10",1,1,1,6,0,NA,NA
"371",10,"1_11",1,1,1,1,0,NA,NA
"372",10,"1_12",1,1,1,2,0,NA,NA
"373",10,"1_13",1,1,1,3,0,NA,NA
"374",10,"1_14",1,1,1,5,0,NA,NA
"375",10,"1_15",1,1,1,3,0,NA,NA
"376",10,"1_16",1,1,1,2,0,NA,NA
"377",10,"1_17",1,1,1,4,0,NA,NA
"378",10,"1_18",1,1,1,5,0,NA,NA
"379",10,"1_19",1,1,1,5,0,NA,NA
"380",10,"1_20",1,1,1,1,0,NA,NA
"381",10,"1_21",1,1,1,1,1,NA,NA
"382",10,"1_22",1,1,1,6,1,NA,NA
"383",10,"1_23",1,1,1,6,1,NA,NA
"384",10,"1_24",1,1,1,4,1,NA,NA
"385",10,"1_25",1,1,1,6,1,NA,NA
"386",10,"1_26",1,1,1,1,1,NA,NA
"387",10,"1_27",1,1,1,4,1,NA,NA
"388",10,"1_28",1,1,1,6,1,NA,NA
"389",10,"1_29",1,1,1,6,1,NA,NA
"390",10,"1_30",1,1,1,4,1,NA,NA
"391",10,"1_31",1,1,1,1,1,NA,NA
"392",10,"1_32",1,1,1,1,1,NA,NA
"393",10,"1_33",1,1,1,2,1,NA,NA
"394",10,"1_34",1,1,1,1,1,NA,NA
"395",10,"1_35",1,1,1,2,1,NA,NA
"396",10,"1_36",1,1,1,4,1,NA,NA
"397",10,"1_37",1,1,1,5,1,NA,NA
"398",10,"1_38",1,1,1,5,1,NA,NA
"399",10,"1_39",1,1,1,2,1,NA,NA
"400",10,"1_40",1,1,1,1,1,NA,NA
"401",11,"1_1",1,1,1,3,1,NA,NA
"402",11,"1_2",1,1,1,5,1,NA,NA
"403",11,"1_3",1,1,1,2,1,NA,NA
"404",11,"1_4",1,1,1,5,1,NA,NA
"405",11,"1_5",1,1,1,5,1,NA,NA
"406",11,"1_6",1,1,1,3,1,NA,NA
"407",11,"1_7",1,1,1,5,1,NA,NA
"408",11,"1_8",1,1,1,3,1,NA,NA
"409",11,"1_9",1,1,1,4,1,NA,NA
"410",11,"1_10",1,1,1,5,1,NA,NA
"411",11,"1_11",1,1,1,4,1,NA,NA
"412",11,"1_12",1,1,1,5,1,NA,NA
"413",11,"1_13",1,1,1,4,1,NA,NA
"414",11,"1_14",1,1,1,2,1,NA,NA
"415",11,"1_15",1,1,1,3,1,NA,NA
"416",11,"1_16",1,1,1,5,1,NA,NA
"417",11,"1_17",1,1,1,4,1,NA,NA
"418",11,"1_18",1,1,1,4,1,NA,NA
"419",11,"1_19",1,1,1,4,1,NA,NA
"420",11,"1_20",1,1,1,4,1,NA,NA
"421",11,"1_21",1,1,1,3,0,NA,NA
"422",11,"1_22",1,1,1,6,0,NA,NA
"423",11,"1_23",1,1,1,5,0,NA,NA
"424",11,"1_24",1,1,1,4,0,NA,NA
"425",11,"1_25",1,1,1,6,0,NA,NA
"426",11,"1_26",1,1,1,1,0,NA,NA
"427",11,"1_27",1,1,1,5,0,NA,NA
"428",11,"1_28",1,1,1,4,0,NA,NA
"429",11,"1_29",1,1,1,4,0,NA,NA
"430",11,"1_30",1,1,1,2,0,NA,NA
"431",11,"1_31",1,1,1,3,0,NA,NA
"432",11,"1_32",1,1,1,5,0,NA,NA
"433",11,"1_33",1,1,1,3,0,NA,NA
"434",11,"1_34",1,1,1,2,0,NA,NA
"435",11,"1_35",1,1,1,4,0,NA,NA
"436",11,"1_36",1,1,1,4,0,NA,NA
"437",11,"1_37",1,1,1,5,0,NA,NA
"438",11,"1_38",1,1,1,5,0,NA,NA
"439",11,"1_39",1,1,1,3,0,NA,NA
"440",11,"1_40",1,1,1,4,0,NA,NA
"441",12,"1_1",1,1,1,3,0,NA,NA
"442",12,"1_2",1,1,1,5,0,NA,NA
"443",12,"1_3",1,1,1,2,0,NA,NA
"444",12,"1_4",1,1,1,5,0,NA,NA
"445",12,"1_5",1,1,1,5,0,NA,NA
"446",12,"1_6",1,1,1,3,0,NA,NA
"447",12,"1_7",1,1,1,4,0,NA,NA
"448",12,"1_8",1,1,1,6,0,NA,NA
"449",12,"1_9",1,1,1,4,0,NA,NA
"450",12,"1_10",1,1,1,5,0,NA,NA
"451",12,"1_11",1,1,1,2,0,NA,NA
"452",12,"1_12",1,1,1,4,0,NA,NA
"453",12,"1_13",1,1,1,3,0,NA,NA
"454",12,"1_14",1,1,1,3,0,NA,NA
"455",12,"1_15",1,1,1,2,0,NA,NA
"456",12,"1_16",1,1,1,6,0,NA,NA
"457",12,"1_17",1,1,1,4,0,NA,NA
"458",12,"1_18",1,1,1,4,0,NA,NA
"459",12,"1_19",1,1,1,4,0,NA,NA
"460",12,"1_20",1,1,1,3,0,NA,NA
"461",12,"1_21",1,1,1,4,1,NA,NA
"462",12,"1_22",1,1,1,3,1,NA,NA
"463",12,"1_23",1,1,1,5,1,NA,NA
"464",12,"1_24",1,1,1,3,1,NA,NA
"465",12,"1_25",1,1,1,6,1,NA,NA
"466",12,"1_26",1,1,1,3,1,NA,NA
"467",12,"1_27",1,1,1,4,1,NA,NA
"468",12,"1_28",1,1,1,5,1,NA,NA
"469",12,"1_29",1,1,1,4,1,NA,NA
"470",12,"1_30",1,1,1,3,1,NA,NA
"471",12,"1_31",1,1,1,3,1,NA,NA
"472",12,"1_32",1,1,1,5,1,NA,NA
"473",12,"1_33",1,1,1,4,1,NA,NA
"474",12,"1_34",1,1,1,1,1,NA,NA
"475",12,"1_35",1,1,1,4,1,NA,NA
"476",12,"1_36",1,1,1,4,1,NA,NA
"477",12,"1_37",1,1,1,5,1,NA,NA
"478",12,"1_38",1,1,1,5,1,NA,NA
"479",12,"1_39",1,1,1,4,1,NA,NA
"480",12,"1_40",1,1,1,2,1,NA,NA
"481",13,"1_1",1,1,1,5,1,NA,NA
"482",13,"1_2",1,1,1,2,1,NA,NA
"483",13,"1_3",1,1,1,2,1,NA,NA
"484",13,"1_4",1,1,1,4,1,NA,NA
"485",13,"1_5",1,1,1,4,1,NA,NA
"486",13,"1_6",1,1,1,4,1,NA,NA
"487",13,"1_7",1,1,1,2,1,NA,NA
"488",13,"1_8",1,1,1,6,1,NA,NA
"489",13,"1_9",1,1,1,4,1,NA,NA
"490",13,"1_10",1,1,1,6,1,NA,NA
"491",13,"1_11",1,1,1,4,1,NA,NA
"492",13,"1_12",1,1,1,6,1,NA,NA
"493",13,"1_13",1,1,1,3,1,NA,NA
"494",13,"1_14",1,1,1,5,1,NA,NA
"495",13,"1_15",1,1,1,5,1,NA,NA
"496",13,"1_16",1,1,1,3,1,NA,NA
"497",13,"1_17",1,1,1,4,1,NA,NA
"498",13,"1_18",1,1,1,4,1,NA,NA
"499",13,"1_19",1,1,1,4,1,NA,NA
"500",13,"1_20",1,1,1,3,1,NA,NA
"501",13,"1_21",1,1,1,3,0,NA,NA
"502",13,"1_22",1,1,1,4,0,NA,NA
"503",13,"1_23",1,1,1,5,0,NA,NA
"504",13,"1_24",1,1,1,3,0,NA,NA
"505",13,"1_25",1,1,1,2,0,NA,NA
"506",13,"1_26",1,1,1,5,0,NA,NA
"507",13,"1_27",1,1,1,5,0,NA,NA
"508",13,"1_28",1,1,1,2,0,NA,NA
"509",13,"1_29",1,1,1,5,0,NA,NA
"510",13,"1_30",1,1,1,4,0,NA,NA
"511",13,"1_31",1,1,1,4,0,NA,NA
"512",13,"1_32",1,1,1,5,0,NA,NA
"513",13,"1_33",1,1,1,4,0,NA,NA
"514",13,"1_34",1,1,1,3,0,NA,NA
"515",13,"1_35",1,1,1,5,0,NA,NA
"516",13,"1_36",1,1,1,3,0,NA,NA
"517",13,"1_37",1,1,1,5,0,NA,NA
"518",13,"1_38",1,1,1,4,0,NA,NA
"519",13,"1_39",1,1,1,1,0,NA,NA
"520",13,"1_40",1,1,1,2,0,NA,NA
"521",14,"1_1",1,1,1,2,1,NA,NA
"522",14,"1_2",1,1,1,2,1,NA,NA
"523",14,"1_3",1,1,1,1,1,NA,NA
"524",14,"1_4",1,1,1,5,1,NA,NA
"525",14,"1_5",1,1,1,2,1,NA,NA
"526",14,"1_6",1,1,1,4,1,NA,NA
"527",14,"1_7",1,1,1,6,1,NA,NA
"528",14,"1_8",1,1,1,1,1,NA,NA
"529",14,"1_9",1,1,1,4,1,NA,NA
"530",14,"1_10",1,1,1,6,1,NA,NA
"531",14,"1_11",1,1,1,1,1,NA,NA
"532",14,"1_12",1,1,1,5,1,NA,NA
"533",14,"1_13",1,1,1,3,1,NA,NA
"534",14,"1_14",1,1,1,3,1,NA,NA
"535",14,"1_15",1,1,1,5,1,NA,NA
"536",14,"1_16",1,1,1,2,1,NA,NA
"537",14,"1_17",1,1,1,4,1,NA,NA
"538",14,"1_18",1,1,1,2,1,NA,NA
"539",14,"1_19",1,1,1,5,1,NA,NA
"540",14,"1_20",1,1,1,3,1,NA,NA
"541",14,"1_21",1,1,1,2,0,NA,NA
"542",14,"1_22",1,1,1,2,0,NA,NA
"543",14,"1_23",1,1,1,5,0,NA,NA
"544",14,"1_24",1,1,1,3,0,NA,NA
"545",14,"1_25",1,1,1,1,0,NA,NA
"546",14,"1_26",1,1,1,6,0,NA,NA
"547",14,"1_27",1,1,1,4,0,NA,NA
"548",14,"1_28",1,1,1,5,0,NA,NA
"549",14,"1_29",1,1,1,5,0,NA,NA
"550",14,"1_30",1,1,1,4,0,NA,NA
"551",14,"1_31",1,1,1,1,0,NA,NA
"552",14,"1_32",1,1,1,5,0,NA,NA
"553",14,"1_33",1,1,1,2,0,NA,NA
"554",14,"1_34",1,1,1,2,0,NA,NA
"555",14,"1_35",1,1,1,5,0,NA,NA
"556",14,"1_36",1,1,1,4,0,NA,NA
"557",14,"1_37",1,1,1,5,0,NA,NA
"558",14,"1_38",1,1,1,5,0,NA,NA
"559",14,"1_39",1,1,1,2,0,NA,NA
"560",14,"1_40",1,1,1,1,0,NA,NA
"561",15,"1_1",1,1,1,4,0,NA,NA
"562",15,"1_2",1,1,1,5,0,NA,NA
"563",15,"1_3",1,1,1,3,0,NA,NA
"564",15,"1_4",1,1,1,5,0,NA,NA
"565",15,"1_5",1,1,1,6,0,NA,NA
"566",15,"1_6",1,1,1,4,0,NA,NA
"567",15,"1_7",1,1,1,6,0,NA,NA
"568",15,"1_8",1,1,1,3,0,NA,NA
"569",15,"1_9",1,1,1,4,0,NA,NA
"570",15,"1_10",1,1,1,3,0,NA,NA
"571",15,"1_11",1,1,1,6,0,NA,NA
"572",15,"1_12",1,1,1,6,0,NA,NA
"573",15,"1_13",1,1,1,3,0,NA,NA
"574",15,"1_14",1,1,1,4,0,NA,NA
"575",15,"1_15",1,1,1,3,0,NA,NA
"576",15,"1_16",1,1,1,4,0,NA,NA
"577",15,"1_17",1,1,1,5,0,NA,NA
"578",15,"1_18",1,1,1,4,0,NA,NA
"579",15,"1_19",1,1,1,4,0,NA,NA
"580",15,"1_20",1,1,1,4,0,NA,NA
"581",15,"1_21",1,1,1,4,1,NA,NA
"582",15,"1_22",1,1,1,5,1,NA,NA
"583",15,"1_23",1,1,1,5,1,NA,NA
"584",15,"1_24",1,1,1,3,1,NA,NA
"585",15,"1_25",1,1,1,6,1,NA,NA
"586",15,"1_26",1,1,1,3,1,NA,NA
"587",15,"1_27",1,1,1,3,1,NA,NA
"588",15,"1_28",1,1,1,5,1,NA,NA
"589",15,"1_29",1,1,1,4,1,NA,NA
"590",15,"1_30",1,1,1,3,1,NA,NA
"591",15,"1_31",1,1,1,4,1,NA,NA
"592",15,"1_32",1,1,1,5,1,NA,NA
"593",15,"1_33",1,1,1,4,1,NA,NA
"594",15,"1_34",1,1,1,4,1,NA,NA
"595",15,"1_35",1,1,1,4,1,NA,NA
"596",15,"1_36",1,1,1,4,1,NA,NA
"597",15,"1_37",1,1,1,3,1,NA,NA
"598",15,"1_38",1,1,1,4,1,NA,NA
"599",15,"1_39",1,1,1,3,1,NA,NA
"600",15,"1_40",1,1,1,6,1,NA,NA
"601",16,"1_1",1,1,1,4,0,NA,NA
"602",16,"1_2",1,1,1,4,0,NA,NA
"603",16,"1_3",1,1,1,3,0,NA,NA
"604",16,"1_4",1,1,1,5,0,NA,NA
"605",16,"1_5",1,1,1,1,0,NA,NA
"606",16,"1_6",1,1,1,4,0,NA,NA
"607",16,"1_7",1,1,1,5,0,NA,NA
"608",16,"1_8",1,1,1,2,0,NA,NA
"609",16,"1_9",1,1,1,4,0,NA,NA
"610",16,"1_10",1,1,1,6,0,NA,NA
"611",16,"1_11",1,1,1,6,0,NA,NA
"612",16,"1_12",1,1,1,5,0,NA,NA
"613",16,"1_13",1,1,1,3,0,NA,NA
"614",16,"1_14",1,1,1,3,0,NA,NA
"615",16,"1_15",1,1,1,4,0,NA,NA
"616",16,"1_16",1,1,1,4,0,NA,NA
"617",16,"1_17",1,1,1,4,0,NA,NA
"618",16,"1_18",1,1,1,4,0,NA,NA
"619",16,"1_19",1,1,1,4,0,NA,NA
"620",16,"1_20",1,1,1,2,0,NA,NA
"621",16,"1_21",1,1,1,5,1,NA,NA
"622",16,"1_22",1,1,1,6,1,NA,NA
"623",16,"1_23",1,1,1,5,1,NA,NA
"624",16,"1_24",1,1,1,3,1,NA,NA
"625",16,"1_25",1,1,1,4,1,NA,NA
"626",16,"1_26",1,1,1,6,1,NA,NA
"627",16,"1_27",1,1,1,4,1,NA,NA
"628",16,"1_28",1,1,1,5,1,NA,NA
"629",16,"1_29",1,1,1,5,1,NA,NA
"630",16,"1_30",1,1,1,2,1,NA,NA
"631",16,"1_31",1,1,1,4,1,NA,NA
"632",16,"1_32",1,1,1,5,1,NA,NA
"633",16,"1_33",1,1,1,5,1,NA,NA
"634",16,"1_34",1,1,1,4,1,NA,NA
"635",16,"1_35",1,1,1,5,1,NA,NA
"636",16,"1_36",1,1,1,4,1,NA,NA
"637",16,"1_37",1,1,1,3,1,NA,NA
"638",16,"1_38",1,1,1,5,1,NA,NA
"639",16,"1_39",1,1,1,1,1,NA,NA
"640",16,"1_40",1,1,1,1,1,NA,NA
"641",17,"1_1",1,1,1,3,0,NA,NA
"642",17,"1_2",1,1,1,4,0,NA,NA
"643",17,"1_3",1,1,1,2,0,NA,NA
"644",17,"1_4",1,1,1,3,0,NA,NA
"645",17,"1_5",1,1,1,4,0,NA,NA
"646",17,"1_6",1,1,1,3,0,NA,NA
"647",17,"1_7",1,1,1,4,0,NA,NA
"648",17,"1_8",1,1,1,3,0,NA,NA
"649",17,"1_9",1,1,1,3,0,NA,NA
"650",17,"1_10",1,1,1,4,0,NA,NA
"651",17,"1_11",1,1,1,5,0,NA,NA
"652",17,"1_12",1,1,1,4,0,NA,NA
"653",17,"1_13",1,1,1,3,0,NA,NA
"654",17,"1_14",1,1,1,3,0,NA,NA
"655",17,"1_15",1,1,1,3,0,NA,NA
"656",17,"1_16",1,1,1,3,0,NA,NA
"657",17,"1_17",1,1,1,4,0,NA,NA
"658",17,"1_18",1,1,1,3,0,NA,NA
"659",17,"1_19",1,1,1,3,0,NA,NA
"660",17,"1_20",1,1,1,3,0,NA,NA
"661",17,"1_21",1,1,1,4,1,NA,NA
"662",17,"1_22",1,1,1,3,1,NA,NA
"663",17,"1_23",1,1,1,4,1,NA,NA
"664",17,"1_24",1,1,1,3,1,NA,NA
"665",17,"1_25",1,1,1,5,1,NA,NA
"666",17,"1_26",1,1,1,2,1,NA,NA
"667",17,"1_27",1,1,1,3,1,NA,NA
"668",17,"1_28",1,1,1,3,1,NA,NA
"669",17,"1_29",1,1,1,3,1,NA,NA
"670",17,"1_30",1,1,1,3,1,NA,NA
"671",17,"1_31",1,1,1,3,1,NA,NA
"672",17,"1_32",1,1,1,4,1,NA,NA
"673",17,"1_33",1,1,1,3,1,NA,NA
"674",17,"1_34",1,1,1,3,1,NA,NA
"675",17,"1_35",1,1,1,3,1,NA,NA
"676",17,"1_36",1,1,1,3,1,NA,NA
"677",17,"1_37",1,1,1,3,1,NA,NA
"678",17,"1_38",1,1,1,4,1,NA,NA
"679",17,"1_39",1,1,1,2,1,NA,NA
"680",17,"1_40",1,1,1,3,1,NA,NA
"681",18,"1_1",1,1,1,3,1,NA,NA
"682",18,"1_2",1,1,1,3,1,NA,NA
"683",18,"1_3",1,1,1,2,1,NA,NA
"684",18,"1_4",1,1,1,4,1,NA,NA
"685",18,"1_5",1,1,1,4,1,NA,NA
"686",18,"1_6",1,1,1,3,1,NA,NA
"687",18,"1_7",1,1,1,4,1,NA,NA
"688",18,"1_8",1,1,1,4,1,NA,NA
"689",18,"1_9",1,1,1,4,1,NA,NA
"690",18,"1_10",1,1,1,5,1,NA,NA
"691",18,"1_11",1,1,1,4,1,NA,NA
"692",18,"1_12",1,1,1,5,1,NA,NA
"693",18,"1_13",1,1,1,4,1,NA,NA
"694",18,"1_14",1,1,1,4,1,NA,NA
"695",18,"1_15",1,1,1,4,1,NA,NA
"696",18,"1_16",1,1,1,3,1,NA,NA
"697",18,"1_17",1,1,1,2,1,NA,NA
"698",18,"1_18",1,1,1,4,1,NA,NA
"699",18,"1_19",1,1,1,4,1,NA,NA
"700",18,"1_20",1,1,1,4,1,NA,NA
"701",18,"1_21",1,1,1,4,0,NA,NA
"702",18,"1_22",1,1,1,4,0,NA,NA
"703",18,"1_23",1,1,1,5,0,NA,NA
"704",18,"1_24",1,1,1,4,0,NA,NA
"705",18,"1_25",1,1,1,2,0,NA,NA
"706",18,"1_26",1,1,1,4,0,NA,NA
"707",18,"1_27",1,1,1,4,0,NA,NA
"708",18,"1_28",1,1,1,4,0,NA,NA
"709",18,"1_29",1,1,1,4,0,NA,NA
"710",18,"1_30",1,1,1,4,0,NA,NA
"711",18,"1_31",1,1,1,4,0,NA,NA
"712",18,"1_32",1,1,1,4,0,NA,NA
"713",18,"1_33",1,1,1,4,0,NA,NA
"714",18,"1_34",1,1,1,3,0,NA,NA
"715",18,"1_35",1,1,1,4,0,NA,NA
"716",18,"1_36",1,1,1,4,0,NA,NA
"717",18,"1_37",1,1,1,4,0,NA,NA
"718",18,"1_38",1,1,1,5,0,NA,NA
"719",18,"1_39",1,1,1,3,0,NA,NA
"720",18,"1_40",1,1,1,3,0,NA,NA
"721",19,"1_1",1,1,1,5,0,NA,NA
"722",19,"1_2",1,1,1,4,0,NA,NA
"723",19,"1_3",1,1,1,2,0,NA,NA
"724",19,"1_4",1,1,1,4,0,NA,NA
"725",19,"1_5",1,1,1,5,0,NA,NA
"726",19,"1_6",1,1,1,3,0,NA,NA
"727",19,"1_7",1,1,1,6,0,NA,NA
"728",19,"1_8",1,1,1,1,0,NA,NA
"729",19,"1_9",1,1,1,3,0,NA,NA
"730",19,"1_10",1,1,1,4,0,NA,NA
"731",19,"1_11",1,1,1,6,0,NA,NA
"732",19,"1_12",1,1,1,5,0,NA,NA
"733",19,"1_13",1,1,1,3,0,NA,NA
"734",19,"1_14",1,1,1,3,0,NA,NA
"735",19,"1_15",1,1,1,1,0,NA,NA
"736",19,"1_16",1,1,1,5,0,NA,NA
"737",19,"1_17",1,1,1,5,0,NA,NA
"738",19,"1_18",1,1,1,4,0,NA,NA
"739",19,"1_19",1,1,1,3,0,NA,NA
"740",19,"1_20",1,1,1,3,0,NA,NA
"741",19,"1_21",1,1,1,4,1,NA,NA
"742",19,"1_22",1,1,1,5,1,NA,NA
"743",19,"1_23",1,1,1,4,1,NA,NA
"744",19,"1_24",1,1,1,3,1,NA,NA
"745",19,"1_25",1,1,1,6,1,NA,NA
"746",19,"1_26",1,1,1,4,1,NA,NA
"747",19,"1_27",1,1,1,2,1,NA,NA
"748",19,"1_28",1,1,1,4,1,NA,NA
"749",19,"1_29",1,1,1,4,1,NA,NA
"750",19,"1_30",1,1,1,3,1,NA,NA
"751",19,"1_31",1,1,1,3,1,NA,NA
"752",19,"1_32",1,1,1,6,1,NA,NA
"753",19,"1_33",1,1,1,5,1,NA,NA
"754",19,"1_34",1,1,1,2,1,NA,NA
"755",19,"1_35",1,1,1,5,1,NA,NA
"756",19,"1_36",1,1,1,3,1,NA,NA
"757",19,"1_37",1,1,1,4,1,NA,NA
"758",19,"1_38",1,1,1,4,1,NA,NA
"759",19,"1_39",1,1,1,1,1,NA,NA
"760",19,"1_40",1,1,1,1,1,NA,NA
"761",20,"1_1",1,1,1,5,1,NA,NA
"762",20,"1_2",1,1,1,2,1,NA,NA
"763",20,"1_3",1,1,1,5,1,NA,NA
"764",20,"1_4",1,1,1,5,1,NA,NA
"765",20,"1_5",1,1,1,3,1,NA,NA
"766",20,"1_6",1,1,1,4,1,NA,NA
"767",20,"1_7",1,1,1,4,1,NA,NA
"768",20,"1_8",1,1,1,5,1,NA,NA
"769",20,"1_9",1,1,1,4,1,NA,NA
"770",20,"1_10",1,1,1,4,1,NA,NA
"771",20,"1_11",1,1,1,5,1,NA,NA
"772",20,"1_12",1,1,1,2,1,NA,NA
"773",20,"1_13",1,1,1,4,1,NA,NA
"774",20,"1_14",1,1,1,4,1,NA,NA
"775",20,"1_15",1,1,1,5,1,NA,NA
"776",20,"1_16",1,1,1,5,1,NA,NA
"777",20,"1_17",1,1,1,4,1,NA,NA
"778",20,"1_18",1,1,1,5,1,NA,NA
"779",20,"1_19",1,1,1,3,1,NA,NA
"780",20,"1_20",1,1,1,4,1,NA,NA
"781",20,"1_21",1,1,1,5,0,NA,NA
"782",20,"1_22",1,1,1,6,0,NA,NA
"783",20,"1_23",1,1,1,4,0,NA,NA
"784",20,"1_24",1,1,1,4,0,NA,NA
"785",20,"1_25",1,1,1,2,0,NA,NA
"786",20,"1_26",1,1,1,5,0,NA,NA
"787",20,"1_27",1,1,1,4,0,NA,NA
"788",20,"1_28",1,1,1,5,0,NA,NA
"789",20,"1_29",1,1,1,4,0,NA,NA
"790",20,"1_30",1,1,1,4,0,NA,NA
"791",20,"1_31",1,1,1,4,0,NA,NA
"792",20,"1_32",1,1,1,5,0,NA,NA
"793",20,"1_33",1,1,1,5,0,NA,NA
"794",20,"1_34",1,1,1,4,0,NA,NA
"795",20,"1_35",1,1,1,4,0,NA,NA
"796",20,"1_36",1,1,1,4,0,NA,NA
"797",20,"1_37",1,1,1,4,0,NA,NA
"798",20,"1_38",1,1,1,5,0,NA,NA
"799",20,"1_39",1,1,1,2,0,NA,NA
"800",20,"1_40",1,1,1,4,0,NA,NA
"801",21,"1_1",1,1,1,6,1,NA,NA
"802",21,"1_2",1,1,1,6,1,NA,NA
"803",21,"1_3",1,1,1,6,1,NA,NA
"804",21,"1_4",1,1,1,6,1,NA,NA
"805",21,"1_5",1,1,1,6,1,NA,NA
"806",21,"1_6",1,1,1,6,1,NA,NA
"807",21,"1_7",1,1,1,6,1,NA,NA
"808",21,"1_8",1,1,1,6,1,NA,NA
"809",21,"1_9",1,1,1,6,1,NA,NA
"810",21,"1_10",1,1,1,6,1,NA,NA
"811",21,"1_11",1,1,1,6,1,NA,NA
"812",21,"1_12",1,1,1,6,1,NA,NA
"813",21,"1_13",1,1,1,6,1,NA,NA
"814",21,"1_14",1,1,1,6,1,NA,NA
"815",21,"1_15",1,1,1,6,1,NA,NA
"816",21,"1_16",1,1,1,6,1,NA,NA
"817",21,"1_17",1,1,1,6,1,NA,NA
"818",21,"1_18",1,1,1,6,1,NA,NA
"819",21,"1_19",1,1,1,6,1,NA,NA
"820",21,"1_20",1,1,1,6,1,NA,NA
"821",21,"1_21",1,1,1,4,0,NA,NA
"822",21,"1_22",1,1,1,5,0,NA,NA
"823",21,"1_23",1,1,1,4,0,NA,NA
"824",21,"1_24",1,1,1,4,0,NA,NA
"825",21,"1_25",1,1,1,2,0,NA,NA
"826",21,"1_26",1,1,1,4,0,NA,NA
"827",21,"1_27",1,1,1,3,0,NA,NA
"828",21,"1_28",1,1,1,4,0,NA,NA
"829",21,"1_29",1,1,1,4,0,NA,NA
"830",21,"1_30",1,1,1,4,0,NA,NA
"831",21,"1_31",1,1,1,2,0,NA,NA
"832",21,"1_32",1,1,1,6,0,NA,NA
"833",21,"1_33",1,1,1,2,0,NA,NA
"834",21,"1_34",1,1,1,3,0,NA,NA
"835",21,"1_35",1,1,1,4,0,NA,NA
"836",21,"1_36",1,1,1,4,0,NA,NA
"837",21,"1_37",1,1,1,6,0,NA,NA
"838",21,"1_38",1,1,1,5,0,NA,NA
"839",21,"1_39",1,1,1,1,0,NA,NA
"840",21,"1_40",1,1,1,1,0,NA,NA
"841",22,"1_1",1,1,1,4,1,NA,NA
"842",22,"1_2",1,1,1,4,1,NA,NA
"843",22,"1_3",1,1,1,1,1,NA,NA
"844",22,"1_4",1,1,1,3,1,NA,NA
"845",22,"1_5",1,1,1,4,1,NA,NA
"846",22,"1_6",1,1,1,3,1,NA,NA
"847",22,"1_7",1,1,1,6,1,NA,NA
"848",22,"1_8",1,1,1,5,1,NA,NA
"849",22,"1_9",1,1,1,4,1,NA,NA
"850",22,"1_10",1,1,1,6,1,NA,NA
"851",22,"1_11",1,1,1,6,1,NA,NA
"852",22,"1_12",1,1,1,1,1,NA,NA
"853",22,"1_13",1,1,1,3,1,NA,NA
"854",22,"1_14",1,1,1,3,1,NA,NA
"855",22,"1_15",1,1,1,3,1,NA,NA
"856",22,"1_16",1,1,1,4,1,NA,NA
"857",22,"1_17",1,1,1,4,1,NA,NA
"858",22,"1_18",1,1,1,4,1,NA,NA
"859",22,"1_19",1,1,1,2,1,NA,NA
"860",22,"1_20",1,1,1,3,1,NA,NA
"861",22,"1_21",1,1,1,4,0,NA,NA
"862",22,"1_22",1,1,1,4,0,NA,NA
"863",22,"1_23",1,1,1,5,0,NA,NA
"864",22,"1_24",1,1,1,4,0,NA,NA
"865",22,"1_25",1,1,1,2,0,NA,NA
"866",22,"1_26",1,1,1,5,0,NA,NA
"867",22,"1_27",1,1,1,5,0,NA,NA
"868",22,"1_28",1,1,1,5,0,NA,NA
"869",22,"1_29",1,1,1,5,0,NA,NA
"870",22,"1_30",1,1,1,4,0,NA,NA
"871",22,"1_31",1,1,1,4,0,NA,NA
"872",22,"1_32",1,1,1,4,0,NA,NA
"873",22,"1_33",1,1,1,5,0,NA,NA
"874",22,"1_34",1,1,1,4,0,NA,NA
"875",22,"1_35",1,1,1,4,0,NA,NA
"876",22,"1_36",1,1,1,4,0,NA,NA
"877",22,"1_37",1,1,1,5,0,NA,NA
"878",22,"1_38",1,1,1,4,0,NA,NA
"879",22,"1_39",1,1,1,1,0,NA,NA
"880",22,"1_40",1,1,1,2,0,NA,NA
"881",23,"1_1",1,1,1,5,1,NA,NA
"882",23,"1_2",1,1,1,2,1,NA,NA
"883",23,"1_3",1,1,1,1,1,NA,NA
"884",23,"1_4",1,1,1,5,1,NA,NA
"885",23,"1_5",1,1,1,6,1,NA,NA
"886",23,"1_6",1,1,1,3,1,NA,NA
"887",23,"1_7",1,1,1,6,1,NA,NA
"888",23,"1_8",1,1,1,5,1,NA,NA
"889",23,"1_9",1,1,1,5,1,NA,NA
"890",23,"1_10",1,1,1,6,1,NA,NA
"891",23,"1_11",1,1,1,6,1,NA,NA
"892",23,"1_12",1,1,1,6,1,NA,NA
"893",23,"1_13",1,1,1,5,1,NA,NA
"894",23,"1_14",1,1,1,5,1,NA,NA
"895",23,"1_15",1,1,1,6,1,NA,NA
"896",23,"1_16",1,1,1,6,1,NA,NA
"897",23,"1_17",1,1,1,4,1,NA,NA
"898",23,"1_18",1,1,1,5,1,NA,NA
"899",23,"1_19",1,1,1,4,1,NA,NA
"900",23,"1_20",1,1,1,5,1,NA,NA
"901",23,"1_21",1,1,1,6,0,NA,NA
"902",23,"1_22",1,1,1,2,0,NA,NA
"903",23,"1_23",1,1,1,6,0,NA,NA
"904",23,"1_24",1,1,1,4,0,NA,NA
"905",23,"1_25",1,1,1,6,0,NA,NA
"906",23,"1_26",1,1,1,5,0,NA,NA
"907",23,"1_27",1,1,1,4,0,NA,NA
"908",23,"1_28",1,1,1,5,0,NA,NA
"909",23,"1_29",1,1,1,5,0,NA,NA
"910",23,"1_30",1,1,1,6,0,NA,NA
"911",23,"1_31",1,1,1,3,0,NA,NA
"912",23,"1_32",1,1,1,1,0,NA,NA
"913",23,"1_33",1,1,1,5,0,NA,NA
"914",23,"1_34",1,1,1,1,0,NA,NA
"915",23,"1_35",1,1,1,5,0,NA,NA
"916",23,"1_36",1,1,1,4,0,NA,NA
"917",23,"1_37",1,1,1,2,0,NA,NA
"918",23,"1_38",1,1,1,6,0,NA,NA
"919",23,"1_39",1,1,1,1,0,NA,NA
"920",23,"1_40",1,1,1,6,0,NA,NA
"921",24,"1_1",1,1,1,3,1,NA,NA
"922",24,"1_2",1,1,1,2,1,NA,NA
"923",24,"1_3",1,1,1,2,1,NA,NA
"924",24,"1_4",1,1,1,5,1,NA,NA
"925",24,"1_5",1,1,1,3,1,NA,NA
"926",24,"1_6",1,1,1,3,1,NA,NA
"927",24,"1_7",1,1,1,6,1,NA,NA
"928",24,"1_8",1,1,1,2,1,NA,NA
"929",24,"1_9",1,1,1,5,1,NA,NA
"930",24,"1_10",1,1,1,6,1,NA,NA
"931",24,"1_11",1,1,1,5,1,NA,NA
"932",24,"1_12",1,1,1,6,1,NA,NA
"933",24,"1_13",1,1,1,4,1,NA,NA
"934",24,"1_14",1,1,1,2,1,NA,NA
"935",24,"1_15",1,1,1,4,1,NA,NA
"936",24,"1_16",1,1,1,5,1,NA,NA
"937",24,"1_17",1,1,1,5,1,NA,NA
"938",24,"1_18",1,1,1,4,1,NA,NA
"939",24,"1_19",1,1,1,2,1,NA,NA
"940",24,"1_20",1,1,1,3,1,NA,NA
"941",24,"1_21",1,1,1,2,0,NA,NA
"942",24,"1_22",1,1,1,5,0,NA,NA
"943",24,"1_23",1,1,1,4,0,NA,NA
"944",24,"1_24",1,1,1,3,0,NA,NA
"945",24,"1_25",1,1,1,3,0,NA,NA
"946",24,"1_26",1,1,1,2,0,NA,NA
"947",24,"1_27",1,1,1,3,0,NA,NA
"948",24,"1_28",1,1,1,4,0,NA,NA
"949",24,"1_29",1,1,1,2,0,NA,NA
"950",24,"1_30",1,1,1,3,0,NA,NA
"951",24,"1_31",1,1,1,4,0,NA,NA
"952",24,"1_32",1,1,1,6,0,NA,NA
"953",24,"1_33",1,1,1,2,0,NA,NA
"954",24,"1_34",1,1,1,4,0,NA,NA
"955",24,"1_35",1,1,1,4,0,NA,NA
"956",24,"1_36",1,1,1,4,0,NA,NA
"957",24,"1_37",1,1,1,3,0,NA,NA
"958",24,"1_38",1,1,1,3,0,NA,NA
"959",24,"1_39",1,1,1,1,0,NA,NA
"960",24,"1_40",1,1,1,1,0,NA,NA
"961",25,"1_1",1,1,1,6,0,NA,NA
"962",25,"1_2",1,1,1,1,0,NA,NA
"963",25,"1_3",1,1,1,2,0,NA,NA
"964",25,"1_4",1,1,1,2,0,NA,NA
"965",25,"1_5",1,1,1,2,0,NA,NA
"966",25,"1_6",1,1,1,3,0,NA,NA
"967",25,"1_7",1,1,1,4,0,NA,NA
"968",25,"1_8",1,1,1,1,0,NA,NA
"969",25,"1_9",1,1,1,5,0,NA,NA
"970",25,"1_10",1,1,1,6,0,NA,NA
"971",25,"1_11",1,1,1,6,0,NA,NA
"972",25,"1_12",1,1,1,5,0,NA,NA
"973",25,"1_13",1,1,1,4,0,NA,NA
"974",25,"1_14",1,1,1,3,0,NA,NA
"975",25,"1_15",1,1,1,2,0,NA,NA
"976",25,"1_16",1,1,1,5,0,NA,NA
"977",25,"1_17",1,1,1,4,0,NA,NA
"978",25,"1_18",1,1,1,4,0,NA,NA
"979",25,"1_19",1,1,1,4,0,NA,NA
"980",25,"1_20",1,1,1,4,0,NA,NA
"981",25,"1_21",1,1,1,6,1,NA,NA
"982",25,"1_22",1,1,1,1,1,NA,NA
"983",25,"1_23",1,1,1,5,1,NA,NA
"984",25,"1_24",1,1,1,5,1,NA,NA
"985",25,"1_25",1,1,1,6,1,NA,NA
"986",25,"1_26",1,1,1,5,1,NA,NA
"987",25,"1_27",1,1,1,5,1,NA,NA
"988",25,"1_28",1,1,1,3,1,NA,NA
"989",25,"1_29",1,1,1,4,1,NA,NA
"990",25,"1_30",1,1,1,2,1,NA,NA
"991",25,"1_31",1,1,1,3,1,NA,NA
"992",25,"1_32",1,1,1,6,1,NA,NA
"993",25,"1_33",1,1,1,4,1,NA,NA
"994",25,"1_34",1,1,1,5,1,NA,NA
"995",25,"1_35",1,1,1,5,1,NA,NA
"996",25,"1_36",1,1,1,5,1,NA,NA
"997",25,"1_37",1,1,1,6,1,NA,NA
"998",25,"1_38",1,1,1,5,1,NA,NA
"999",25,"1_39",1,1,1,1,1,NA,NA
"1000",25,"1_40",1,1,1,2,1,NA,NA
"1001",26,"1_1",1,1,1,3,0,NA,NA
"1002",26,"1_2",1,1,1,1,0,NA,NA
"1003",26,"1_3",1,1,1,4,0,NA,NA
"1004",26,"1_4",1,1,1,3,0,NA,NA
"1005",26,"1_5",1,1,1,4,0,NA,NA
"1006",26,"1_6",1,1,1,3,0,NA,NA
"1007",26,"1_7",1,1,1,6,0,NA,NA
"1008",26,"1_8",1,1,1,1,0,NA,NA
"1009",26,"1_9",1,1,1,4,0,NA,NA
"1010",26,"1_10",1,1,1,4,0,NA,NA
"1011",26,"1_11",1,1,1,2,0,NA,NA
"1012",26,"1_12",1,1,1,5,0,NA,NA
"1013",26,"1_13",1,1,1,2,0,NA,NA
"1014",26,"1_14",1,1,1,3,0,NA,NA
"1015",26,"1_15",1,1,1,3,0,NA,NA
"1016",26,"1_16",1,1,1,4,0,NA,NA
"1017",26,"1_17",1,1,1,4,0,NA,NA
"1018",26,"1_18",1,1,1,4,0,NA,NA
"1019",26,"1_19",1,1,1,4,0,NA,NA
"1020",26,"1_20",1,1,1,3,0,NA,NA
"1021",26,"1_21",1,1,1,4,1,NA,NA
"1022",26,"1_22",1,1,1,4,1,NA,NA
"1023",26,"1_23",1,1,1,5,1,NA,NA
"1024",26,"1_24",1,1,1,3,1,NA,NA
"1025",26,"1_25",1,1,1,6,1,NA,NA
"1026",26,"1_26",1,1,1,3,1,NA,NA
"1027",26,"1_27",1,1,1,3,1,NA,NA
"1028",26,"1_28",1,1,1,3,1,NA,NA
"1029",26,"1_29",1,1,1,5,1,NA,NA
"1030",26,"1_30",1,1,1,2,1,NA,NA
"1031",26,"1_31",1,1,1,3,1,NA,NA
"1032",26,"1_32",1,1,1,5,1,NA,NA
"1033",26,"1_33",1,1,1,4,1,NA,NA
"1034",26,"1_34",1,1,1,5,1,NA,NA
"1035",26,"1_35",1,1,1,5,1,NA,NA
"1036",26,"1_36",1,1,1,3,1,NA,NA
"1037",26,"1_37",1,1,1,6,1,NA,NA
"1038",26,"1_38",1,1,1,6,1,NA,NA
"1039",26,"1_39",1,1,1,1,1,NA,NA
"1040",26,"1_40",1,1,1,6,1,NA,NA
"1041",27,"1_1",1,1,1,4,0,NA,NA
"1042",27,"1_2",1,1,1,6,0,NA,NA
"1043",27,"1_3",1,1,1,4,0,NA,NA
"1044",27,"1_4",1,1,1,5,0,NA,NA
"1045",27,"1_5",1,1,1,3,0,NA,NA
"1046",27,"1_6",1,1,1,4,0,NA,NA
"1047",27,"1_7",1,1,1,4,0,NA,NA
"1048",27,"1_8",1,1,1,2,0,NA,NA
"1049",27,"1_9",1,1,1,3,0,NA,NA
"1050",27,"1_10",1,1,1,4,0,NA,NA
"1051",27,"1_11",1,1,1,4,0,NA,NA
"1052",27,"1_12",1,1,1,1,0,NA,NA
"1053",27,"1_13",1,1,1,4,0,NA,NA
"1054",27,"1_14",1,1,1,4,0,NA,NA
"1055",27,"1_15",1,1,1,4,0,NA,NA
"1056",27,"1_16",1,1,1,5,0,NA,NA
"1057",27,"1_17",1,1,1,4,0,NA,NA
"1058",27,"1_18",1,1,1,5,0,NA,NA
"1059",27,"1_19",1,1,1,4,0,NA,NA
"1060",27,"1_20",1,1,1,3,0,NA,NA
"1061",27,"1_21",1,1,1,3,1,NA,NA
"1062",27,"1_22",1,1,1,4,1,NA,NA
"1063",27,"1_23",1,1,1,4,1,NA,NA
"1064",27,"1_24",1,1,1,3,1,NA,NA
"1065",27,"1_25",1,1,1,5,1,NA,NA
"1066",27,"1_26",1,1,1,5,1,NA,NA
"1067",27,"1_27",1,1,1,3,1,NA,NA
"1068",27,"1_28",1,1,1,3,1,NA,NA
"1069",27,"1_29",1,1,1,4,1,NA,NA
"1070",27,"1_30",1,1,1,3,1,NA,NA
"1071",27,"1_31",1,1,1,3,1,NA,NA
"1072",27,"1_32",1,1,1,5,1,NA,NA
"1073",27,"1_33",1,1,1,5,1,NA,NA
"1074",27,"1_34",1,1,1,4,1,NA,NA
"1075",27,"1_35",1,1,1,3,1,NA,NA
"1076",27,"1_36",1,1,1,4,1,NA,NA
"1077",27,"1_37",1,1,1,3,1,NA,NA
"1078",27,"1_38",1,1,1,4,1,NA,NA
"1079",27,"1_39",1,1,1,3,1,NA,NA
"1080",27,"1_40",1,1,1,3,1,NA,NA
"1081",28,"1_1",1,1,1,1,0,NA,NA
"1082",28,"1_2",1,1,1,5,0,NA,NA
"1083",28,"1_3",1,1,1,1,0,NA,NA
"1084",28,"1_4",1,1,1,6,0,NA,NA
"1085",28,"1_5",1,1,1,1,0,NA,NA
"1086",28,"1_6",1,1,1,3,0,NA,NA
"1087",28,"1_7",1,1,1,5,0,NA,NA
"1088",28,"1_8",1,1,1,1,0,NA,NA
"1089",28,"1_9",1,1,1,5,0,NA,NA
"1090",28,"1_10",1,1,1,6,0,NA,NA
"1091",28,"1_11",1,1,1,4,0,NA,NA
"1092",28,"1_12",1,1,1,3,0,NA,NA
"1093",28,"1_13",1,1,1,3,0,NA,NA
"1094",28,"1_14",1,1,1,3,0,NA,NA
"1095",28,"1_15",1,1,1,4,0,NA,NA
"1096",28,"1_16",1,1,1,2,0,NA,NA
"1097",28,"1_17",1,1,1,3,0,NA,NA
"1098",28,"1_18",1,1,1,3,0,NA,NA
"1099",28,"1_19",1,1,1,2,0,NA,NA
"1100",28,"1_20",1,1,1,3,0,NA,NA
"1101",28,"1_21",1,1,1,3,1,NA,NA
"1102",28,"1_22",1,1,1,5,1,NA,NA
"1103",28,"1_23",1,1,1,5,1,NA,NA
"1104",28,"1_24",1,1,1,4,1,NA,NA
"1105",28,"1_25",1,1,1,4,1,NA,NA
"1106",28,"1_26",1,1,1,2,1,NA,NA
"1107",28,"1_27",1,1,1,3,1,NA,NA
"1108",28,"1_28",1,1,1,6,1,NA,NA
"1109",28,"1_29",1,1,1,4,1,NA,NA
"1110",28,"1_30",1,1,1,3,1,NA,NA
"1111",28,"1_31",1,1,1,5,1,NA,NA
"1112",28,"1_32",1,1,1,6,1,NA,NA
"1113",28,"1_33",1,1,1,4,1,NA,NA
"1114",28,"1_34",1,1,1,2,1,NA,NA
"1115",28,"1_35",1,1,1,3,1,NA,NA
"1116",28,"1_36",1,1,1,4,1,NA,NA
"1117",28,"1_37",1,1,1,6,1,NA,NA
"1118",28,"1_38",1,1,1,5,1,NA,NA
"1119",28,"1_39",1,1,1,4,1,NA,NA
"1120",28,"1_40",1,1,1,6,1,NA,NA
"1121",29,"1_1",1,1,1,3,0,NA,NA
"1122",29,"1_2",1,1,1,3,0,NA,NA
"1123",29,"1_3",1,1,1,3,0,NA,NA
"1124",29,"1_4",1,1,1,5,0,NA,NA
"1125",29,"1_5",1,1,1,4,0,NA,NA
"1126",29,"1_6",1,1,1,3,0,NA,NA
"1127",29,"1_7",1,1,1,4,0,NA,NA
"1128",29,"1_8",1,1,1,2,0,NA,NA
"1129",29,"1_9",1,1,1,4,0,NA,NA
"1130",29,"1_10",1,1,1,5,0,NA,NA
"1131",29,"1_11",1,1,1,3,0,NA,NA
"1132",29,"1_12",1,1,1,3,0,NA,NA
"1133",29,"1_13",1,1,1,3,0,NA,NA
"1134",29,"1_14",1,1,1,3,0,NA,NA
"1135",29,"1_15",1,1,1,2,0,NA,NA
"1136",29,"1_16",1,1,1,3,0,NA,NA
"1137",29,"1_17",1,1,1,4,0,NA,NA
"1138",29,"1_18",1,1,1,4,0,NA,NA
"1139",29,"1_19",1,1,1,4,0,NA,NA
"1140",29,"1_20",1,1,1,3,0,NA,NA
"1141",29,"1_21",1,1,1,5,1,NA,NA
"1142",29,"1_22",1,1,1,5,1,NA,NA
"1143",29,"1_23",1,1,1,5,1,NA,NA
"1144",29,"1_24",1,1,1,4,1,NA,NA
"1145",29,"1_25",1,1,1,5,1,NA,NA
"1146",29,"1_26",1,1,1,4,1,NA,NA
"1147",29,"1_27",1,1,1,4,1,NA,NA
"1148",29,"1_28",1,1,1,4,1,NA,NA
"1149",29,"1_29",1,1,1,5,1,NA,NA
"1150",29,"1_30",1,1,1,4,1,NA,NA
"1151",29,"1_31",1,1,1,3,1,NA,NA
"1152",29,"1_32",1,1,1,4,1,NA,NA
"1153",29,"1_33",1,1,1,4,1,NA,NA
"1154",29,"1_34",1,1,1,4,1,NA,NA
"1155",29,"1_35",1,1,1,4,1,NA,NA
"1156",29,"1_36",1,1,1,4,1,NA,NA
"1157",29,"1_37",1,1,1,5,1,NA,NA
"1158",29,"1_38",1,1,1,5,1,NA,NA
"1159",29,"1_39",1,1,1,3,1,NA,NA
"1160",29,"1_40",1,1,1,4,1,NA,NA
"1161",30,"1_1",1,1,1,5,0,NA,NA
"1162",30,"1_2",1,1,1,2,0,NA,NA
"1163",30,"1_3",1,1,1,5,0,NA,NA
"1164",30,"1_4",1,1,1,6,0,NA,NA
"1165",30,"1_5",1,1,1,1,0,NA,NA
"1166",30,"1_6",1,1,1,3,0,NA,NA
"1167",30,"1_7",1,1,1,1,0,NA,NA
"1168",30,"1_8",1,1,1,6,0,NA,NA
"1169",30,"1_9",1,1,1,3,0,NA,NA
"1170",30,"1_10",1,1,1,1,0,NA,NA
"1171",30,"1_11",1,1,1,6,0,NA,NA
"1172",30,"1_12",1,1,1,3,0,NA,NA
"1173",30,"1_13",1,1,1,5,0,NA,NA
"1174",30,"1_14",1,1,1,1,0,NA,NA
"1175",30,"1_15",1,1,1,4,0,NA,NA
"1176",30,"1_16",1,1,1,1,0,NA,NA
"1177",30,"1_17",1,1,1,4,0,NA,NA
"1178",30,"1_18",1,1,1,5,0,NA,NA
"1179",30,"1_19",1,1,1,3,0,NA,NA
"1180",30,"1_20",1,1,1,3,0,NA,NA
"1181",30,"1_21",1,1,1,5,1,NA,NA
"1182",30,"1_22",1,1,1,6,1,NA,NA
"1183",30,"1_23",1,1,1,5,1,NA,NA
"1184",30,"1_24",1,1,1,3,1,NA,NA
"1185",30,"1_25",1,1,1,3,1,NA,NA
"1186",30,"1_26",1,1,1,1,1,NA,NA
"1187",30,"1_27",1,1,1,3,1,NA,NA
"1188",30,"1_28",1,1,1,5,1,NA,NA
"1189",30,"1_29",1,1,1,3,1,NA,NA
"1190",30,"1_30",1,1,1,3,1,NA,NA
"1191",30,"1_31",1,1,1,4,1,NA,NA
"1192",30,"1_32",1,1,1,5,1,NA,NA
"1193",30,"1_33",1,1,1,1,1,NA,NA
"1194",30,"1_34",1,1,1,2,1,NA,NA
"1195",30,"1_35",1,1,1,4,1,NA,NA
"1196",30,"1_36",1,1,1,3,1,NA,NA
"1197",30,"1_37",1,1,1,1,1,NA,NA
"1198",30,"1_38",1,1,1,6,1,NA,NA
"1199",30,"1_39",1,1,1,3,1,NA,NA
"1200",30,"1_40",1,1,1,1,1,NA,NA
"1201",31,"1_1",1,1,1,3,0,NA,NA
"1202",31,"1_2",1,1,1,3,0,NA,NA
"1203",31,"1_3",1,1,1,2,0,NA,NA
"1204",31,"1_4",1,1,1,3,0,NA,NA
"1205",31,"1_5",1,1,1,3,0,NA,NA
"1206",31,"1_6",1,1,1,2,0,NA,NA
"1207",31,"1_7",1,1,1,5,0,NA,NA
"1208",31,"1_8",1,1,1,6,0,NA,NA
"1209",31,"1_9",1,1,1,5,0,NA,NA
"1210",31,"1_10",1,1,1,4,0,NA,NA
"1211",31,"1_11",1,1,1,2,0,NA,NA
"1212",31,"1_12",1,1,1,5,0,NA,NA
"1213",31,"1_13",1,1,1,4,0,NA,NA
"1214",31,"1_14",1,1,1,3,0,NA,NA
"1215",31,"1_15",1,1,1,1,0,NA,NA
"1216",31,"1_16",1,1,1,4,0,NA,NA
"1217",31,"1_17",1,1,1,3,0,NA,NA
"1218",31,"1_18",1,1,1,3,0,NA,NA
"1219",31,"1_19",1,1,1,4,0,NA,NA
"1220",31,"1_20",1,1,1,3,0,NA,NA
"1221",31,"1_21",1,1,1,3,1,NA,NA
"1222",31,"1_22",1,1,1,3,1,NA,NA
"1223",31,"1_23",1,1,1,4,1,NA,NA
"1224",31,"1_24",1,1,1,2,1,NA,NA
"1225",31,"1_25",1,1,1,3,1,NA,NA
"1226",31,"1_26",1,1,1,4,1,NA,NA
"1227",31,"1_27",1,1,1,2,1,NA,NA
"1228",31,"1_28",1,1,1,2,1,NA,NA
"1229",31,"1_29",1,1,1,3,1,NA,NA
"1230",31,"1_30",1,1,1,3,1,NA,NA
"1231",31,"1_31",1,1,1,3,1,NA,NA
"1232",31,"1_32",1,1,1,5,1,NA,NA
"1233",31,"1_33",1,1,1,1,1,NA,NA
"1234",31,"1_34",1,1,1,2,1,NA,NA
"1235",31,"1_35",1,1,1,3,1,NA,NA
"1236",31,"1_36",1,1,1,3,1,NA,NA
"1237",31,"1_37",1,1,1,3,1,NA,NA
"1238",31,"1_38",1,1,1,6,1,NA,NA
"1239",31,"1_39",1,1,1,2,1,NA,NA
"1240",31,"1_40",1,1,1,3,1,NA,NA
"1241",32,"1_1",1,1,1,2,0,NA,NA
"1242",32,"1_2",1,1,1,1,0,NA,NA
"1243",32,"1_3",1,1,1,1,0,NA,NA
"1244",32,"1_4",1,1,1,4,0,NA,NA
"1245",32,"1_5",1,1,1,2,0,NA,NA
"1246",32,"1_6",1,1,1,3,0,NA,NA
"1247",32,"1_7",1,1,1,5,0,NA,NA
"1248",32,"1_8",1,1,1,1,0,NA,NA
"1249",32,"1_9",1,1,1,3,0,NA,NA
"1250",32,"1_10",1,1,1,3,0,NA,NA
"1251",32,"1_11",1,1,1,5,0,NA,NA
"1252",32,"1_12",1,1,1,5,0,NA,NA
"1253",32,"1_13",1,1,1,3,0,NA,NA
"1254",32,"1_14",1,1,1,3,0,NA,NA
"1255",32,"1_15",1,1,1,3,0,NA,NA
"1256",32,"1_16",1,1,1,4,0,NA,NA
"1257",32,"1_17",1,1,1,4,0,NA,NA
"1258",32,"1_18",1,1,1,4,0,NA,NA
"1259",32,"1_19",1,1,1,3,0,NA,NA
"1260",32,"1_20",1,1,1,3,0,NA,NA
"1261",32,"1_21",1,1,1,4,1,NA,NA
"1262",32,"1_22",1,1,1,4,1,NA,NA
"1263",32,"1_23",1,1,1,4,1,NA,NA
"1264",32,"1_24",1,1,1,3,1,NA,NA
"1265",32,"1_25",1,1,1,3,1,NA,NA
"1266",32,"1_26",1,1,1,5,1,NA,NA
"1267",32,"1_27",1,1,1,2,1,NA,NA
"1268",32,"1_28",1,1,1,3,1,NA,NA
"1269",32,"1_29",1,1,1,4,1,NA,NA
"1270",32,"1_30",1,1,1,3,1,NA,NA
"1271",32,"1_31",1,1,1,2,1,NA,NA
"1272",32,"1_32",1,1,1,4,1,NA,NA
"1273",32,"1_33",1,1,1,3,1,NA,NA
"1274",32,"1_34",1,1,1,3,1,NA,NA
"1275",32,"1_35",1,1,1,3,1,NA,NA
"1276",32,"1_36",1,1,1,3,1,NA,NA
"1277",32,"1_37",1,1,1,4,1,NA,NA
"1278",32,"1_38",1,1,1,3,1,NA,NA
"1279",32,"1_39",1,1,1,4,1,NA,NA
"1280",32,"1_40",1,1,1,3,1,NA,NA
"1281",33,"1_1",1,1,1,5,0,NA,NA
"1282",33,"1_2",1,1,1,6,0,NA,NA
"1283",33,"1_3",1,1,1,1,0,NA,NA
"1284",33,"1_4",1,1,1,3,0,NA,NA
"1285",33,"1_5",1,1,1,2,0,NA,NA
"1286",33,"1_6",1,1,1,3,0,NA,NA
"1287",33,"1_7",1,1,1,5,0,NA,NA
"1288",33,"1_8",1,1,1,1,0,NA,NA
"1289",33,"1_9",1,1,1,3,0,NA,NA
"1290",33,"1_10",1,1,1,4,0,NA,NA
"1291",33,"1_11",1,1,1,1,0,NA,NA
"1292",33,"1_12",1,1,1,4,0,NA,NA
"1293",33,"1_13",1,1,1,3,0,NA,NA
"1294",33,"1_14",1,1,1,3,0,NA,NA
"1295",33,"1_15",1,1,1,4,0,NA,NA
"1296",33,"1_16",1,1,1,4,0,NA,NA
"1297",33,"1_17",1,1,1,4,0,NA,NA
"1298",33,"1_18",1,1,1,3,0,NA,NA
"1299",33,"1_19",1,1,1,5,0,NA,NA
"1300",33,"1_20",1,1,1,3,0,NA,NA
"1301",33,"1_21",1,1,1,1,1,NA,NA
"1302",33,"1_22",1,1,1,4,1,NA,NA
"1303",33,"1_23",1,1,1,3,1,NA,NA
"1304",33,"1_24",1,1,1,4,1,NA,NA
"1305",33,"1_25",1,1,1,5,1,NA,NA
"1306",33,"1_26",1,1,1,3,1,NA,NA
"1307",33,"1_27",1,1,1,3,1,NA,NA
"1308",33,"1_28",1,1,1,6,1,NA,NA
"1309",33,"1_29",1,1,1,4,1,NA,NA
"1310",33,"1_30",1,1,1,6,1,NA,NA
"1311",33,"1_31",1,1,1,3,1,NA,NA
"1312",33,"1_32",1,1,1,3,1,NA,NA
"1313",33,"1_33",1,1,1,3,1,NA,NA
"1314",33,"1_34",1,1,1,1,1,NA,NA
"1315",33,"1_35",1,1,1,4,1,NA,NA
"1316",33,"1_36",1,1,1,3,1,NA,NA
"1317",33,"1_37",1,1,1,3,1,NA,NA
"1318",33,"1_38",1,1,1,3,1,NA,NA
"1319",33,"1_39",1,1,1,1,1,NA,NA
"1320",33,"1_40",1,1,1,3,1,NA,NA
"1321",34,"1_1",1,1,1,3,0,NA,NA
"1322",34,"1_2",1,1,1,3,0,NA,NA
"1323",34,"1_3",1,1,1,2,0,NA,NA
"1324",34,"1_4",1,1,1,3,0,NA,NA
"1325",34,"1_5",1,1,1,2,0,NA,NA
"1326",34,"1_6",1,1,1,2,0,NA,NA
"1327",34,"1_7",1,1,1,6,0,NA,NA
"1328",34,"1_8",1,1,1,1,0,NA,NA
"1329",34,"1_9",1,1,1,3,0,NA,NA
"1330",34,"1_10",1,1,1,4,0,NA,NA
"1331",34,"1_11",1,1,1,3,0,NA,NA
"1332",34,"1_12",1,1,1,2,0,NA,NA
"1333",34,"1_13",1,1,1,2,0,NA,NA
"1334",34,"1_14",1,1,1,2,0,NA,NA
"1335",34,"1_15",1,1,1,4,0,NA,NA
"1336",34,"1_16",1,1,1,2,0,NA,NA
"1337",34,"1_17",1,1,1,3,0,NA,NA
"1338",34,"1_18",1,1,1,3,0,NA,NA
"1339",34,"1_19",1,1,1,4,0,NA,NA
"1340",34,"1_20",1,1,1,3,0,NA,NA
"1341",34,"1_21",1,1,1,6,1,NA,NA
"1342",34,"1_22",1,1,1,6,1,NA,NA
"1343",34,"1_23",1,1,1,6,1,NA,NA
"1344",34,"1_24",1,1,1,6,1,NA,NA
"1345",34,"1_25",1,1,1,3,1,NA,NA
"1346",34,"1_26",1,1,1,6,1,NA,NA
"1347",34,"1_27",1,1,1,6,1,NA,NA
"1348",34,"1_28",1,1,1,6,1,NA,NA
"1349",34,"1_29",1,1,1,6,1,NA,NA
"1350",34,"1_30",1,1,1,6,1,NA,NA
"1351",34,"1_31",1,1,1,6,1,NA,NA
"1352",34,"1_32",1,1,1,6,1,NA,NA
"1353",34,"1_33",1,1,1,5,1,NA,NA
"1354",34,"1_34",1,1,1,6,1,NA,NA
"1355",34,"1_35",1,1,1,6,1,NA,NA
"1356",34,"1_36",1,1,1,6,1,NA,NA
"1357",34,"1_37",1,1,1,6,1,NA,NA
"1358",34,"1_38",1,1,1,6,1,NA,NA
"1359",34,"1_39",1,1,1,6,1,NA,NA
"1360",34,"1_40",1,1,1,6,1,NA,NA
"1361",35,"1_1",1,1,1,2,0,NA,NA
"1362",35,"1_2",1,1,1,2,0,NA,NA
"1363",35,"1_3",1,1,1,3,0,NA,NA
"1364",35,"1_4",1,1,1,2,0,NA,NA
"1365",35,"1_5",1,1,1,5,0,NA,NA
"1366",35,"1_6",1,1,1,4,0,NA,NA
"1367",35,"1_7",1,1,1,5,0,NA,NA
"1368",35,"1_8",1,1,1,2,0,NA,NA
"1369",35,"1_9",1,1,1,4,0,NA,NA
"1370",35,"1_10",1,1,1,5,0,NA,NA
"1371",35,"1_11",1,1,1,5,0,NA,NA
"1372",35,"1_12",1,1,1,6,0,NA,NA
"1373",35,"1_13",1,1,1,3,0,NA,NA
"1374",35,"1_14",1,1,1,4,0,NA,NA
"1375",35,"1_15",1,1,1,3,0,NA,NA
"1376",35,"1_16",1,1,1,5,0,NA,NA
"1377",35,"1_17",1,1,1,5,0,NA,NA
"1378",35,"1_18",1,1,1,4,0,NA,NA
"1379",35,"1_19",1,1,1,1,0,NA,NA
"1380",35,"1_20",1,1,1,4,0,NA,NA
"1381",35,"1_21",1,1,1,4,1,NA,NA
"1382",35,"1_22",1,1,1,5,1,NA,NA
"1383",35,"1_23",1,1,1,5,1,NA,NA
"1384",35,"1_24",1,1,1,4,1,NA,NA
"1385",35,"1_25",1,1,1,2,1,NA,NA
"1386",35,"1_26",1,1,1,6,1,NA,NA
"1387",35,"1_27",1,1,1,4,1,NA,NA
"1388",35,"1_28",1,1,1,3,1,NA,NA
"1389",35,"1_29",1,1,1,5,1,NA,NA
"1390",35,"1_30",1,1,1,1,1,NA,NA
"1391",35,"1_31",1,1,1,4,1,NA,NA
"1392",35,"1_32",1,1,1,6,1,NA,NA
"1393",35,"1_33",1,1,1,5,1,NA,NA
"1394",35,"1_34",1,1,1,4,1,NA,NA
"1395",35,"1_35",1,1,1,4,1,NA,NA
"1396",35,"1_36",1,1,1,3,1,NA,NA
"1397",35,"1_37",1,1,1,6,1,NA,NA
"1398",35,"1_38",1,1,1,5,1,NA,NA
"1399",35,"1_39",1,1,1,3,1,NA,NA
"1400",35,"1_40",1,1,1,5,1,NA,NA
"1401",36,"1_1",1,1,1,4,0,NA,NA
"1402",36,"1_2",1,1,1,2,0,NA,NA
"1403",36,"1_3",1,1,1,2,0,NA,NA
"1404",36,"1_4",1,1,1,5,0,NA,NA
"1405",36,"1_5",1,1,1,3,0,NA,NA
"1406",36,"1_6",1,1,1,3,0,NA,NA
"1407",36,"1_7",1,1,1,6,0,NA,NA
"1408",36,"1_8",1,1,1,1,0,NA,NA
"1409",36,"1_9",1,1,1,5,0,NA,NA
"1410",36,"1_10",1,1,1,5,0,NA,NA
"1411",36,"1_11",1,1,1,1,0,NA,NA
"1412",36,"1_12",1,1,1,5,0,NA,NA
"1413",36,"1_13",1,1,1,3,0,NA,NA
"1414",36,"1_14",1,1,1,3,0,NA,NA
"1415",36,"1_15",1,1,1,2,0,NA,NA
"1416",36,"1_16",1,1,1,5,0,NA,NA
"1417",36,"1_17",1,1,1,4,0,NA,NA
"1418",36,"1_18",1,1,1,5,0,NA,NA
"1419",36,"1_19",1,1,1,4,0,NA,NA
"1420",36,"1_20",1,1,1,3,0,NA,NA
"1421",36,"1_21",1,1,1,4,1,NA,NA
"1422",36,"1_22",1,1,1,3,1,NA,NA
"1423",36,"1_23",1,1,1,4,1,NA,NA
"1424",36,"1_24",1,1,1,3,1,NA,NA
"1425",36,"1_25",1,1,1,2,1,NA,NA
"1426",36,"1_26",1,1,1,4,1,NA,NA
"1427",36,"1_27",1,1,1,3,1,NA,NA
"1428",36,"1_28",1,1,1,3,1,NA,NA
"1429",36,"1_29",1,1,1,3,1,NA,NA
"1430",36,"1_30",1,1,1,4,1,NA,NA
"1431",36,"1_31",1,1,1,4,1,NA,NA
"1432",36,"1_32",1,1,1,5,1,NA,NA
"1433",36,"1_33",1,1,1,5,1,NA,NA
"1434",36,"1_34",1,1,1,3,1,NA,NA
"1435",36,"1_35",1,1,1,4,1,NA,NA
"1436",36,"1_36",1,1,1,4,1,NA,NA
"1437",36,"1_37",1,1,1,4,1,NA,NA
"1438",36,"1_38",1,1,1,6,1,NA,NA
"1439",36,"1_39",1,1,1,2,1,NA,NA
"1440",36,"1_40",1,1,1,4,1,NA,NA
"1441",37,"1_1",1,1,1,2,0,NA,NA
"1442",37,"1_2",1,1,1,3,0,NA,NA
"1443",37,"1_3",1,1,1,2,0,NA,NA
"1444",37,"1_4",1,1,1,5,0,NA,NA
"1445",37,"1_5",1,1,1,1,0,NA,NA
"1446",37,"1_6",1,1,1,3,0,NA,NA
"1447",37,"1_7",1,1,1,6,0,NA,NA
"1448",37,"1_8",1,1,1,1,0,NA,NA
"1449",37,"1_9",1,1,1,4,0,NA,NA
"1450",37,"1_10",1,1,1,6,0,NA,NA
"1451",37,"1_11",1,1,1,5,0,NA,NA
"1452",37,"1_12",1,1,1,6,0,NA,NA
"1453",37,"1_13",1,1,1,1,0,NA,NA
"1454",37,"1_14",1,1,1,4,0,NA,NA
"1455",37,"1_15",1,1,1,4,0,NA,NA
"1456",37,"1_16",1,1,1,5,0,NA,NA
"1457",37,"1_17",1,1,1,4,0,NA,NA
"1458",37,"1_18",1,1,1,3,0,NA,NA
"1459",37,"1_19",1,1,1,4,0,NA,NA
"1460",37,"1_20",1,1,1,3,0,NA,NA
"1461",37,"1_21",1,1,1,3,1,NA,NA
"1462",37,"1_22",1,1,1,6,1,NA,NA
"1463",37,"1_23",1,1,1,4,1,NA,NA
"1464",37,"1_24",1,1,1,4,1,NA,NA
"1465",37,"1_25",1,1,1,2,1,NA,NA
"1466",37,"1_26",1,1,1,5,1,NA,NA
"1467",37,"1_27",1,1,1,2,1,NA,NA
"1468",37,"1_28",1,1,1,4,1,NA,NA
"1469",37,"1_29",1,1,1,6,1,NA,NA
"1470",37,"1_30",1,1,1,3,1,NA,NA
"1471",37,"1_31",1,1,1,2,1,NA,NA
"1472",37,"1_32",1,1,1,4,1,NA,NA
"1473",37,"1_33",1,1,1,5,1,NA,NA
"1474",37,"1_34",1,1,1,1,1,NA,NA
"1475",37,"1_35",1,1,1,4,1,NA,NA
"1476",37,"1_36",1,1,1,3,1,NA,NA
"1477",37,"1_37",1,1,1,4,1,NA,NA
"1478",37,"1_38",1,1,1,5,1,NA,NA
"1479",37,"1_39",1,1,1,1,1,NA,NA
"1480",37,"1_40",1,1,1,1,1,NA,NA
"1481",38,"1_1",1,1,1,4,0,NA,NA
"1482",38,"1_2",1,1,1,1,0,NA,NA
"1483",38,"1_3",1,1,1,3,0,NA,NA
"1484",38,"1_4",1,1,1,3,0,NA,NA
"1485",38,"1_5",1,1,1,4,0,NA,NA
"1486",38,"1_6",1,1,1,4,0,NA,NA
"1487",38,"1_7",1,1,1,6,0,NA,NA
"1488",38,"1_8",1,1,1,1,0,NA,NA
"1489",38,"1_9",1,1,1,4,0,NA,NA
"1490",38,"1_10",1,1,1,3,0,NA,NA
"1491",38,"1_11",1,1,1,4,0,NA,NA
"1492",38,"1_12",1,1,1,4,0,NA,NA
"1493",38,"1_13",1,1,1,3,0,NA,NA
"1494",38,"1_14",1,1,1,3,0,NA,NA
"1495",38,"1_15",1,1,1,3,0,NA,NA
"1496",38,"1_16",1,1,1,4,0,NA,NA
"1497",38,"1_17",1,1,1,3,0,NA,NA
"1498",38,"1_18",1,1,1,3,0,NA,NA
"1499",38,"1_19",1,1,1,3,0,NA,NA
"1500",38,"1_20",1,1,1,3,0,NA,NA
"1501",38,"1_21",1,1,1,1,1,NA,NA
"1502",38,"1_22",1,1,1,3,1,NA,NA
"1503",38,"1_23",1,1,1,3,1,NA,NA
"1504",38,"1_24",1,1,1,3,1,NA,NA
"1505",38,"1_25",1,1,1,1,1,NA,NA
"1506",38,"1_26",1,1,1,6,1,NA,NA
"1507",38,"1_27",1,1,1,3,1,NA,NA
"1508",38,"1_28",1,1,1,3,1,NA,NA
"1509",38,"1_29",1,1,1,3,1,NA,NA
"1510",38,"1_30",1,1,1,3,1,NA,NA
"1511",38,"1_31",1,1,1,3,1,NA,NA
"1512",38,"1_32",1,1,1,6,1,NA,NA
"1513",38,"1_33",1,1,1,3,1,NA,NA
"1514",38,"1_34",1,1,1,4,1,NA,NA
"1515",38,"1_35",1,1,1,3,1,NA,NA
"1516",38,"1_36",1,1,1,3,1,NA,NA
"1517",38,"1_37",1,1,1,1,1,NA,NA
"1518",38,"1_38",1,1,1,4,1,NA,NA
"1519",38,"1_39",1,1,1,3,1,NA,NA
"1520",38,"1_40",1,1,1,4,1,NA,NA
"1521",39,"1_1",1,1,1,4,0,NA,NA
"1522",39,"1_2",1,1,1,4,0,NA,NA
"1523",39,"1_3",1,1,1,4,0,NA,NA
"1524",39,"1_4",1,1,1,4,0,NA,NA
"1525",39,"1_5",1,1,1,4,0,NA,NA
"1526",39,"1_6",1,1,1,4,0,NA,NA
"1527",39,"1_7",1,1,1,6,0,NA,NA
"1528",39,"1_8",1,1,1,1,0,NA,NA
"1529",39,"1_9",1,1,1,4,0,NA,NA
"1530",39,"1_10",1,1,1,4,0,NA,NA
"1531",39,"1_11",1,1,1,4,0,NA,NA
"1532",39,"1_12",1,1,1,3,0,NA,NA
"1533",39,"1_13",1,1,1,4,0,NA,NA
"1534",39,"1_14",1,1,1,4,0,NA,NA
"1535",39,"1_15",1,1,1,3,0,NA,NA
"1536",39,"1_16",1,1,1,6,0,NA,NA
"1537",39,"1_17",1,1,1,4,0,NA,NA
"1538",39,"1_18",1,1,1,4,0,NA,NA
"1539",39,"1_19",1,1,1,4,0,NA,NA
"1540",39,"1_20",1,1,1,4,0,NA,NA
"1541",39,"1_21",1,1,1,4,1,NA,NA
"1542",39,"1_22",1,1,1,4,1,NA,NA
"1543",39,"1_23",1,1,1,4,1,NA,NA
"1544",39,"1_24",1,1,1,4,1,NA,NA
"1545",39,"1_25",1,1,1,3,1,NA,NA
"1546",39,"1_26",1,1,1,4,1,NA,NA
"1547",39,"1_27",1,1,1,4,1,NA,NA
"1548",39,"1_28",1,1,1,3,1,NA,NA
"1549",39,"1_29",1,1,1,4,1,NA,NA
"1550",39,"1_30",1,1,1,6,1,NA,NA
"1551",39,"1_31",1,1,1,4,1,NA,NA
"1552",39,"1_32",1,1,1,1,1,NA,NA
"1553",39,"1_33",1,1,1,4,1,NA,NA
"1554",39,"1_34",1,1,1,4,1,NA,NA
"1555",39,"1_35",1,1,1,5,1,NA,NA
"1556",39,"1_36",1,1,1,4,1,NA,NA
"1557",39,"1_37",1,1,1,4,1,NA,NA
"1558",39,"1_38",1,1,1,6,1,NA,NA
"1559",39,"1_39",1,1,1,3,1,NA,NA
"1560",39,"1_40",1,1,1,4,1,NA,NA
"1561",40,"1_1",1,1,1,5,1,NA,NA
"1562",40,"1_2",1,1,1,2,1,NA,NA
"1563",40,"1_3",1,1,1,3,1,NA,NA
"1564",40,"1_4",1,1,1,3,1,NA,NA
"1565",40,"1_5",1,1,1,6,1,NA,NA
"1566",40,"1_6",1,1,1,3,1,NA,NA
"1567",40,"1_7",1,1,1,6,1,NA,NA
"1568",40,"1_8",1,1,1,4,1,NA,NA
"1569",40,"1_9",1,1,1,4,1,NA,NA
"1570",40,"1_10",1,1,1,4,1,NA,NA
"1571",40,"1_11",1,1,1,5,1,NA,NA
"1572",40,"1_12",1,1,1,6,1,NA,NA
"1573",40,"1_13",1,1,1,4,1,NA,NA
"1574",40,"1_14",1,1,1,1,1,NA,NA
"1575",40,"1_15",1,1,1,3,1,NA,NA
"1576",40,"1_16",1,1,1,5,1,NA,NA
"1577",40,"1_17",1,1,1,4,1,NA,NA
"1578",40,"1_18",1,1,1,4,1,NA,NA
"1579",40,"1_19",1,1,1,4,1,NA,NA
"1580",40,"1_20",1,1,1,4,1,NA,NA
"1581",40,"1_21",1,1,1,3,0,NA,NA
"1582",40,"1_22",1,1,1,6,0,NA,NA
"1583",40,"1_23",1,1,1,5,0,NA,NA
"1584",40,"1_24",1,1,1,2,0,NA,NA
"1585",40,"1_25",1,1,1,1,0,NA,NA
"1586",40,"1_26",1,1,1,1,0,NA,NA
"1587",40,"1_27",1,1,1,3,0,NA,NA
"1588",40,"1_28",1,1,1,3,0,NA,NA
"1589",40,"1_29",1,1,1,4,0,NA,NA
"1590",40,"1_30",1,1,1,1,0,NA,NA
"1591",40,"1_31",1,1,1,4,0,NA,NA
"1592",40,"1_32",1,1,1,5,0,NA,NA
"1593",40,"1_33",1,1,1,4,0,NA,NA
"1594",40,"1_34",1,1,1,2,0,NA,NA
"1595",40,"1_35",1,1,1,3,0,NA,NA
"1596",40,"1_36",1,1,1,3,0,NA,NA
"1597",40,"1_37",1,1,1,1,0,NA,NA
"1598",40,"1_38",1,1,1,5,0,NA,NA
"1599",40,"1_39",1,1,1,3,0,NA,NA
"1600",40,"1_40",1,1,1,1,0,NA,NA
"1601",41,"1_1",1,1,1,6,0,NA,NA
"1602",41,"1_2",1,1,1,6,0,NA,NA
"1603",41,"1_3",1,1,1,3,0,NA,NA
"1604",41,"1_4",1,1,1,3,0,NA,NA
"1605",41,"1_5",1,1,1,6,0,NA,NA
"1606",41,"1_6",1,1,1,2,0,NA,NA
"1607",41,"1_7",1,1,1,6,0,NA,NA
"1608",41,"1_8",1,1,1,1,0,NA,NA
"1609",41,"1_9",1,1,1,4,0,NA,NA
"1610",41,"1_10",1,1,1,5,0,NA,NA
"1611",41,"1_11",1,1,1,1,0,NA,NA
"1612",41,"1_12",1,1,1,4,0,NA,NA
"1613",41,"1_13",1,1,1,3,0,NA,NA
"1614",41,"1_14",1,1,1,1,0,NA,NA
"1615",41,"1_15",1,1,1,4,0,NA,NA
"1616",41,"1_16",1,1,1,3,0,NA,NA
"1617",41,"1_17",1,1,1,4,0,NA,NA
"1618",41,"1_18",1,1,1,3,0,NA,NA
"1619",41,"1_19",1,1,1,5,0,NA,NA
"1620",41,"1_20",1,1,1,4,0,NA,NA
"1621",41,"1_21",1,1,1,4,1,NA,NA
"1622",41,"1_22",1,1,1,6,1,NA,NA
"1623",41,"1_23",1,1,1,4,1,NA,NA
"1624",41,"1_24",1,1,1,3,1,NA,NA
"1625",41,"1_25",1,1,1,5,1,NA,NA
"1626",41,"1_26",1,1,1,3,1,NA,NA
"1627",41,"1_27",1,1,1,4,1,NA,NA
"1628",41,"1_28",1,1,1,5,1,NA,NA
"1629",41,"1_29",1,1,1,4,1,NA,NA
"1630",41,"1_30",1,1,1,3,1,NA,NA
"1631",41,"1_31",1,1,1,4,1,NA,NA
"1632",41,"1_32",1,1,1,4,1,NA,NA
"1633",41,"1_33",1,1,1,4,1,NA,NA
"1634",41,"1_34",1,1,1,3,1,NA,NA
"1635",41,"1_35",1,1,1,4,1,NA,NA
"1636",41,"1_36",1,1,1,4,1,NA,NA
"1637",41,"1_37",1,1,1,2,1,NA,NA
"1638",41,"1_38",1,1,1,4,1,NA,NA
"1639",41,"1_39",1,1,1,4,1,NA,NA
"1640",41,"1_40",1,1,1,5,1,NA,NA
"1641",42,"1_1",1,1,1,5,1,NA,NA
"1642",42,"1_2",1,1,1,5,1,NA,NA
"1643",42,"1_3",1,1,1,3,1,NA,NA
"1644",42,"1_4",1,1,1,5,1,NA,NA
"1645",42,"1_5",1,1,1,4,1,NA,NA
"1646",42,"1_6",1,1,1,4,1,NA,NA
"1647",42,"1_7",1,1,1,6,1,NA,NA
"1648",42,"1_8",1,1,1,2,1,NA,NA
"1649",42,"1_9",1,1,1,4,1,NA,NA
"1650",42,"1_10",1,1,1,6,1,NA,NA
"1651",42,"1_11",1,1,1,5,1,NA,NA
"1652",42,"1_12",1,1,1,1,1,NA,NA
"1653",42,"1_13",1,1,1,3,1,NA,NA
"1654",42,"1_14",1,1,1,4,1,NA,NA
"1655",42,"1_15",1,1,1,3,1,NA,NA
"1656",42,"1_16",1,1,1,4,1,NA,NA
"1657",42,"1_17",1,1,1,5,1,NA,NA
"1658",42,"1_18",1,1,1,4,1,NA,NA
"1659",42,"1_19",1,1,1,3,1,NA,NA
"1660",42,"1_20",1,1,1,4,1,NA,NA
"1661",42,"1_21",1,1,1,4,0,NA,NA
"1662",42,"1_22",1,1,1,6,0,NA,NA
"1663",42,"1_23",1,1,1,5,0,NA,NA
"1664",42,"1_24",1,1,1,3,0,NA,NA
"1665",42,"1_25",1,1,1,1,0,NA,NA
"1666",42,"1_26",1,1,1,1,0,NA,NA
"1667",42,"1_27",1,1,1,3,0,NA,NA
"1668",42,"1_28",1,1,1,3,0,NA,NA
"1669",42,"1_29",1,1,1,3,0,NA,NA
"1670",42,"1_30",1,1,1,3,0,NA,NA
"1671",42,"1_31",1,1,1,4,0,NA,NA
"1672",42,"1_32",1,1,1,3,0,NA,NA
"1673",42,"1_33",1,1,1,4,0,NA,NA
"1674",42,"1_34",1,1,1,2,0,NA,NA
"1675",42,"1_35",1,1,1,4,0,NA,NA
"1676",42,"1_36",1,1,1,4,0,NA,NA
"1677",42,"1_37",1,1,1,4,0,NA,NA
"1678",42,"1_38",1,1,1,3,0,NA,NA
"1679",42,"1_39",1,1,1,1,0,NA,NA
"1680",42,"1_40",1,1,1,4,0,NA,NA
"1681",43,"1_1",1,1,1,3,0,NA,NA
"1682",43,"1_2",1,1,1,5,0,NA,NA
"1683",43,"1_3",1,1,1,5,0,NA,NA
"1684",43,"1_4",1,1,1,3,0,NA,NA
"1685",43,"1_5",1,1,1,4,0,NA,NA
"1686",43,"1_6",1,1,1,3,0,NA,NA
"1687",43,"1_7",1,1,1,6,0,NA,NA
"1688",43,"1_8",1,1,1,1,0,NA,NA
"1689",43,"1_9",1,1,1,4,0,NA,NA
"1690",43,"1_10",1,1,1,6,0,NA,NA
"1691",43,"1_11",1,1,1,6,0,NA,NA
"1692",43,"1_12",1,1,1,6,0,NA,NA
"1693",43,"1_13",1,1,1,1,0,NA,NA
"1694",43,"1_14",1,1,1,3,0,NA,NA
"1695",43,"1_15",1,1,1,2,0,NA,NA
"1696",43,"1_16",1,1,1,2,0,NA,NA
"1697",43,"1_17",1,1,1,1,0,NA,NA
"1698",43,"1_18",1,1,1,4,0,NA,NA
"1699",43,"1_19",1,1,1,6,0,NA,NA
"1700",43,"1_20",1,1,1,1,0,NA,NA
"1701",43,"1_21",1,1,1,6,1,NA,NA
"1702",43,"1_22",1,1,1,6,1,NA,NA
"1703",43,"1_23",1,1,1,6,1,NA,NA
"1704",43,"1_24",1,1,1,6,1,NA,NA
"1705",43,"1_25",1,1,1,6,1,NA,NA
"1706",43,"1_26",1,1,1,6,1,NA,NA
"1707",43,"1_27",1,1,1,5,1,NA,NA
"1708",43,"1_28",1,1,1,6,1,NA,NA
"1709",43,"1_29",1,1,1,6,1,NA,NA
"1710",43,"1_30",1,1,1,6,1,NA,NA
"1711",43,"1_31",1,1,1,6,1,NA,NA
"1712",43,"1_32",1,1,1,6,1,NA,NA
"1713",43,"1_33",1,1,1,6,1,NA,NA
"1714",43,"1_34",1,1,1,6,1,NA,NA
"1715",43,"1_35",1,1,1,6,1,NA,NA
"1716",43,"1_36",1,1,1,6,1,NA,NA
"1717",43,"1_37",1,1,1,5,1,NA,NA
"1718",43,"1_38",1,1,1,6,1,NA,NA
"1719",43,"1_39",1,1,1,6,1,NA,NA
"1720",43,"1_40",1,1,1,6,1,NA,NA
"1721",44,"1_1",1,1,1,5,1,NA,NA
"1722",44,"1_2",1,1,1,4,1,NA,NA
"1723",44,"1_3",1,1,1,6,1,NA,NA
"1724",44,"1_4",1,1,1,4,1,NA,NA
"1725",44,"1_5",1,1,1,4,1,NA,NA
"1726",44,"1_6",1,1,1,1,1,NA,NA
"1727",44,"1_7",1,1,1,2,1,NA,NA
"1728",44,"1_8",1,1,1,5,1,NA,NA
"1729",44,"1_9",1,1,1,6,1,NA,NA
"1730",44,"1_10",1,1,1,6,1,NA,NA
"1731",44,"1_11",1,1,1,6,1,NA,NA
"1732",44,"1_12",1,1,1,3,1,NA,NA
"1733",44,"1_13",1,1,1,5,1,NA,NA
"1734",44,"1_14",1,1,1,5,1,NA,NA
"1735",44,"1_15",1,1,1,6,1,NA,NA
"1736",44,"1_16",1,1,1,6,1,NA,NA
"1737",44,"1_17",1,1,1,6,1,NA,NA
"1738",44,"1_18",1,1,1,4,1,NA,NA
"1739",44,"1_19",1,1,1,4,1,NA,NA
"1740",44,"1_20",1,1,1,6,1,NA,NA
"1741",44,"1_21",1,1,1,5,0,NA,NA
"1742",44,"1_22",1,1,1,4,0,NA,NA
"1743",44,"1_23",1,1,1,6,0,NA,NA
"1744",44,"1_24",1,1,1,3,0,NA,NA
"1745",44,"1_25",1,1,1,3,0,NA,NA
"1746",44,"1_26",1,1,1,6,0,NA,NA
"1747",44,"1_27",1,1,1,5,0,NA,NA
"1748",44,"1_28",1,1,1,6,0,NA,NA
"1749",44,"1_29",1,1,1,5,0,NA,NA
"1750",44,"1_30",1,1,1,3,0,NA,NA
"1751",44,"1_31",1,1,1,4,0,NA,NA
"1752",44,"1_32",1,1,1,4,0,NA,NA
"1753",44,"1_33",1,1,1,3,0,NA,NA
"1754",44,"1_34",1,1,1,4,0,NA,NA
"1755",44,"1_35",1,1,1,6,0,NA,NA
"1756",44,"1_36",1,1,1,3,0,NA,NA
"1757",44,"1_37",1,1,1,6,0,NA,NA
"1758",44,"1_38",1,1,1,6,0,NA,NA
"1759",44,"1_39",1,1,1,2,0,NA,NA
"1760",44,"1_40",1,1,1,6,0,NA,NA
"1761",45,"1_1",1,1,1,5,1,NA,NA
"1762",45,"1_2",1,1,1,2,1,NA,NA
"1763",45,"1_3",1,1,1,5,1,NA,NA
"1764",45,"1_4",1,1,1,6,1,NA,NA
"1765",45,"1_5",1,1,1,5,1,NA,NA
"1766",45,"1_6",1,1,1,3,1,NA,NA
"1767",45,"1_7",1,1,1,6,1,NA,NA
"1768",45,"1_8",1,1,1,4,1,NA,NA
"1769",45,"1_9",1,1,1,3,1,NA,NA
"1770",45,"1_10",1,1,1,6,1,NA,NA
"1771",45,"1_11",1,1,1,6,1,NA,NA
"1772",45,"1_12",1,1,1,6,1,NA,NA
"1773",45,"1_13",1,1,1,3,1,NA,NA
"1774",45,"1_14",1,1,1,6,1,NA,NA
"1775",45,"1_15",1,1,1,3,1,NA,NA
"1776",45,"1_16",1,1,1,6,1,NA,NA
"1777",45,"1_17",1,1,1,4,1,NA,NA
"1778",45,"1_18",1,1,1,3,1,NA,NA
"1779",45,"1_19",1,1,1,5,1,NA,NA
"1780",45,"1_20",1,1,1,3,1,NA,NA
"1781",45,"1_21",1,1,1,3,0,NA,NA
"1782",45,"1_22",1,1,1,6,0,NA,NA
"1783",45,"1_23",1,1,1,5,0,NA,NA
"1784",45,"1_24",1,1,1,3,0,NA,NA
"1785",45,"1_25",1,1,1,1,0,NA,NA
"1786",45,"1_26",1,1,1,3,0,NA,NA
"1787",45,"1_27",1,1,1,3,0,NA,NA
"1788",45,"1_28",1,1,1,5,0,NA,NA
"1789",45,"1_29",1,1,1,3,0,NA,NA
"1790",45,"1_30",1,1,1,3,0,NA,NA
"1791",45,"1_31",1,1,1,3,0,NA,NA
"1792",45,"1_32",1,1,1,5,0,NA,NA
"1793",45,"1_33",1,1,1,3,0,NA,NA
"1794",45,"1_34",1,1,1,3,0,NA,NA
"1795",45,"1_35",1,1,1,4,0,NA,NA
"1796",45,"1_36",1,1,1,3,0,NA,NA
"1797",45,"1_37",1,1,1,4,0,NA,NA
"1798",45,"1_38",1,1,1,4,0,NA,NA
"1799",45,"1_39",1,1,1,1,0,NA,NA
"1800",45,"1_40",1,1,1,3,0,NA,NA
"1801",46,"1_1",1,1,1,4,0,NA,NA
"1802",46,"1_2",1,1,1,5,0,NA,NA
"1803",46,"1_3",1,1,1,2,0,NA,NA
"1804",46,"1_4",1,1,1,4,0,NA,NA
"1805",46,"1_5",1,1,1,3,0,NA,NA
"1806",46,"1_6",1,1,1,3,0,NA,NA
"1807",46,"1_7",1,1,1,5,0,NA,NA
"1808",46,"1_8",1,1,1,4,0,NA,NA
"1809",46,"1_9",1,1,1,3,0,NA,NA
"1810",46,"1_10",1,1,1,4,0,NA,NA
"1811",46,"1_11",1,1,1,5,0,NA,NA
"1812",46,"1_12",1,1,1,3,0,NA,NA
"1813",46,"1_13",1,1,1,4,0,NA,NA
"1814",46,"1_14",1,1,1,3,0,NA,NA
"1815",46,"1_15",1,1,1,4,0,NA,NA
"1816",46,"1_16",1,1,1,5,0,NA,NA
"1817",46,"1_17",1,1,1,4,0,NA,NA
"1818",46,"1_18",1,1,1,4,0,NA,NA
"1819",46,"1_19",1,1,1,4,0,NA,NA
"1820",46,"1_20",1,1,1,3,0,NA,NA
"1821",46,"1_21",1,1,1,4,1,NA,NA
"1822",46,"1_22",1,1,1,4,1,NA,NA
"1823",46,"1_23",1,1,1,4,1,NA,NA
"1824",46,"1_24",1,1,1,4,1,NA,NA
"1825",46,"1_25",1,1,1,5,1,NA,NA
"1826",46,"1_26",1,1,1,4,1,NA,NA
"1827",46,"1_27",1,1,1,4,1,NA,NA
"1828",46,"1_28",1,1,1,4,1,NA,NA
"1829",46,"1_29",1,1,1,5,1,NA,NA
"1830",46,"1_30",1,1,1,4,1,NA,NA
"1831",46,"1_31",1,1,1,4,1,NA,NA
"1832",46,"1_32",1,1,1,5,1,NA,NA
"1833",46,"1_33",1,1,1,4,1,NA,NA
"1834",46,"1_34",1,1,1,2,1,NA,NA
"1835",46,"1_35",1,1,1,4,1,NA,NA
"1836",46,"1_36",1,1,1,4,1,NA,NA
"1837",46,"1_37",1,1,1,4,1,NA,NA
"1838",46,"1_38",1,1,1,4,1,NA,NA
"1839",46,"1_39",1,1,1,3,1,NA,NA
"1840",46,"1_40",1,1,1,4,1,NA,NA
"1841",47,"1_1",1,1,1,3,1,NA,NA
"1842",47,"1_2",1,1,1,3,1,NA,NA
"1843",47,"1_3",1,1,1,1,1,NA,NA
"1844",47,"1_4",1,1,1,5,1,NA,NA
"1845",47,"1_5",1,1,1,1,1,NA,NA
"1846",47,"1_6",1,1,1,3,1,NA,NA
"1847",47,"1_7",1,1,1,6,1,NA,NA
"1848",47,"1_8",1,1,1,1,1,NA,NA
"1849",47,"1_9",1,1,1,3,1,NA,NA
"1850",47,"1_10",1,1,1,4,1,NA,NA
"1851",47,"1_11",1,1,1,6,1,NA,NA
"1852",47,"1_12",1,1,1,4,1,NA,NA
"1853",47,"1_13",1,1,1,3,1,NA,NA
"1854",47,"1_14",1,1,1,3,1,NA,NA
"1855",47,"1_15",1,1,1,3,1,NA,NA
"1856",47,"1_16",1,1,1,6,1,NA,NA
"1857",47,"1_17",1,1,1,2,1,NA,NA
"1858",47,"1_18",1,1,1,4,1,NA,NA
"1859",47,"1_19",1,1,1,4,1,NA,NA
"1860",47,"1_20",1,1,1,3,1,NA,NA
"1861",47,"1_21",1,1,1,6,0,NA,NA
"1862",47,"1_22",1,1,1,4,0,NA,NA
"1863",47,"1_23",1,1,1,6,0,NA,NA
"1864",47,"1_24",1,1,1,3,0,NA,NA
"1865",47,"1_25",1,1,1,6,0,NA,NA
"1866",47,"1_26",1,1,1,6,0,NA,NA
"1867",47,"1_27",1,1,1,3,0,NA,NA
"1868",47,"1_28",1,1,1,4,0,NA,NA
"1869",47,"1_29",1,1,1,4,0,NA,NA
"1870",47,"1_30",1,1,1,3,0,NA,NA
"1871",47,"1_31",1,1,1,4,0,NA,NA
"1872",47,"1_32",1,1,1,6,0,NA,NA
"1873",47,"1_33",1,1,1,4,0,NA,NA
"1874",47,"1_34",1,1,1,1,0,NA,NA
"1875",47,"1_35",1,1,1,4,0,NA,NA
"1876",47,"1_36",1,1,1,3,0,NA,NA
"1877",47,"1_37",1,1,1,2,0,NA,NA
"1878",47,"1_38",1,1,1,5,0,NA,NA
"1879",47,"1_39",1,1,1,1,0,NA,NA
"1880",47,"1_40",1,1,1,2,0,NA,NA
"1881",48,"1_1",1,1,1,3,1,NA,NA
"1882",48,"1_2",1,1,1,5,1,NA,NA
"1883",48,"1_3",1,1,1,2,1,NA,NA
"1884",48,"1_4",1,1,1,5,1,NA,NA
"1885",48,"1_5",1,1,1,4,1,NA,NA
"1886",48,"1_6",1,1,1,4,1,NA,NA
"1887",48,"1_7",1,1,1,5,1,NA,NA
"1888",48,"1_8",1,1,1,2,1,NA,NA
"1889",48,"1_9",1,1,1,5,1,NA,NA
"1890",48,"1_10",1,1,1,5,1,NA,NA
"1891",48,"1_11",1,1,1,5,1,NA,NA
"1892",48,"1_12",1,1,1,4,1,NA,NA
"1893",48,"1_13",1,1,1,5,1,NA,NA
"1894",48,"1_14",1,1,1,5,1,NA,NA
"1895",48,"1_15",1,1,1,4,1,NA,NA
"1896",48,"1_16",1,1,1,5,1,NA,NA
"1897",48,"1_17",1,1,1,4,1,NA,NA
"1898",48,"1_18",1,1,1,3,1,NA,NA
"1899",48,"1_19",1,1,1,5,1,NA,NA
"1900",48,"1_20",1,1,1,3,1,NA,NA
"1901",48,"1_21",1,1,1,3,0,NA,NA
"1902",48,"1_22",1,1,1,6,0,NA,NA
"1903",48,"1_23",1,1,1,5,0,NA,NA
"1904",48,"1_24",1,1,1,2,0,NA,NA
"1905",48,"1_25",1,1,1,2,0,NA,NA
"1906",48,"1_26",1,1,1,5,0,NA,NA
"1907",48,"1_27",1,1,1,5,0,NA,NA
"1908",48,"1_28",1,1,1,5,0,NA,NA
"1909",48,"1_29",1,1,1,2,0,NA,NA
"1910",48,"1_30",1,1,1,2,0,NA,NA
"1911",48,"1_31",1,1,1,3,0,NA,NA
"1912",48,"1_32",1,1,1,6,0,NA,NA
"1913",48,"1_33",1,1,1,5,0,NA,NA
"1914",48,"1_34",1,1,1,1,0,NA,NA
"1915",48,"1_35",1,1,1,5,0,NA,NA
"1916",48,"1_36",1,1,1,3,0,NA,NA
"1917",48,"1_37",1,1,1,5,0,NA,NA
"1918",48,"1_38",1,1,1,5,0,NA,NA
"1919",48,"1_39",1,1,1,1,0,NA,NA
"1920",48,"1_40",1,1,1,3,0,NA,NA
"1921",49,"1_1",1,1,1,3,0,NA,NA
"1922",49,"1_2",1,1,1,5,0,NA,NA
"1923",49,"1_3",1,1,1,3,0,NA,NA
"1924",49,"1_4",1,1,1,4,0,NA,NA
"1925",49,"1_5",1,1,1,3,0,NA,NA
"1926",49,"1_6",1,1,1,2,0,NA,NA
"1927",49,"1_7",1,1,1,4,0,NA,NA
"1928",49,"1_8",1,1,1,5,0,NA,NA
"1929",49,"1_9",1,1,1,4,0,NA,NA
"1930",49,"1_10",1,1,1,4,0,NA,NA
"1931",49,"1_11",1,1,1,1,0,NA,NA
"1932",49,"1_12",1,1,1,6,0,NA,NA
"1933",49,"1_13",1,1,1,4,0,NA,NA
"1934",49,"1_14",1,1,1,4,0,NA,NA
"1935",49,"1_15",1,1,1,3,0,NA,NA
"1936",49,"1_16",1,1,1,5,0,NA,NA
"1937",49,"1_17",1,1,1,4,0,NA,NA
"1938",49,"1_18",1,1,1,4,0,NA,NA
"1939",49,"1_19",1,1,1,5,0,NA,NA
"1940",49,"1_20",1,1,1,4,0,NA,NA
"1941",49,"1_21",1,1,1,5,1,NA,NA
"1942",49,"1_22",1,1,1,6,1,NA,NA
"1943",49,"1_23",1,1,1,5,1,NA,NA
"1944",49,"1_24",1,1,1,4,1,NA,NA
"1945",49,"1_25",1,1,1,6,1,NA,NA
"1946",49,"1_26",1,1,1,4,1,NA,NA
"1947",49,"1_27",1,1,1,4,1,NA,NA
"1948",49,"1_28",1,1,1,4,1,NA,NA
"1949",49,"1_29",1,1,1,5,1,NA,NA
"1950",49,"1_30",1,1,1,4,1,NA,NA
"1951",49,"1_31",1,1,1,4,1,NA,NA
"1952",49,"1_32",1,1,1,5,1,NA,NA
"1953",49,"1_33",1,1,1,5,1,NA,NA
"1954",49,"1_34",1,1,1,5,1,NA,NA
"1955",49,"1_35",1,1,1,5,1,NA,NA
"1956",49,"1_36",1,1,1,4,1,NA,NA
"1957",49,"1_37",1,1,1,4,1,NA,NA
"1958",49,"1_38",1,1,1,6,1,NA,NA
"1959",49,"1_39",1,1,1,4,1,NA,NA
"1960",49,"1_40",1,1,1,5,1,NA,NA
"1961",50,"1_1",1,1,1,3,0,NA,NA
"1962",50,"1_2",1,1,1,2,0,NA,NA
"1963",50,"1_3",1,1,1,2,0,NA,NA
"1964",50,"1_4",1,1,1,3,0,NA,NA
"1965",50,"1_5",1,1,1,5,0,NA,NA
"1966",50,"1_6",1,1,1,3,0,NA,NA
"1967",50,"1_7",1,1,1,6,0,NA,NA
"1968",50,"1_8",1,1,1,3,0,NA,NA
"1969",50,"1_9",1,1,1,2,0,NA,NA
"1970",50,"1_10",1,1,1,6,0,NA,NA
"1971",50,"1_11",1,1,1,6,0,NA,NA
"1972",50,"1_12",1,1,1,1,0,NA,NA
"1973",50,"1_13",1,1,1,4,0,NA,NA
"1974",50,"1_14",1,1,1,3,0,NA,NA
"1975",50,"1_15",1,1,1,5,0,NA,NA
"1976",50,"1_16",1,1,1,4,0,NA,NA
"1977",50,"1_17",1,1,1,5,0,NA,NA
"1978",50,"1_18",1,1,1,3,0,NA,NA
"1979",50,"1_19",1,1,1,5,0,NA,NA
"1980",50,"1_20",1,1,1,4,0,NA,NA
"1981",50,"1_21",1,1,1,3,1,NA,NA
"1982",50,"1_22",1,1,1,3,1,NA,NA
"1983",50,"1_23",1,1,1,5,1,NA,NA
"1984",50,"1_24",1,1,1,4,1,NA,NA
"1985",50,"1_25",1,1,1,1,1,NA,NA
"1986",50,"1_26",1,1,1,6,1,NA,NA
"1987",50,"1_27",1,1,1,4,1,NA,NA
"1988",50,"1_28",1,1,1,6,1,NA,NA
"1989",50,"1_29",1,1,1,1,1,NA,NA
"1990",50,"1_30",1,1,1,4,1,NA,NA
"1991",50,"1_31",1,1,1,5,1,NA,NA
"1992",50,"1_32",1,1,1,6,1,NA,NA
"1993",50,"1_33",1,1,1,4,1,NA,NA
"1994",50,"1_34",1,1,1,4,1,NA,NA
"1995",50,"1_35",1,1,1,5,1,NA,NA
"1996",50,"1_36",1,1,1,3,1,NA,NA
"1997",50,"1_37",1,1,1,5,1,NA,NA
"1998",50,"1_38",1,1,1,5,1,NA,NA
"1999",50,"1_39",1,1,1,2,1,NA,NA
"2000",50,"1_40",1,1,1,1,1,NA,NA
"2001",51,"1_1",1,1,1,3,1,NA,NA
"2002",51,"1_2",1,1,1,2,1,NA,NA
"2003",51,"1_3",1,1,1,2,1,NA,NA
"2004",51,"1_4",1,1,1,3,1,NA,NA
"2005",51,"1_5",1,1,1,4,1,NA,NA
"2006",51,"1_6",1,1,1,3,1,NA,NA
"2007",51,"1_7",1,1,1,3,1,NA,NA
"2008",51,"1_8",1,1,1,1,1,NA,NA
"2009",51,"1_9",1,1,1,4,1,NA,NA
"2010",51,"1_10",1,1,1,3,1,NA,NA
"2011",51,"1_11",1,1,1,2,1,NA,NA
"2012",51,"1_12",1,1,1,4,1,NA,NA
"2013",51,"1_13",1,1,1,4,1,NA,NA
"2014",51,"1_14",1,1,1,3,1,NA,NA
"2015",51,"1_15",1,1,1,4,1,NA,NA
"2016",51,"1_16",1,1,1,4,1,NA,NA
"2017",51,"1_17",1,1,1,3,1,NA,NA
"2018",51,"1_18",1,1,1,3,1,NA,NA
"2019",51,"1_19",1,1,1,3,1,NA,NA
"2020",51,"1_20",1,1,1,4,1,NA,NA
"2021",51,"1_21",1,1,1,3,0,NA,NA
"2022",51,"1_22",1,1,1,2,0,NA,NA
"2023",51,"1_23",1,1,1,6,0,NA,NA
"2024",51,"1_24",1,1,1,3,0,NA,NA
"2025",51,"1_25",1,1,1,1,0,NA,NA
"2026",51,"1_26",1,1,1,3,0,NA,NA
"2027",51,"1_27",1,1,1,3,0,NA,NA
"2028",51,"1_28",1,1,1,2,0,NA,NA
"2029",51,"1_29",1,1,1,3,0,NA,NA
"2030",51,"1_30",1,1,1,3,0,NA,NA
"2031",51,"1_31",1,1,1,3,0,NA,NA
"2032",51,"1_32",1,1,1,6,0,NA,NA
"2033",51,"1_33",1,1,1,2,0,NA,NA
"2034",51,"1_34",1,1,1,3,0,NA,NA
"2035",51,"1_35",1,1,1,3,0,NA,NA
"2036",51,"1_36",1,1,1,3,0,NA,NA
"2037",51,"1_37",1,1,1,3,0,NA,NA
"2038",51,"1_38",1,1,1,4,0,NA,NA
"2039",51,"1_39",1,1,1,2,0,NA,NA
"2040",51,"1_40",1,1,1,3,0,NA,NA
"2041",52,"1_1",1,1,1,2,0,NA,NA
"2042",52,"1_2",1,1,1,1,0,NA,NA
"2043",52,"1_3",1,1,1,1,0,NA,NA
"2044",52,"1_4",1,1,1,5,0,NA,NA
"2045",52,"1_5",1,1,1,3,0,NA,NA
"2046",52,"1_6",1,1,1,3,0,NA,NA
"2047",52,"1_7",1,1,1,5,0,NA,NA
"2048",52,"1_8",1,1,1,1,0,NA,NA
"2049",52,"1_9",1,1,1,4,0,NA,NA
"2050",52,"1_10",1,1,1,5,0,NA,NA
"2051",52,"1_11",1,1,1,1,0,NA,NA
"2052",52,"1_12",1,1,1,5,0,NA,NA
"2053",52,"1_13",1,1,1,2,0,NA,NA
"2054",52,"1_14",1,1,1,4,0,NA,NA
"2055",52,"1_15",1,1,1,2,0,NA,NA
"2056",52,"1_16",1,1,1,5,0,NA,NA
"2057",52,"1_17",1,1,1,5,0,NA,NA
"2058",52,"1_18",1,1,1,4,0,NA,NA
"2059",52,"1_19",1,1,1,4,0,NA,NA
"2060",52,"1_20",1,1,1,2,0,NA,NA
"2061",52,"1_21",1,1,1,5,1,NA,NA
"2062",52,"1_22",1,1,1,5,1,NA,NA
"2063",52,"1_23",1,1,1,5,1,NA,NA
"2064",52,"1_24",1,1,1,5,1,NA,NA
"2065",52,"1_25",1,1,1,5,1,NA,NA
"2066",52,"1_26",1,1,1,5,1,NA,NA
"2067",52,"1_27",1,1,1,5,1,NA,NA
"2068",52,"1_28",1,1,1,5,1,NA,NA
"2069",52,"1_29",1,1,1,5,1,NA,NA
"2070",52,"1_30",1,1,1,5,1,NA,NA
"2071",52,"1_31",1,1,1,5,1,NA,NA
"2072",52,"1_32",1,1,1,5,1,NA,NA
"2073",52,"1_33",1,1,1,5,1,NA,NA
"2074",52,"1_34",1,1,1,5,1,NA,NA
"2075",52,"1_35",1,1,1,5,1,NA,NA
"2076",52,"1_36",1,1,1,5,1,NA,NA
"2077",52,"1_37",1,1,1,5,1,NA,NA
"2078",52,"1_38",1,1,1,5,1,NA,NA
"2079",52,"1_39",1,1,1,3,1,NA,NA
"2080",52,"1_40",1,1,1,5,1,NA,NA
"2081",53,"1_1",1,1,1,5,1,NA,NA
"2082",53,"1_2",1,1,1,5,1,NA,NA
"2083",53,"1_3",1,1,1,4,1,NA,NA
"2084",53,"1_4",1,1,1,4,1,NA,NA
"2085",53,"1_5",1,1,1,5,1,NA,NA
"2086",53,"1_6",1,1,1,4,1,NA,NA
"2087",53,"1_7",1,1,1,6,1,NA,NA
"2088",53,"1_8",1,1,1,6,1,NA,NA
"2089",53,"1_9",1,1,1,5,1,NA,NA
"2090",53,"1_10",1,1,1,6,1,NA,NA
"2091",53,"1_11",1,1,1,4,1,NA,NA
"2092",53,"1_12",1,1,1,4,1,NA,NA
"2093",53,"1_13",1,1,1,4,1,NA,NA
"2094",53,"1_14",1,1,1,4,1,NA,NA
"2095",53,"1_15",1,1,1,3,1,NA,NA
"2096",53,"1_16",1,1,1,4,1,NA,NA
"2097",53,"1_17",1,1,1,4,1,NA,NA
"2098",53,"1_18",1,1,1,4,1,NA,NA
"2099",53,"1_19",1,1,1,5,1,NA,NA
"2100",53,"1_20",1,1,1,4,1,NA,NA
"2101",53,"1_21",1,1,1,1,0,NA,NA
"2102",53,"1_22",1,1,1,6,0,NA,NA
"2103",53,"1_23",1,1,1,6,0,NA,NA
"2104",53,"1_24",1,1,1,4,0,NA,NA
"2105",53,"1_25",1,1,1,6,0,NA,NA
"2106",53,"1_26",1,1,1,4,0,NA,NA
"2107",53,"1_27",1,1,1,4,0,NA,NA
"2108",53,"1_28",1,1,1,3,0,NA,NA
"2109",53,"1_29",1,1,1,3,0,NA,NA
"2110",53,"1_30",1,1,1,3,0,NA,NA
"2111",53,"1_31",1,1,1,3,0,NA,NA
"2112",53,"1_32",1,1,1,2,0,NA,NA
"2113",53,"1_33",1,1,1,4,0,NA,NA
"2114",53,"1_34",1,1,1,3,0,NA,NA
"2115",53,"1_35",1,1,1,4,0,NA,NA
"2116",53,"1_36",1,1,1,4,0,NA,NA
"2117",53,"1_37",1,1,1,4,0,NA,NA
"2118",53,"1_38",1,1,1,5,0,NA,NA
"2119",53,"1_39",1,1,1,1,0,NA,NA
"2120",53,"1_40",1,1,1,3,0,NA,NA
"2121",54,"1_1",1,1,1,4,1,NA,NA
"2122",54,"1_2",1,1,1,1,1,NA,NA
"2123",54,"1_3",1,1,1,2,1,NA,NA
"2124",54,"1_4",1,1,1,5,1,NA,NA
"2125",54,"1_5",1,1,1,2,1,NA,NA
"2126",54,"1_6",1,1,1,3,1,NA,NA
"2127",54,"1_7",1,1,1,4,1,NA,NA
"2128",54,"1_8",1,1,1,1,1,NA,NA
"2129",54,"1_9",1,1,1,5,1,NA,NA
"2130",54,"1_10",1,1,1,3,1,NA,NA
"2131",54,"1_11",1,1,1,6,1,NA,NA
"2132",54,"1_12",1,1,1,6,1,NA,NA
"2133",54,"1_13",1,1,1,4,1,NA,NA
"2134",54,"1_14",1,1,1,3,1,NA,NA
"2135",54,"1_15",1,1,1,5,1,NA,NA
"2136",54,"1_16",1,1,1,6,1,NA,NA
"2137",54,"1_17",1,1,1,4,1,NA,NA
"2138",54,"1_18",1,1,1,4,1,NA,NA
"2139",54,"1_19",1,1,1,5,1,NA,NA
"2140",54,"1_20",1,1,1,2,1,NA,NA
"2141",54,"1_21",1,1,1,3,0,NA,NA
"2142",54,"1_22",1,1,1,2,0,NA,NA
"2143",54,"1_23",1,1,1,6,0,NA,NA
"2144",54,"1_24",1,1,1,4,0,NA,NA
"2145",54,"1_25",1,1,1,2,0,NA,NA
"2146",54,"1_26",1,1,1,4,0,NA,NA
"2147",54,"1_27",1,1,1,3,0,NA,NA
"2148",54,"1_28",1,1,1,5,0,NA,NA
"2149",54,"1_29",1,1,1,5,0,NA,NA
"2150",54,"1_30",1,1,1,2,0,NA,NA
"2151",54,"1_31",1,1,1,3,0,NA,NA
"2152",54,"1_32",1,1,1,6,0,NA,NA
"2153",54,"1_33",1,1,1,5,0,NA,NA
"2154",54,"1_34",1,1,1,4,0,NA,NA
"2155",54,"1_35",1,1,1,4,0,NA,NA
"2156",54,"1_36",1,1,1,4,0,NA,NA
"2157",54,"1_37",1,1,1,3,0,NA,NA
"2158",54,"1_38",1,1,1,6,0,NA,NA
"2159",54,"1_39",1,1,1,1,0,NA,NA
"2160",54,"1_40",1,1,1,3,0,NA,NA
"2161",55,"1_1",1,1,1,5,0,NA,NA
"2162",55,"1_2",1,1,1,4,0,NA,NA
"2163",55,"1_3",1,1,1,3,0,NA,NA
"2164",55,"1_4",1,1,1,3,0,NA,NA
"2165",55,"1_5",1,1,1,3,0,NA,NA
"2166",55,"1_6",1,1,1,3,0,NA,NA
"2167",55,"1_7",1,1,1,4,0,NA,NA
"2168",55,"1_8",1,1,1,6,0,NA,NA
"2169",55,"1_9",1,1,1,4,0,NA,NA
"2170",55,"1_10",1,1,1,3,0,NA,NA
"2171",55,"1_11",1,1,1,6,0,NA,NA
"2172",55,"1_12",1,1,1,6,0,NA,NA
"2173",55,"1_13",1,1,1,2,0,NA,NA
"2174",55,"1_14",1,1,1,2,0,NA,NA
"2175",55,"1_15",1,1,1,3,0,NA,NA
"2176",55,"1_16",1,1,1,4,0,NA,NA
"2177",55,"1_17",1,1,1,4,0,NA,NA
"2178",55,"1_18",1,1,1,3,0,NA,NA
"2179",55,"1_19",1,1,1,3,0,NA,NA
"2180",55,"1_20",1,1,1,3,0,NA,NA
"2181",55,"1_21",1,1,1,6,1,NA,NA
"2182",55,"1_22",1,1,1,6,1,NA,NA
"2183",55,"1_23",1,1,1,6,1,NA,NA
"2184",55,"1_24",1,1,1,6,1,NA,NA
"2185",55,"1_25",1,1,1,6,1,NA,NA
"2186",55,"1_26",1,1,1,6,1,NA,NA
"2187",55,"1_27",1,1,1,6,1,NA,NA
"2188",55,"1_28",1,1,1,6,1,NA,NA
"2189",55,"1_29",1,1,1,6,1,NA,NA
"2190",55,"1_30",1,1,1,6,1,NA,NA
"2191",55,"1_31",1,1,1,6,1,NA,NA
"2192",55,"1_32",1,1,1,6,1,NA,NA
"2193",55,"1_33",1,1,1,6,1,NA,NA
"2194",55,"1_34",1,1,1,6,1,NA,NA
"2195",55,"1_35",1,1,1,6,1,NA,NA
"2196",55,"1_36",1,1,1,6,1,NA,NA
"2197",55,"1_37",1,1,1,6,1,NA,NA
"2198",55,"1_38",1,1,1,6,1,NA,NA
"2199",55,"1_39",1,1,1,6,1,NA,NA
"2200",55,"1_40",1,1,1,6,1,NA,NA
"2201",56,"1_1",1,1,1,3,0,NA,NA
"2202",56,"1_2",1,1,1,3,0,NA,NA
"2203",56,"1_3",1,1,1,2,0,NA,NA
"2204",56,"1_4",1,1,1,3,0,NA,NA
"2205",56,"1_5",1,1,1,2,0,NA,NA
"2206",56,"1_6",1,1,1,3,0,NA,NA
"2207",56,"1_7",1,1,1,6,0,NA,NA
"2208",56,"1_8",1,1,1,1,0,NA,NA
"2209",56,"1_9",1,1,1,3,0,NA,NA
"2210",56,"1_10",1,1,1,5,0,NA,NA
"2211",56,"1_11",1,1,1,5,0,NA,NA
"2212",56,"1_12",1,1,1,3,0,NA,NA
"2213",56,"1_13",1,1,1,3,0,NA,NA
"2214",56,"1_14",1,1,1,3,0,NA,NA
"2215",56,"1_15",1,1,1,3,0,NA,NA
"2216",56,"1_16",1,1,1,4,0,NA,NA
"2217",56,"1_17",1,1,1,4,0,NA,NA
"2218",56,"1_18",1,1,1,3,0,NA,NA
"2219",56,"1_19",1,1,1,2,0,NA,NA
"2220",56,"1_20",1,1,1,3,0,NA,NA
"2221",56,"1_21",1,1,1,4,1,NA,NA
"2222",56,"1_22",1,1,1,4,1,NA,NA
"2223",56,"1_23",1,1,1,3,1,NA,NA
"2224",56,"1_24",1,1,1,3,1,NA,NA
"2225",56,"1_25",1,1,1,3,1,NA,NA
"2226",56,"1_26",1,1,1,2,1,NA,NA
"2227",56,"1_27",1,1,1,3,1,NA,NA
"2228",56,"1_28",1,1,1,3,1,NA,NA
"2229",56,"1_29",1,1,1,5,1,NA,NA
"2230",56,"1_30",1,1,1,3,1,NA,NA
"2231",56,"1_31",1,1,1,3,1,NA,NA
"2232",56,"1_32",1,1,1,4,1,NA,NA
"2233",56,"1_33",1,1,1,3,1,NA,NA
"2234",56,"1_34",1,1,1,2,1,NA,NA
"2235",56,"1_35",1,1,1,3,1,NA,NA
"2236",56,"1_36",1,1,1,3,1,NA,NA
"2237",56,"1_37",1,1,1,2,1,NA,NA
"2238",56,"1_38",1,1,1,4,1,NA,NA
"2239",56,"1_39",1,1,1,1,1,NA,NA
"2240",56,"1_40",1,1,1,1,1,NA,NA
"2241",57,"1_1",1,1,1,4,0,NA,NA
"2242",57,"1_2",1,1,1,6,0,NA,NA
"2243",57,"1_3",1,1,1,2,0,NA,NA
"2244",57,"1_4",1,1,1,2,0,NA,NA
"2245",57,"1_5",1,1,1,6,0,NA,NA
"2246",57,"1_6",1,1,1,3,0,NA,NA
"2247",57,"1_7",1,1,1,6,0,NA,NA
"2248",57,"1_8",1,1,1,1,0,NA,NA
"2249",57,"1_9",1,1,1,4,0,NA,NA
"2250",57,"1_10",1,1,1,6,0,NA,NA
"2251",57,"1_11",1,1,1,1,0,NA,NA
"2252",57,"1_12",1,1,1,6,0,NA,NA
"2253",57,"1_13",1,1,1,4,0,NA,NA
"2254",57,"1_14",1,1,1,2,0,NA,NA
"2255",57,"1_15",1,1,1,3,0,NA,NA
"2256",57,"1_16",1,1,1,5,0,NA,NA
"2257",57,"1_17",1,1,1,4,0,NA,NA
"2258",57,"1_18",1,1,1,4,0,NA,NA
"2259",57,"1_19",1,1,1,2,0,NA,NA
"2260",57,"1_20",1,1,1,3,0,NA,NA
"2261",57,"1_21",1,1,1,3,1,NA,NA
"2262",57,"1_22",1,1,1,6,1,NA,NA
"2263",57,"1_23",1,1,1,5,1,NA,NA
"2264",57,"1_24",1,1,1,4,1,NA,NA
"2265",57,"1_25",1,1,1,6,1,NA,NA
"2266",57,"1_26",1,1,1,5,1,NA,NA
"2267",57,"1_27",1,1,1,5,1,NA,NA
"2268",57,"1_28",1,1,1,6,1,NA,NA
"2269",57,"1_29",1,1,1,4,1,NA,NA
"2270",57,"1_30",1,1,1,4,1,NA,NA
"2271",57,"1_31",1,1,1,3,1,NA,NA
"2272",57,"1_32",1,1,1,4,1,NA,NA
"2273",57,"1_33",1,1,1,5,1,NA,NA
"2274",57,"1_34",1,1,1,1,1,NA,NA
"2275",57,"1_35",1,1,1,4,1,NA,NA
"2276",57,"1_36",1,1,1,4,1,NA,NA
"2277",57,"1_37",1,1,1,2,1,NA,NA
"2278",57,"1_38",1,1,1,5,1,NA,NA
"2279",57,"1_39",1,1,1,1,1,NA,NA
"2280",57,"1_40",1,1,1,4,1,NA,NA
"2281",58,"1_1",1,1,1,5,1,NA,NA
"2282",58,"1_2",1,1,1,6,1,NA,NA
"2283",58,"1_3",1,1,1,6,1,NA,NA
"2284",58,"1_4",1,1,1,6,1,NA,NA
"2285",58,"1_5",1,1,1,6,1,NA,NA
"2286",58,"1_6",1,1,1,6,1,NA,NA
"2287",58,"1_7",1,1,1,6,1,NA,NA
"2288",58,"1_8",1,1,1,6,1,NA,NA
"2289",58,"1_9",1,1,1,6,1,NA,NA
"2290",58,"1_10",1,1,1,6,1,NA,NA
"2291",58,"1_11",1,1,1,6,1,NA,NA
"2292",58,"1_12",1,1,1,6,1,NA,NA
"2293",58,"1_13",1,1,1,6,1,NA,NA
"2294",58,"1_14",1,1,1,6,1,NA,NA
"2295",58,"1_15",1,1,1,6,1,NA,NA
"2296",58,"1_16",1,1,1,6,1,NA,NA
"2297",58,"1_17",1,1,1,6,1,NA,NA
"2298",58,"1_18",1,1,1,6,1,NA,NA
"2299",58,"1_19",1,1,1,6,1,NA,NA
"2300",58,"1_20",1,1,1,6,1,NA,NA
"2301",58,"1_21",1,1,1,3,0,NA,NA
"2302",58,"1_22",1,1,1,3,0,NA,NA
"2303",58,"1_23",1,1,1,6,0,NA,NA
"2304",58,"1_24",1,1,1,4,0,NA,NA
"2305",58,"1_25",1,1,1,2,0,NA,NA
"2306",58,"1_26",1,1,1,4,0,NA,NA
"2307",58,"1_27",1,1,1,4,0,NA,NA
"2308",58,"1_28",1,1,1,3,0,NA,NA
"2309",58,"1_29",1,1,1,3,0,NA,NA
"2310",58,"1_30",1,1,1,3,0,NA,NA
"2311",58,"1_31",1,1,1,3,0,NA,NA
"2312",58,"1_32",1,1,1,6,0,NA,NA
"2313",58,"1_33",1,1,1,3,0,NA,NA
"2314",58,"1_34",1,1,1,3,0,NA,NA
"2315",58,"1_35",1,1,1,3,0,NA,NA
"2316",58,"1_36",1,1,1,4,0,NA,NA
"2317",58,"1_37",1,1,1,3,0,NA,NA
"2318",58,"1_38",1,1,1,4,0,NA,NA
"2319",58,"1_39",1,1,1,2,0,NA,NA
"2320",58,"1_40",1,1,1,3,0,NA,NA
"2321",59,"1_1",1,1,1,3,0,NA,NA
"2322",59,"1_2",1,1,1,5,0,NA,NA
"2323",59,"1_3",1,1,1,1,0,NA,NA
"2324",59,"1_4",1,1,1,5,0,NA,NA
"2325",59,"1_5",1,1,1,5,0,NA,NA
"2326",59,"1_6",1,1,1,4,0,NA,NA
"2327",59,"1_7",1,1,1,5,0,NA,NA
"2328",59,"1_8",1,1,1,2,0,NA,NA
"2329",59,"1_9",1,1,1,5,0,NA,NA
"2330",59,"1_10",1,1,1,2,0,NA,NA
"2331",59,"1_11",1,1,1,6,0,NA,NA
"2332",59,"1_12",1,1,1,6,0,NA,NA
"2333",59,"1_13",1,1,1,4,0,NA,NA
"2334",59,"1_14",1,1,1,3,0,NA,NA
"2335",59,"1_15",1,1,1,2,0,NA,NA
"2336",59,"1_16",1,1,1,6,0,NA,NA
"2337",59,"1_17",1,1,1,4,0,NA,NA
"2338",59,"1_18",1,1,1,5,0,NA,NA
"2339",59,"1_19",1,1,1,6,0,NA,NA
"2340",59,"1_20",1,1,1,3,0,NA,NA
"2341",59,"1_21",1,1,1,4,1,NA,NA
"2342",59,"1_22",1,1,1,3,1,NA,NA
"2343",59,"1_23",1,1,1,6,1,NA,NA
"2344",59,"1_24",1,1,1,3,1,NA,NA
"2345",59,"1_25",1,1,1,3,1,NA,NA
"2346",59,"1_26",1,1,1,5,1,NA,NA
"2347",59,"1_27",1,1,1,5,1,NA,NA
"2348",59,"1_28",1,1,1,6,1,NA,NA
"2349",59,"1_29",1,1,1,5,1,NA,NA
"2350",59,"1_30",1,1,1,4,1,NA,NA
"2351",59,"1_31",1,1,1,4,1,NA,NA
"2352",59,"1_32",1,1,1,4,1,NA,NA
"2353",59,"1_33",1,1,1,5,1,NA,NA
"2354",59,"1_34",1,1,1,5,1,NA,NA
"2355",59,"1_35",1,1,1,6,1,NA,NA
"2356",59,"1_36",1,1,1,4,1,NA,NA
"2357",59,"1_37",1,1,1,2,1,NA,NA
"2358",59,"1_38",1,1,1,5,1,NA,NA
"2359",59,"1_39",1,1,1,6,1,NA,NA
"2360",59,"1_40",1,1,1,6,1,NA,NA
"2361",60,"1_1",1,1,1,4,1,NA,NA
"2362",60,"1_2",1,1,1,5,1,NA,NA
"2363",60,"1_3",1,1,1,2,1,NA,NA
"2364",60,"1_4",1,1,1,5,1,NA,NA
"2365",60,"1_5",1,1,1,5,1,NA,NA
"2366",60,"1_6",1,1,1,4,1,NA,NA
"2367",60,"1_7",1,1,1,6,1,NA,NA
"2368",60,"1_8",1,1,1,3,1,NA,NA
"2369",60,"1_9",1,1,1,4,1,NA,NA
"2370",60,"1_10",1,1,1,5,1,NA,NA
"2371",60,"1_11",1,1,1,2,1,NA,NA
"2372",60,"1_12",1,1,1,3,1,NA,NA
"2373",60,"1_13",1,1,1,3,1,NA,NA
"2374",60,"1_14",1,1,1,4,1,NA,NA
"2375",60,"1_15",1,1,1,4,1,NA,NA
"2376",60,"1_16",1,1,1,5,1,NA,NA
"2377",60,"1_17",1,1,1,5,1,NA,NA
"2378",60,"1_18",1,1,1,4,1,NA,NA
"2379",60,"1_19",1,1,1,5,1,NA,NA
"2380",60,"1_20",1,1,1,3,1,NA,NA
"2381",60,"1_21",1,1,1,4,0,NA,NA
"2382",60,"1_22",1,1,1,5,0,NA,NA
"2383",60,"1_23",1,1,1,5,0,NA,NA
"2384",60,"1_24",1,1,1,4,0,NA,NA
"2385",60,"1_25",1,1,1,4,0,NA,NA
"2386",60,"1_26",1,1,1,3,0,NA,NA
"2387",60,"1_27",1,1,1,4,0,NA,NA
"2388",60,"1_28",1,1,1,2,0,NA,NA
"2389",60,"1_29",1,1,1,4,0,NA,NA
"2390",60,"1_30",1,1,1,2,0,NA,NA
"2391",60,"1_31",1,1,1,3,0,NA,NA
"2392",60,"1_32",1,1,1,3,0,NA,NA
"2393",60,"1_33",1,1,1,4,0,NA,NA
"2394",60,"1_34",1,1,1,3,0,NA,NA
"2395",60,"1_35",1,1,1,4,0,NA,NA
"2396",60,"1_36",1,1,1,3,0,NA,NA
"2397",60,"1_37",1,1,1,4,0,NA,NA
"2398",60,"1_38",1,1,1,5,0,NA,NA
"2399",60,"1_39",1,1,1,3,0,NA,NA
"2400",60,"1_40",1,1,1,6,0,NA,NA
"2401",61,"1_1",1,1,1,4,0,NA,NA
"2402",61,"1_2",1,1,1,3,0,NA,NA
"2403",61,"1_3",1,1,1,1,0,NA,NA
"2404",61,"1_4",1,1,1,4,0,NA,NA
"2405",61,"1_5",1,1,1,1,0,NA,NA
"2406",61,"1_6",1,1,1,3,0,NA,NA
"2407",61,"1_7",1,1,1,6,0,NA,NA
"2408",61,"1_8",1,1,1,1,0,NA,NA
"2409",61,"1_9",1,1,1,4,0,NA,NA
"2410",61,"1_10",1,1,1,6,0,NA,NA
"2411",61,"1_11",1,1,1,6,0,NA,NA
"2412",61,"1_12",1,1,1,5,0,NA,NA
"2413",61,"1_13",1,1,1,2,0,NA,NA
"2414",61,"1_14",1,1,1,2,0,NA,NA
"2415",61,"1_15",1,1,1,2,0,NA,NA
"2416",61,"1_16",1,1,1,5,0,NA,NA
"2417",61,"1_17",1,1,1,4,0,NA,NA
"2418",61,"1_18",1,1,1,4,0,NA,NA
"2419",61,"1_19",1,1,1,5,0,NA,NA
"2420",61,"1_20",1,1,1,3,0,NA,NA
"2421",61,"1_21",1,1,1,4,1,NA,NA
"2422",61,"1_22",1,1,1,6,1,NA,NA
"2423",61,"1_23",1,1,1,5,1,NA,NA
"2424",61,"1_24",1,1,1,4,1,NA,NA
"2425",61,"1_25",1,1,1,1,1,NA,NA
"2426",61,"1_26",1,1,1,2,1,NA,NA
"2427",61,"1_27",1,1,1,3,1,NA,NA
"2428",61,"1_28",1,1,1,2,1,NA,NA
"2429",61,"1_29",1,1,1,4,1,NA,NA
"2430",61,"1_30",1,1,1,4,1,NA,NA
"2431",61,"1_31",1,1,1,3,1,NA,NA
"2432",61,"1_32",1,1,1,5,1,NA,NA
"2433",61,"1_33",1,1,1,4,1,NA,NA
"2434",61,"1_34",1,1,1,4,1,NA,NA
"2435",61,"1_35",1,1,1,5,1,NA,NA
"2436",61,"1_36",1,1,1,4,1,NA,NA
"2437",61,"1_37",1,1,1,3,1,NA,NA
"2438",61,"1_38",1,1,1,6,1,NA,NA
"2439",61,"1_39",1,1,1,1,1,NA,NA
"2440",61,"1_40",1,1,1,4,1,NA,NA
"2441",62,"1_1",1,1,1,4,1,NA,NA
"2442",62,"1_2",1,1,1,1,1,NA,NA
"2443",62,"1_3",1,1,1,3,1,NA,NA
"2444",62,"1_4",1,1,1,3,1,NA,NA
"2445",62,"1_5",1,1,1,1,1,NA,NA
"2446",62,"1_6",1,1,1,5,1,NA,NA
"2447",62,"1_7",1,1,1,4,1,NA,NA
"2448",62,"1_8",1,1,1,1,1,NA,NA
"2449",62,"1_9",1,1,1,5,1,NA,NA
"2450",62,"1_10",1,1,1,6,1,NA,NA
"2451",62,"1_11",1,1,1,5,1,NA,NA
"2452",62,"1_12",1,1,1,6,1,NA,NA
"2453",62,"1_13",1,1,1,4,1,NA,NA
"2454",62,"1_14",1,1,1,2,1,NA,NA
"2455",62,"1_15",1,1,1,4,1,NA,NA
"2456",62,"1_16",1,1,1,6,1,NA,NA
"2457",62,"1_17",1,1,1,4,1,NA,NA
"2458",62,"1_18",1,1,1,4,1,NA,NA
"2459",62,"1_19",1,1,1,6,1,NA,NA
"2460",62,"1_20",1,1,1,3,1,NA,NA
"2461",62,"1_21",1,1,1,6,0,NA,NA
"2462",62,"1_22",1,1,1,1,0,NA,NA
"2463",62,"1_23",1,1,1,6,0,NA,NA
"2464",62,"1_24",1,1,1,5,0,NA,NA
"2465",62,"1_25",1,1,1,2,0,NA,NA
"2466",62,"1_26",1,1,1,1,0,NA,NA
"2467",62,"1_27",1,1,1,4,0,NA,NA
"2468",62,"1_28",1,1,1,1,0,NA,NA
"2469",62,"1_29",1,1,1,4,0,NA,NA
"2470",62,"1_30",1,1,1,1,0,NA,NA
"2471",62,"1_31",1,1,1,4,0,NA,NA
"2472",62,"1_32",1,1,1,6,0,NA,NA
"2473",62,"1_33",1,1,1,4,0,NA,NA
"2474",62,"1_34",1,1,1,3,0,NA,NA
"2475",62,"1_35",1,1,1,5,0,NA,NA
"2476",62,"1_36",1,1,1,4,0,NA,NA
"2477",62,"1_37",1,1,1,3,0,NA,NA
"2478",62,"1_38",1,1,1,4,0,NA,NA
"2479",62,"1_39",1,1,1,1,0,NA,NA
"2480",62,"1_40",1,1,1,1,0,NA,NA
"2481",63,"1_1",1,1,1,4,1,NA,NA
"2482",63,"1_2",1,1,1,4,1,NA,NA
"2483",63,"1_3",1,1,1,5,1,NA,NA
"2484",63,"1_4",1,1,1,5,1,NA,NA
"2485",63,"1_5",1,1,1,4,1,NA,NA
"2486",63,"1_6",1,1,1,1,1,NA,NA
"2487",63,"1_7",1,1,1,6,1,NA,NA
"2488",63,"1_8",1,1,1,6,1,NA,NA
"2489",63,"1_9",1,1,1,6,1,NA,NA
"2490",63,"1_10",1,1,1,6,1,NA,NA
"2491",63,"1_11",1,1,1,5,1,NA,NA
"2492",63,"1_12",1,1,1,2,1,NA,NA
"2493",63,"1_13",1,1,1,2,1,NA,NA
"2494",63,"1_14",1,1,1,4,1,NA,NA
"2495",63,"1_15",1,1,1,3,1,NA,NA
"2496",63,"1_16",1,1,1,1,1,NA,NA
"2497",63,"1_17",1,1,1,2,1,NA,NA
"2498",63,"1_18",1,1,1,4,1,NA,NA
"2499",63,"1_19",1,1,1,1,1,NA,NA
"2500",63,"1_20",1,1,1,4,1,NA,NA
"2501",63,"1_21",1,1,1,4,0,NA,NA
"2502",63,"1_22",1,1,1,5,0,NA,NA
"2503",63,"1_23",1,1,1,6,0,NA,NA
"2504",63,"1_24",1,1,1,2,0,NA,NA
"2505",63,"1_25",1,1,1,6,0,NA,NA
"2506",63,"1_26",1,1,1,6,0,NA,NA
"2507",63,"1_27",1,1,1,4,0,NA,NA
"2508",63,"1_28",1,1,1,6,0,NA,NA
"2509",63,"1_29",1,1,1,5,0,NA,NA
"2510",63,"1_30",1,1,1,6,0,NA,NA
"2511",63,"1_31",1,1,1,4,0,NA,NA
"2512",63,"1_32",1,1,1,6,0,NA,NA
"2513",63,"1_33",1,1,1,3,0,NA,NA
"2514",63,"1_34",1,1,1,1,0,NA,NA
"2515",63,"1_35",1,1,1,2,0,NA,NA
"2516",63,"1_36",1,1,1,2,0,NA,NA
"2517",63,"1_37",1,1,1,5,0,NA,NA
"2518",63,"1_38",1,1,1,1,0,NA,NA
"2519",63,"1_39",1,1,1,1,0,NA,NA
"2520",63,"1_40",1,1,1,6,0,NA,NA
"2521",64,"1_1",1,1,1,4,0,NA,NA
"2522",64,"1_2",1,1,1,3,0,NA,NA
"2523",64,"1_3",1,1,1,3,0,NA,NA
"2524",64,"1_4",1,1,1,4,0,NA,NA
"2525",64,"1_5",1,1,1,3,0,NA,NA
"2526",64,"1_6",1,1,1,4,0,NA,NA
"2527",64,"1_7",1,1,1,4,0,NA,NA
"2528",64,"1_8",1,1,1,2,0,NA,NA
"2529",64,"1_9",1,1,1,2,0,NA,NA
"2530",64,"1_10",1,1,1,3,0,NA,NA
"2531",64,"1_11",1,1,1,3,0,NA,NA
"2532",64,"1_12",1,1,1,4,0,NA,NA
"2533",64,"1_13",1,1,1,3,0,NA,NA
"2534",64,"1_14",1,1,1,3,0,NA,NA
"2535",64,"1_15",1,1,1,3,0,NA,NA
"2536",64,"1_16",1,1,1,5,0,NA,NA
"2537",64,"1_17",1,1,1,4,0,NA,NA
"2538",64,"1_18",1,1,1,4,0,NA,NA
"2539",64,"1_19",1,1,1,3,0,NA,NA
"2540",64,"1_20",1,1,1,4,0,NA,NA
"2541",64,"1_21",1,1,1,3,1,NA,NA
"2542",64,"1_22",1,1,1,4,1,NA,NA
"2543",64,"1_23",1,1,1,4,1,NA,NA
"2544",64,"1_24",1,1,1,4,1,NA,NA
"2545",64,"1_25",1,1,1,3,1,NA,NA
"2546",64,"1_26",1,1,1,4,1,NA,NA
"2547",64,"1_27",1,1,1,4,1,NA,NA
"2548",64,"1_28",1,1,1,4,1,NA,NA
"2549",64,"1_29",1,1,1,4,1,NA,NA
"2550",64,"1_30",1,1,1,4,1,NA,NA
"2551",64,"1_31",1,1,1,3,1,NA,NA
"2552",64,"1_32",1,1,1,4,1,NA,NA
"2553",64,"1_33",1,1,1,4,1,NA,NA
"2554",64,"1_34",1,1,1,3,1,NA,NA
"2555",64,"1_35",1,1,1,4,1,NA,NA
"2556",64,"1_36",1,1,1,4,1,NA,NA
"2557",64,"1_37",1,1,1,4,1,NA,NA
"2558",64,"1_38",1,1,1,4,1,NA,NA
"2559",64,"1_39",1,1,1,2,1,NA,NA
"2560",64,"1_40",1,1,1,3,1,NA,NA
"2561",65,"1_1",1,1,1,4,0,NA,NA
"2562",65,"1_2",1,1,1,2,0,NA,NA
"2563",65,"1_3",1,1,1,2,0,NA,NA
"2564",65,"1_4",1,1,1,5,0,NA,NA
"2565",65,"1_5",1,1,1,2,0,NA,NA
"2566",65,"1_6",1,1,1,3,0,NA,NA
"2567",65,"1_7",1,1,1,5,0,NA,NA
"2568",65,"1_8",1,1,1,1,0,NA,NA
"2569",65,"1_9",1,1,1,3,0,NA,NA
"2570",65,"1_10",1,1,1,3,0,NA,NA
"2571",65,"1_11",1,1,1,2,0,NA,NA
"2572",65,"1_12",1,1,1,5,0,NA,NA
"2573",65,"1_13",1,1,1,4,0,NA,NA
"2574",65,"1_14",1,1,1,3,0,NA,NA
"2575",65,"1_15",1,1,1,3,0,NA,NA
"2576",65,"1_16",1,1,1,4,0,NA,NA
"2577",65,"1_17",1,1,1,5,0,NA,NA
"2578",65,"1_18",1,1,1,4,0,NA,NA
"2579",65,"1_19",1,1,1,2,0,NA,NA
"2580",65,"1_20",1,1,1,2,0,NA,NA
"2581",65,"1_21",1,1,1,2,1,NA,NA
"2582",65,"1_22",1,1,1,4,1,NA,NA
"2583",65,"1_23",1,1,1,5,1,NA,NA
"2584",65,"1_24",1,1,1,4,1,NA,NA
"2585",65,"1_25",1,1,1,1,1,NA,NA
"2586",65,"1_26",1,1,1,4,1,NA,NA
"2587",65,"1_27",1,1,1,4,1,NA,NA
"2588",65,"1_28",1,1,1,3,1,NA,NA
"2589",65,"1_29",1,1,1,4,1,NA,NA
"2590",65,"1_30",1,1,1,5,1,NA,NA
"2591",65,"1_31",1,1,1,4,1,NA,NA
"2592",65,"1_32",1,1,1,5,1,NA,NA
"2593",65,"1_33",1,1,1,5,1,NA,NA
"2594",65,"1_34",1,1,1,2,1,NA,NA
"2595",65,"1_35",1,1,1,3,1,NA,NA
"2596",65,"1_36",1,1,1,5,1,NA,NA
"2597",65,"1_37",1,1,1,5,1,NA,NA
"2598",65,"1_38",1,1,1,6,1,NA,NA
"2599",65,"1_39",1,1,1,3,1,NA,NA
"2600",65,"1_40",1,1,1,4,1,NA,NA
"2601",66,"1_1",1,1,1,4,0,NA,NA
"2602",66,"1_2",1,1,1,4,0,NA,NA
"2603",66,"1_3",1,1,1,3,0,NA,NA
"2604",66,"1_4",1,1,1,4,0,NA,NA
"2605",66,"1_5",1,1,1,3,0,NA,NA
"2606",66,"1_6",1,1,1,4,0,NA,NA
"2607",66,"1_7",1,1,1,4,0,NA,NA
"2608",66,"1_8",1,1,1,4,0,NA,NA
"2609",66,"1_9",1,1,1,3,0,NA,NA
"2610",66,"1_10",1,1,1,4,0,NA,NA
"2611",66,"1_11",1,1,1,4,0,NA,NA
"2612",66,"1_12",1,1,1,3,0,NA,NA
"2613",66,"1_13",1,1,1,3,0,NA,NA
"2614",66,"1_14",1,1,1,3,0,NA,NA
"2615",66,"1_15",1,1,1,3,0,NA,NA
"2616",66,"1_16",1,1,1,4,0,NA,NA
"2617",66,"1_17",1,1,1,3,0,NA,NA
"2618",66,"1_18",1,1,1,4,0,NA,NA
"2619",66,"1_19",1,1,1,3,0,NA,NA
"2620",66,"1_20",1,1,1,3,0,NA,NA
"2621",66,"1_21",1,1,1,3,1,NA,NA
"2622",66,"1_22",1,1,1,5,1,NA,NA
"2623",66,"1_23",1,1,1,4,1,NA,NA
"2624",66,"1_24",1,1,1,3,1,NA,NA
"2625",66,"1_25",1,1,1,4,1,NA,NA
"2626",66,"1_26",1,1,1,5,1,NA,NA
"2627",66,"1_27",1,1,1,4,1,NA,NA
"2628",66,"1_28",1,1,1,4,1,NA,NA
"2629",66,"1_29",1,1,1,4,1,NA,NA
"2630",66,"1_30",1,1,1,3,1,NA,NA
"2631",66,"1_31",1,1,1,3,1,NA,NA
"2632",66,"1_32",1,1,1,4,1,NA,NA
"2633",66,"1_33",1,1,1,4,1,NA,NA
"2634",66,"1_34",1,1,1,3,1,NA,NA
"2635",66,"1_35",1,1,1,4,1,NA,NA
"2636",66,"1_36",1,1,1,4,1,NA,NA
"2637",66,"1_37",1,1,1,4,1,NA,NA
"2638",66,"1_38",1,1,1,4,1,NA,NA
"2639",66,"1_39",1,1,1,3,1,NA,NA
"2640",66,"1_40",1,1,1,1,1,NA,NA
"2641",67,"1_1",1,1,1,3,0,NA,NA
"2642",67,"1_2",1,1,1,3,0,NA,NA
"2643",67,"1_3",1,1,1,3,0,NA,NA
"2644",67,"1_4",1,1,1,4,0,NA,NA
"2645",67,"1_5",1,1,1,5,0,NA,NA
"2646",67,"1_6",1,1,1,3,0,NA,NA
"2647",67,"1_7",1,1,1,4,0,NA,NA
"2648",67,"1_8",1,1,1,1,0,NA,NA
"2649",67,"1_9",1,1,1,5,0,NA,NA
"2650",67,"1_10",1,1,1,5,0,NA,NA
"2651",67,"1_11",1,1,1,3,0,NA,NA
"2652",67,"1_12",1,1,1,5,0,NA,NA
"2653",67,"1_13",1,1,1,4,0,NA,NA
"2654",67,"1_14",1,1,1,3,0,NA,NA
"2655",67,"1_15",1,1,1,3,0,NA,NA
"2656",67,"1_16",1,1,1,4,0,NA,NA
"2657",67,"1_17",1,1,1,4,0,NA,NA
"2658",67,"1_18",1,1,1,5,0,NA,NA
"2659",67,"1_19",1,1,1,3,0,NA,NA
"2660",67,"1_20",1,1,1,3,0,NA,NA
"2661",67,"1_21",1,1,1,2,1,NA,NA
"2662",67,"1_22",1,1,1,3,1,NA,NA
"2663",67,"1_23",1,1,1,4,1,NA,NA
"2664",67,"1_24",1,1,1,3,1,NA,NA
"2665",67,"1_25",1,1,1,2,1,NA,NA
"2666",67,"1_26",1,1,1,3,1,NA,NA
"2667",67,"1_27",1,1,1,4,1,NA,NA
"2668",67,"1_28",1,1,1,2,1,NA,NA
"2669",67,"1_29",1,1,1,3,1,NA,NA
"2670",67,"1_30",1,1,1,4,1,NA,NA
"2671",67,"1_31",1,1,1,3,1,NA,NA
"2672",67,"1_32",1,1,1,5,1,NA,NA
"2673",67,"1_33",1,1,1,5,1,NA,NA
"2674",67,"1_34",1,1,1,4,1,NA,NA
"2675",67,"1_35",1,1,1,3,1,NA,NA
"2676",67,"1_36",1,1,1,4,1,NA,NA
"2677",67,"1_37",1,1,1,4,1,NA,NA
"2678",67,"1_38",1,1,1,5,1,NA,NA
"2679",67,"1_39",1,1,1,1,1,NA,NA
"2680",67,"1_40",1,1,1,4,1,NA,NA
"2681",68,"1_1",1,1,1,5,1,NA,NA
"2682",68,"1_2",1,1,1,4,1,NA,NA
"2683",68,"1_3",1,1,1,4,1,NA,NA
"2684",68,"1_4",1,1,1,5,1,NA,NA
"2685",68,"1_5",1,1,1,6,1,NA,NA
"2686",68,"1_6",1,1,1,3,1,NA,NA
"2687",68,"1_7",1,1,1,2,1,NA,NA
"2688",68,"1_8",1,1,1,2,1,NA,NA
"2689",68,"1_9",1,1,1,1,1,NA,NA
"2690",68,"1_10",1,1,1,6,1,NA,NA
"2691",68,"1_11",1,1,1,1,1,NA,NA
"2692",68,"1_12",1,1,1,1,1,NA,NA
"2693",68,"1_13",1,1,1,3,1,NA,NA
"2694",68,"1_14",1,1,1,2,1,NA,NA
"2695",68,"1_15",1,1,1,3,1,NA,NA
"2696",68,"1_16",1,1,1,3,1,NA,NA
"2697",68,"1_17",1,1,1,5,1,NA,NA
"2698",68,"1_18",1,1,1,4,1,NA,NA
"2699",68,"1_19",1,1,1,4,1,NA,NA
"2700",68,"1_20",1,1,1,3,1,NA,NA
"2701",68,"1_21",1,1,1,5,0,NA,NA
"2702",68,"1_22",1,1,1,6,0,NA,NA
"2703",68,"1_23",1,1,1,5,0,NA,NA
"2704",68,"1_24",1,1,1,4,0,NA,NA
"2705",68,"1_25",1,1,1,6,0,NA,NA
"2706",68,"1_26",1,1,1,2,0,NA,NA
"2707",68,"1_27",1,1,1,3,0,NA,NA
"2708",68,"1_28",1,1,1,2,0,NA,NA
"2709",68,"1_29",1,1,1,6,0,NA,NA
"2710",68,"1_30",1,1,1,4,0,NA,NA
"2711",68,"1_31",1,1,1,2,0,NA,NA
"2712",68,"1_32",1,1,1,5,0,NA,NA
"2713",68,"1_33",1,1,1,5,0,NA,NA
"2714",68,"1_34",1,1,1,1,0,NA,NA
"2715",68,"1_35",1,1,1,4,0,NA,NA
"2716",68,"1_36",1,1,1,2,0,NA,NA
"2717",68,"1_37",1,1,1,2,0,NA,NA
"2718",68,"1_38",1,1,1,4,0,NA,NA
"2719",68,"1_39",1,1,1,2,0,NA,NA
"2720",68,"1_40",1,1,1,1,0,NA,NA
"2721",69,"1_1",1,1,1,2,0,NA,NA
"2722",69,"1_2",1,1,1,6,0,NA,NA
"2723",69,"1_3",1,1,1,2,0,NA,NA
"2724",69,"1_4",1,1,1,2,0,NA,NA
"2725",69,"1_5",1,1,1,6,0,NA,NA
"2726",69,"1_6",1,1,1,3,0,NA,NA
"2727",69,"1_7",1,1,1,4,0,NA,NA
"2728",69,"1_8",1,1,1,6,0,NA,NA
"2729",69,"1_9",1,1,1,5,0,NA,NA
"2730",69,"1_10",1,1,1,4,0,NA,NA
"2731",69,"1_11",1,1,1,1,0,NA,NA
"2732",69,"1_12",1,1,1,3,0,NA,NA
"2733",69,"1_13",1,1,1,3,0,NA,NA
"2734",69,"1_14",1,1,1,4,0,NA,NA
"2735",69,"1_15",1,1,1,3,0,NA,NA
"2736",69,"1_16",1,1,1,3,0,NA,NA
"2737",69,"1_17",1,1,1,5,0,NA,NA
"2738",69,"1_18",1,1,1,4,0,NA,NA
"2739",69,"1_19",1,1,1,4,0,NA,NA
"2740",69,"1_20",1,1,1,2,0,NA,NA
"2741",69,"1_21",1,1,1,4,1,NA,NA
"2742",69,"1_22",1,1,1,6,1,NA,NA
"2743",69,"1_23",1,1,1,6,1,NA,NA
"2744",69,"1_24",1,1,1,5,1,NA,NA
"2745",69,"1_25",1,1,1,5,1,NA,NA
"2746",69,"1_26",1,1,1,3,1,NA,NA
"2747",69,"1_27",1,1,1,4,1,NA,NA
"2748",69,"1_28",1,1,1,6,1,NA,NA
"2749",69,"1_29",1,1,1,5,1,NA,NA
"2750",69,"1_30",1,1,1,5,1,NA,NA
"2751",69,"1_31",1,1,1,4,1,NA,NA
"2752",69,"1_32",1,1,1,2,1,NA,NA
"2753",69,"1_33",1,1,1,4,1,NA,NA
"2754",69,"1_34",1,1,1,5,1,NA,NA
"2755",69,"1_35",1,1,1,5,1,NA,NA
"2756",69,"1_36",1,1,1,5,1,NA,NA
"2757",69,"1_37",1,1,1,5,1,NA,NA
"2758",69,"1_38",1,1,1,5,1,NA,NA
"2759",69,"1_39",1,1,1,5,1,NA,NA
"2760",69,"1_40",1,1,1,5,1,NA,NA
"2761",70,"1_1",1,1,1,4,0,NA,NA
"2762",70,"1_2",1,1,1,3,0,NA,NA
"2763",70,"1_3",1,1,1,4,0,NA,NA
"2764",70,"1_4",1,1,1,5,0,NA,NA
"2765",70,"1_5",1,1,1,5,0,NA,NA
"2766",70,"1_6",1,1,1,3,0,NA,NA
"2767",70,"1_7",1,1,1,5,0,NA,NA
"2768",70,"1_8",1,1,1,1,0,NA,NA
"2769",70,"1_9",1,1,1,2,0,NA,NA
"2770",70,"1_10",1,1,1,5,0,NA,NA
"2771",70,"1_11",1,1,1,6,0,NA,NA
"2772",70,"1_12",1,1,1,5,0,NA,NA
"2773",70,"1_13",1,1,1,3,0,NA,NA
"2774",70,"1_14",1,1,1,3,0,NA,NA
"2775",70,"1_15",1,1,1,2,0,NA,NA
"2776",70,"1_16",1,1,1,5,0,NA,NA
"2777",70,"1_17",1,1,1,3,0,NA,NA
"2778",70,"1_18",1,1,1,4,0,NA,NA
"2779",70,"1_19",1,1,1,3,0,NA,NA
"2780",70,"1_20",1,1,1,4,0,NA,NA
"2781",70,"1_21",1,1,1,6,1,NA,NA
"2782",70,"1_22",1,1,1,4,1,NA,NA
"2783",70,"1_23",1,1,1,6,1,NA,NA
"2784",70,"1_24",1,1,1,4,1,NA,NA
"2785",70,"1_25",1,1,1,2,1,NA,NA
"2786",70,"1_26",1,1,1,2,1,NA,NA
"2787",70,"1_27",1,1,1,3,1,NA,NA
"2788",70,"1_28",1,1,1,2,1,NA,NA
"2789",70,"1_29",1,1,1,5,1,NA,NA
"2790",70,"1_30",1,1,1,2,1,NA,NA
"2791",70,"1_31",1,1,1,2,1,NA,NA
"2792",70,"1_32",1,1,1,6,1,NA,NA
"2793",70,"1_33",1,1,1,6,1,NA,NA
"2794",70,"1_34",1,1,1,3,1,NA,NA
"2795",70,"1_35",1,1,1,5,1,NA,NA
"2796",70,"1_36",1,1,1,5,1,NA,NA
"2797",70,"1_37",1,1,1,4,1,NA,NA
"2798",70,"1_38",1,1,1,6,1,NA,NA
"2799",70,"1_39",1,1,1,2,1,NA,NA
"2800",70,"1_40",1,1,1,3,1,NA,NA
"2801",71,"1_1",1,1,1,4,0,NA,NA
"2802",71,"1_2",1,1,1,3,0,NA,NA
"2803",71,"1_3",1,1,1,3,0,NA,NA
"2804",71,"1_4",1,1,1,4,0,NA,NA
"2805",71,"1_5",1,1,1,3,0,NA,NA
"2806",71,"1_6",1,1,1,3,0,NA,NA
"2807",71,"1_7",1,1,1,2,0,NA,NA
"2808",71,"1_8",1,1,1,5,0,NA,NA
"2809",71,"1_9",1,1,1,3,0,NA,NA
"2810",71,"1_10",1,1,1,5,0,NA,NA
"2811",71,"1_11",1,1,1,5,0,NA,NA
"2812",71,"1_12",1,1,1,4,0,NA,NA
"2813",71,"1_13",1,1,1,3,0,NA,NA
"2814",71,"1_14",1,1,1,3,0,NA,NA
"2815",71,"1_15",1,1,1,2,0,NA,NA
"2816",71,"1_16",1,1,1,2,0,NA,NA
"2817",71,"1_17",1,1,1,2,0,NA,NA
"2818",71,"1_18",1,1,1,4,0,NA,NA
"2819",71,"1_19",1,1,1,5,0,NA,NA
"2820",71,"1_20",1,1,1,3,0,NA,NA
"2821",71,"1_21",1,1,1,4,1,NA,NA
"2822",71,"1_22",1,1,1,5,1,NA,NA
"2823",71,"1_23",1,1,1,5,1,NA,NA
"2824",71,"1_24",1,1,1,4,1,NA,NA
"2825",71,"1_25",1,1,1,6,1,NA,NA
"2826",71,"1_26",1,1,1,3,1,NA,NA
"2827",71,"1_27",1,1,1,4,1,NA,NA
"2828",71,"1_28",1,1,1,6,1,NA,NA
"2829",71,"1_29",1,1,1,4,1,NA,NA
"2830",71,"1_30",1,1,1,3,1,NA,NA
"2831",71,"1_31",1,1,1,2,1,NA,NA
"2832",71,"1_32",1,1,1,2,1,NA,NA
"2833",71,"1_33",1,1,1,2,1,NA,NA
"2834",71,"1_34",1,1,1,3,1,NA,NA
"2835",71,"1_35",1,1,1,4,1,NA,NA
"2836",71,"1_36",1,1,1,4,1,NA,NA
"2837",71,"1_37",1,1,1,2,1,NA,NA
"2838",71,"1_38",1,1,1,5,1,NA,NA
"2839",71,"1_39",1,1,1,3,1,NA,NA
"2840",71,"1_40",1,1,1,1,1,NA,NA
"2841",72,"1_1",1,1,1,6,0,NA,NA
"2842",72,"1_2",1,1,1,6,0,NA,NA
"2843",72,"1_3",1,1,1,1,0,NA,NA
"2844",72,"1_4",1,1,1,3,0,NA,NA
"2845",72,"1_5",1,1,1,5,0,NA,NA
"2846",72,"1_6",1,1,1,3,0,NA,NA
"2847",72,"1_7",1,1,1,5,0,NA,NA
"2848",72,"1_8",1,1,1,6,0,NA,NA
"2849",72,"1_9",1,1,1,2,0,NA,NA
"2850",72,"1_10",1,1,1,5,0,NA,NA
"2851",72,"1_11",1,1,1,2,0,NA,NA
"2852",72,"1_12",1,1,1,2,0,NA,NA
"2853",72,"1_13",1,1,1,4,0,NA,NA
"2854",72,"1_14",1,1,1,3,0,NA,NA
"2855",72,"1_15",1,1,1,3,0,NA,NA
"2856",72,"1_16",1,1,1,4,0,NA,NA
"2857",72,"1_17",1,1,1,5,0,NA,NA
"2858",72,"1_18",1,1,1,4,0,NA,NA
"2859",72,"1_19",1,1,1,6,0,NA,NA
"2860",72,"1_20",1,1,1,1,0,NA,NA
"2861",72,"1_21",1,1,1,5,1,NA,NA
"2862",72,"1_22",1,1,1,2,1,NA,NA
"2863",72,"1_23",1,1,1,5,1,NA,NA
"2864",72,"1_24",1,1,1,4,1,NA,NA
"2865",72,"1_25",1,1,1,6,1,NA,NA
"2866",72,"1_26",1,1,1,1,1,NA,NA
"2867",72,"1_27",1,1,1,5,1,NA,NA
"2868",72,"1_28",1,1,1,6,1,NA,NA
"2869",72,"1_29",1,1,1,4,1,NA,NA
"2870",72,"1_30",1,1,1,4,1,NA,NA
"2871",72,"1_31",1,1,1,4,1,NA,NA
"2872",72,"1_32",1,1,1,4,1,NA,NA
"2873",72,"1_33",1,1,1,5,1,NA,NA
"2874",72,"1_34",1,1,1,1,1,NA,NA
"2875",72,"1_35",1,1,1,4,1,NA,NA
"2876",72,"1_36",1,1,1,4,1,NA,NA
"2877",72,"1_37",1,1,1,4,1,NA,NA
"2878",72,"1_38",1,1,1,4,1,NA,NA
"2879",72,"1_39",1,1,1,3,1,NA,NA
"2880",72,"1_40",1,1,1,4,1,NA,NA
"2881",73,"1_1",1,1,1,4,0,NA,NA
"2882",73,"1_2",1,1,1,3,0,NA,NA
"2883",73,"1_3",1,1,1,4,0,NA,NA
"2884",73,"1_4",1,1,1,6,0,NA,NA
"2885",73,"1_5",1,1,1,6,0,NA,NA
"2886",73,"1_6",1,1,1,1,0,NA,NA
"2887",73,"1_7",1,1,1,6,0,NA,NA
"2888",73,"1_8",1,1,1,2,0,NA,NA
"2889",73,"1_9",1,1,1,3,0,NA,NA
"2890",73,"1_10",1,1,1,6,0,NA,NA
"2891",73,"1_11",1,1,1,6,0,NA,NA
"2892",73,"1_12",1,1,1,5,0,NA,NA
"2893",73,"1_13",1,1,1,3,0,NA,NA
"2894",73,"1_14",1,1,1,3,0,NA,NA
"2895",73,"1_15",1,1,1,2,0,NA,NA
"2896",73,"1_16",1,1,1,1,0,NA,NA
"2897",73,"1_17",1,1,1,5,0,NA,NA
"2898",73,"1_18",1,1,1,3,0,NA,NA
"2899",73,"1_19",1,1,1,6,0,NA,NA
"2900",73,"1_20",1,1,1,4,0,NA,NA
"2901",73,"1_21",1,1,1,5,1,NA,NA
"2902",73,"1_22",1,1,1,5,1,NA,NA
"2903",73,"1_23",1,1,1,6,1,NA,NA
"2904",73,"1_24",1,1,1,1,1,NA,NA
"2905",73,"1_25",1,1,1,6,1,NA,NA
"2906",73,"1_26",1,1,1,6,1,NA,NA
"2907",73,"1_27",1,1,1,6,1,NA,NA
"2908",73,"1_28",1,1,1,6,1,NA,NA
"2909",73,"1_29",1,1,1,6,1,NA,NA
"2910",73,"1_30",1,1,1,6,1,NA,NA
"2911",73,"1_31",1,1,1,1,1,NA,NA
"2912",73,"1_32",1,1,1,6,1,NA,NA
"2913",73,"1_33",1,1,1,6,1,NA,NA
"2914",73,"1_34",1,1,1,1,1,NA,NA
"2915",73,"1_35",1,1,1,5,1,NA,NA
"2916",73,"1_36",1,1,1,4,1,NA,NA
"2917",73,"1_37",1,1,1,3,1,NA,NA
"2918",73,"1_38",1,1,1,4,1,NA,NA
"2919",73,"1_39",1,1,1,1,1,NA,NA
"2920",73,"1_40",1,1,1,1,1,NA,NA
"2921",74,"1_1",1,1,1,4,0,NA,NA
"2922",74,"1_2",1,1,1,4,0,NA,NA
"2923",74,"1_3",1,1,1,1,0,NA,NA
"2924",74,"1_4",1,1,1,5,0,NA,NA
"2925",74,"1_5",1,1,1,5,0,NA,NA
"2926",74,"1_6",1,1,1,3,0,NA,NA
"2927",74,"1_7",1,1,1,5,0,NA,NA
"2928",74,"1_8",1,1,1,1,0,NA,NA
"2929",74,"1_9",1,1,1,5,0,NA,NA
"2930",74,"1_10",1,1,1,4,0,NA,NA
"2931",74,"1_11",1,1,1,6,0,NA,NA
"2932",74,"1_12",1,1,1,6,0,NA,NA
"2933",74,"1_13",1,1,1,4,0,NA,NA
"2934",74,"1_14",1,1,1,4,0,NA,NA
"2935",74,"1_15",1,1,1,5,0,NA,NA
"2936",74,"1_16",1,1,1,5,0,NA,NA
"2937",74,"1_17",1,1,1,5,0,NA,NA
"2938",74,"1_18",1,1,1,4,0,NA,NA
"2939",74,"1_19",1,1,1,5,0,NA,NA
"2940",74,"1_20",1,1,1,3,0,NA,NA
"2941",74,"1_21",1,1,1,3,1,NA,NA
"2942",74,"1_22",1,1,1,2,1,NA,NA
"2943",74,"1_23",1,1,1,6,1,NA,NA
"2944",74,"1_24",1,1,1,4,1,NA,NA
"2945",74,"1_25",1,1,1,4,1,NA,NA
"2946",74,"1_26",1,1,1,6,1,NA,NA
"2947",74,"1_27",1,1,1,4,1,NA,NA
"2948",74,"1_28",1,1,1,5,1,NA,NA
"2949",74,"1_29",1,1,1,5,1,NA,NA
"2950",74,"1_30",1,1,1,2,1,NA,NA
"2951",74,"1_31",1,1,1,2,1,NA,NA
"2952",74,"1_32",1,1,1,6,1,NA,NA
"2953",74,"1_33",1,1,1,2,1,NA,NA
"2954",74,"1_34",1,1,1,3,1,NA,NA
"2955",74,"1_35",1,1,1,5,1,NA,NA
"2956",74,"1_36",1,1,1,3,1,NA,NA
"2957",74,"1_37",1,1,1,3,1,NA,NA
"2958",74,"1_38",1,1,1,5,1,NA,NA
"2959",74,"1_39",1,1,1,2,1,NA,NA
"2960",74,"1_40",1,1,1,6,1,NA,NA
"2961",75,"1_1",1,1,1,4,1,NA,NA
"2962",75,"1_2",1,1,1,2,1,NA,NA
"2963",75,"1_3",1,1,1,1,1,NA,NA
"2964",75,"1_4",1,1,1,4,1,NA,NA
"2965",75,"1_5",1,1,1,2,1,NA,NA
"2966",75,"1_6",1,1,1,4,1,NA,NA
"2967",75,"1_7",1,1,1,6,1,NA,NA
"2968",75,"1_8",1,1,1,4,1,NA,NA
"2969",75,"1_9",1,1,1,5,1,NA,NA
"2970",75,"1_10",1,1,1,6,1,NA,NA
"2971",75,"1_11",1,1,1,6,1,NA,NA
"2972",75,"1_12",1,1,1,6,1,NA,NA
"2973",75,"1_13",1,1,1,3,1,NA,NA
"2974",75,"1_14",1,1,1,4,1,NA,NA
"2975",75,"1_15",1,1,1,5,1,NA,NA
"2976",75,"1_16",1,1,1,5,1,NA,NA
"2977",75,"1_17",1,1,1,5,1,NA,NA
"2978",75,"1_18",1,1,1,4,1,NA,NA
"2979",75,"1_19",1,1,1,4,1,NA,NA
"2980",75,"1_20",1,1,1,4,1,NA,NA
"2981",75,"1_21",1,1,1,4,0,NA,NA
"2982",75,"1_22",1,1,1,5,0,NA,NA
"2983",75,"1_23",1,1,1,4,0,NA,NA
"2984",75,"1_24",1,1,1,3,0,NA,NA
"2985",75,"1_25",1,1,1,6,0,NA,NA
"2986",75,"1_26",1,1,1,4,0,NA,NA
"2987",75,"1_27",1,1,1,4,0,NA,NA
"2988",75,"1_28",1,1,1,5,0,NA,NA
"2989",75,"1_29",1,1,1,6,0,NA,NA
"2990",75,"1_30",1,1,1,3,0,NA,NA
"2991",75,"1_31",1,1,1,4,0,NA,NA
"2992",75,"1_32",1,1,1,2,0,NA,NA
"2993",75,"1_33",1,1,1,3,0,NA,NA
"2994",75,"1_34",1,1,1,1,0,NA,NA
"2995",75,"1_35",1,1,1,4,0,NA,NA
"2996",75,"1_36",1,1,1,4,0,NA,NA
"2997",75,"1_37",1,1,1,4,0,NA,NA
"2998",75,"1_38",1,1,1,4,0,NA,NA
"2999",75,"1_39",1,1,1,1,0,NA,NA
"3000",75,"1_40",1,1,1,4,0,NA,NA
"3001",76,"1_1",1,1,1,4,0,NA,NA
"3002",76,"1_2",1,1,1,3,0,NA,NA
"3003",76,"1_3",1,1,1,2,0,NA,NA
"3004",76,"1_4",1,1,1,4,0,NA,NA
"3005",76,"1_5",1,1,1,3,0,NA,NA
"3006",76,"1_6",1,1,1,3,0,NA,NA
"3007",76,"1_7",1,1,1,2,0,NA,NA
"3008",76,"1_8",1,1,1,2,0,NA,NA
"3009",76,"1_9",1,1,1,4,0,NA,NA
"3010",76,"1_10",1,1,1,5,0,NA,NA
"3011",76,"1_11",1,1,1,5,0,NA,NA
"3012",76,"1_12",1,1,1,3,0,NA,NA
"3013",76,"1_13",1,1,1,4,0,NA,NA
"3014",76,"1_14",1,1,1,4,0,NA,NA
"3015",76,"1_15",1,1,1,2,0,NA,NA
"3016",76,"1_16",1,1,1,5,0,NA,NA
"3017",76,"1_17",1,1,1,2,0,NA,NA
"3018",76,"1_18",1,1,1,4,0,NA,NA
"3019",76,"1_19",1,1,1,5,0,NA,NA
"3020",76,"1_20",1,1,1,4,0,NA,NA
"3021",76,"1_21",1,1,1,3,1,NA,NA
"3022",76,"1_22",1,1,1,3,1,NA,NA
"3023",76,"1_23",1,1,1,5,1,NA,NA
"3024",76,"1_24",1,1,1,4,1,NA,NA
"3025",76,"1_25",1,1,1,5,1,NA,NA
"3026",76,"1_26",1,1,1,4,1,NA,NA
"3027",76,"1_27",1,1,1,4,1,NA,NA
"3028",76,"1_28",1,1,1,4,1,NA,NA
"3029",76,"1_29",1,1,1,5,1,NA,NA
"3030",76,"1_30",1,1,1,2,1,NA,NA
"3031",76,"1_31",1,1,1,4,1,NA,NA
"3032",76,"1_32",1,1,1,5,1,NA,NA
"3033",76,"1_33",1,1,1,4,1,NA,NA
"3034",76,"1_34",1,1,1,5,1,NA,NA
"3035",76,"1_35",1,1,1,4,1,NA,NA
"3036",76,"1_36",1,1,1,4,1,NA,NA
"3037",76,"1_37",1,1,1,3,1,NA,NA
"3038",76,"1_38",1,1,1,4,1,NA,NA
"3039",76,"1_39",1,1,1,4,1,NA,NA
"3040",76,"1_40",1,1,1,5,1,NA,NA
"3041",77,"1_1",1,1,1,4,1,NA,NA
"3042",77,"1_2",1,1,1,2,1,NA,NA
"3043",77,"1_3",1,1,1,3,1,NA,NA
"3044",77,"1_4",1,1,1,5,1,NA,NA
"3045",77,"1_5",1,1,1,5,1,NA,NA
"3046",77,"1_6",1,1,1,3,1,NA,NA
"3047",77,"1_7",1,1,1,1,1,NA,NA
"3048",77,"1_8",1,1,1,2,1,NA,NA
"3049",77,"1_9",1,1,1,4,1,NA,NA
"3050",77,"1_10",1,1,1,6,1,NA,NA
"3051",77,"1_11",1,1,1,5,1,NA,NA
"3052",77,"1_12",1,1,1,6,1,NA,NA
"3053",77,"1_13",1,1,1,3,1,NA,NA
"3054",77,"1_14",1,1,1,4,1,NA,NA
"3055",77,"1_15",1,1,1,3,1,NA,NA
"3056",77,"1_16",1,1,1,4,1,NA,NA
"3057",77,"1_17",1,1,1,4,1,NA,NA
"3058",77,"1_18",1,1,1,4,1,NA,NA
"3059",77,"1_19",1,1,1,3,1,NA,NA
"3060",77,"1_20",1,1,1,3,1,NA,NA
"3061",77,"1_21",1,1,1,5,0,NA,NA
"3062",77,"1_22",1,1,1,5,0,NA,NA
"3063",77,"1_23",1,1,1,5,0,NA,NA
"3064",77,"1_24",1,1,1,4,0,NA,NA
"3065",77,"1_25",1,1,1,5,0,NA,NA
"3066",77,"1_26",1,1,1,4,0,NA,NA
"3067",77,"1_27",1,1,1,4,0,NA,NA
"3068",77,"1_28",1,1,1,2,0,NA,NA
"3069",77,"1_29",1,1,1,3,0,NA,NA
"3070",77,"1_30",1,1,1,3,0,NA,NA
"3071",77,"1_31",1,1,1,2,0,NA,NA
"3072",77,"1_32",1,1,1,4,0,NA,NA
"3073",77,"1_33",1,1,1,4,0,NA,NA
"3074",77,"1_34",1,1,1,4,0,NA,NA
"3075",77,"1_35",1,1,1,4,0,NA,NA
"3076",77,"1_36",1,1,1,4,0,NA,NA
"3077",77,"1_37",1,1,1,4,0,NA,NA
"3078",77,"1_38",1,1,1,5,0,NA,NA
"3079",77,"1_39",1,1,1,1,0,NA,NA
"3080",77,"1_40",1,1,1,4,0,NA,NA
"3081",78,"1_1",1,1,1,5,1,NA,NA
"3082",78,"1_2",1,1,1,2,1,NA,NA
"3083",78,"1_3",1,1,1,2,1,NA,NA
"3084",78,"1_4",1,1,1,5,1,NA,NA
"3085",78,"1_5",1,1,1,4,1,NA,NA
"3086",78,"1_6",1,1,1,3,1,NA,NA
"3087",78,"1_7",1,1,1,4,1,NA,NA
"3088",78,"1_8",1,1,1,2,1,NA,NA
"3089",78,"1_9",1,1,1,5,1,NA,NA
"3090",78,"1_10",1,1,1,4,1,NA,NA
"3091",78,"1_11",1,1,1,5,1,NA,NA
