"","subject","statement_identifier","presentation_identifier","within_identifier","between_identifier","response","repeated","rt","trial"
"1",1,"a1_1",1,"second",1,4,0,NA,NA
"2",1,"a3_3",1,"second",1,6,0,NA,NA
"3",1,"b1_1",1,"second",1,6,1,NA,NA
"4",1,"b1_2",1,"second",1,6,1,NA,NA
"5",1,"b3_3",1,"second",1,6,1,NA,NA
"6",1,"a2_1",1,"native",1,4,0,NA,NA
"7",1,"a2_4",1,"native",1,4,0,NA,NA
"8",1,"a4_4",1,"native",1,1,0,NA,NA
"9",1,"b2_1",1,"native",1,3,1,NA,NA
"10",1,"b4_4",1,"native",1,4,1,NA,NA
"11",1,"a1_2",1,"second",1,6,0,NA,NA
"12",1,"a3_4",1,"second",1,5,0,NA,NA
"13",1,"a3_5",1,"second",1,4,0,NA,NA
"14",1,"b1_3",1,"second",1,4,1,NA,NA
"15",1,"b3_4",1,"second",1,6,1,NA,NA
"16",1,"a2_2",1,"native",1,5,0,NA,NA
"17",1,"a4_5",1,"native",1,2,0,NA,NA
"18",1,"b2_2",1,"native",1,6,1,NA,NA
"19",1,"b2_3",1,"native",1,5,1,NA,NA
"20",1,"b4_1",1,"native",1,1,1,NA,NA
"21",1,"a1_4",1,"second",1,4,0,NA,NA
"22",1,"a3_1",1,"second",1,3,0,NA,NA
"23",1,"b1_4",1,"second",1,6,1,NA,NA
"24",1,"b3_1",1,"second",1,6,1,NA,NA
"25",1,"b3_2",1,"second",1,6,1,NA,NA
"26",1,"a2_3",1,"native",1,5,0,NA,NA
"27",1,"a4_1",1,"native",1,4,0,NA,NA
"28",1,"a4_2",1,"native",1,1,0,NA,NA
"29",1,"b2_4",1,"native",1,6,1,NA,NA
"30",1,"b4_2",1,"native",1,6,1,NA,NA
"31",1,"a1_5",1,"second",1,6,0,NA,NA
"32",1,"a1_3",1,"second",1,4,0,NA,NA
"33",1,"a3_2",1,"second",1,6,0,NA,NA
"34",1,"b1_5",1,"second",1,6,1,NA,NA
"35",1,"b3_5",1,"second",1,6,1,NA,NA
"36",1,"a2_5",1,"native",1,1,0,NA,NA
"37",1,"a4_3",1,"native",1,1,0,NA,NA
"38",1,"b2_5",1,"native",1,6,1,NA,NA
"39",1,"b4_3",1,"native",1,6,1,NA,NA
"40",1,"b4_5",1,"native",1,2,1,NA,NA
"41",2,NA,1,"native",1,6,1,NA,NA
"42",2,NA,1,"native",1,1,1,NA,NA
"43",2,NA,1,"native",1,1,0,NA,NA
"44",2,NA,1,"native",1,6,0,NA,NA
"45",2,NA,1,"native",1,6,0,NA,NA
"46",2,NA,1,"second",1,3,1,NA,NA
"47",2,NA,1,"second",1,6,1,NA,NA
"48",2,NA,1,"second",1,1,1,NA,NA
"49",2,NA,1,"second",1,3,0,NA,NA
"50",2,NA,1,"second",1,3,0,NA,NA
"51",2,NA,1,"native",1,1,1,NA,NA
"52",2,NA,1,"native",1,4,1,NA,NA
"53",2,NA,1,"native",1,6,1,NA,NA
"54",2,NA,1,"native",1,2,0,NA,NA
"55",2,NA,1,"native",1,1,0,NA,NA
"56",2,NA,1,"second",1,1,1,NA,NA
"57",2,NA,1,"second",1,2,1,NA,NA
"58",2,NA,1,"second",1,1,0,NA,NA
"59",2,NA,1,"second",1,6,0,NA,NA
"60",2,NA,1,"second",1,1,0,NA,NA
"61",2,NA,1,"native",1,6,1,NA,NA
"62",2,NA,1,"native",1,4,1,NA,NA
"63",2,NA,1,"native",1,4,0,NA,NA
"64",2,NA,1,"native",1,5,0,NA,NA
"65",2,NA,1,"native",1,3,0,NA,NA
"66",2,NA,1,"second",1,3,1,NA,NA
"67",2,NA,1,"second",1,5,1,NA,NA
"68",2,NA,1,"second",1,3,1,NA,NA
"69",2,NA,1,"second",1,5,0,NA,NA
"70",2,NA,1,"second",1,4,0,NA,NA
"71",2,NA,1,"native",1,3,1,NA,NA
"72",2,NA,1,"native",1,5,1,NA,NA
"73",2,NA,1,"native",1,5,1,NA,NA
"74",2,NA,1,"native",1,6,0,NA,NA
"75",2,NA,1,"native",1,5,0,NA,NA
"76",2,NA,1,"second",1,6,1,NA,NA
"77",2,NA,1,"second",1,2,1,NA,NA
"78",2,NA,1,"second",1,4,0,NA,NA
"79",2,NA,1,"second",1,4,0,NA,NA
"80",2,NA,1,"second",1,3,0,NA,NA
"81",3,"a1_1",1,"second",1,4,1,NA,NA
"82",3,"a3_3",1,"second",1,3,1,NA,NA
"83",3,"b1_1",1,"second",1,1,0,NA,NA
"84",3,"b1_2",1,"second",1,4,0,NA,NA
"85",3,"b3_3",1,"second",1,6,0,NA,NA
"86",3,"a2_1",1,"native",1,5,1,NA,NA
"87",3,"a2_4",1,"native",1,3,1,NA,NA
"88",3,"a4_4",1,"native",1,4,1,NA,NA
"89",3,"b2_1",1,"native",1,3,0,NA,NA
"90",3,"b4_4",1,"native",1,4,0,NA,NA
"91",3,"a1_2",1,"second",1,1,1,NA,NA
"92",3,"a3_4",1,"second",1,5,1,NA,NA
"93",3,"a3_5",1,"second",1,4,1,NA,NA
"94",3,"b1_3",1,"second",1,2,0,NA,NA
"95",3,"b3_4",1,"second",1,5,0,NA,NA
"96",3,"a2_2",1,"native",1,1,1,NA,NA
"97",3,"a4_5",1,"native",1,4,1,NA,NA
"98",3,"b2_2",1,"native",1,1,0,NA,NA
"99",3,"b2_3",1,"native",1,6,0,NA,NA
"100",3,"b4_1",1,"native",1,4,0,NA,NA
"101",3,"a1_4",1,"second",1,5,1,NA,NA
"102",3,"a3_1",1,"second",1,1,1,NA,NA
"103",3,"b1_4",1,"second",1,4,0,NA,NA
"104",3,"b3_1",1,"second",1,2,0,NA,NA
"105",3,"b3_2",1,"second",1,1,0,NA,NA
"106",3,"a2_3",1,"native",1,5,1,NA,NA
"107",3,"a4_1",1,"native",1,4,1,NA,NA
"108",3,"a4_2",1,"native",1,2,1,NA,NA
"109",3,"b2_4",1,"native",1,1,0,NA,NA
"110",3,"b4_2",1,"native",1,4,0,NA,NA
"111",3,"a1_5",1,"second",1,1,1,NA,NA
"112",3,"a1_3",1,"second",1,4,1,NA,NA
"113",3,"a3_2",1,"second",1,4,1,NA,NA
"114",3,"b1_5",1,"second",1,5,0,NA,NA
"115",3,"b3_5",1,"second",1,4,0,NA,NA
"116",3,"a2_5",1,"native",1,5,1,NA,NA
"117",3,"a4_3",1,"native",1,2,1,NA,NA
"118",3,"b2_5",1,"native",1,5,0,NA,NA
"119",3,"b4_3",1,"native",1,3,0,NA,NA
"120",3,"b4_5",1,"native",1,5,0,NA,NA
"121",4,"a1_1",1,"second",1,4,0,NA,NA
"122",4,"a3_3",1,"second",1,2,0,NA,NA
"123",4,"b1_1",1,"second",1,5,1,NA,NA
"124",4,"b1_2",1,"second",1,5,1,NA,NA
"125",4,"b3_3",1,"second",1,5,1,NA,NA
"126",4,"a2_1",1,"native",1,4,0,NA,NA
"127",4,"a2_4",1,"native",1,2,0,NA,NA
"128",4,"a4_4",1,"native",1,3,0,NA,NA
"129",4,"b2_1",1,"native",1,5,1,NA,NA
"130",4,"b4_4",1,"native",1,5,1,NA,NA
"131",4,"a1_2",1,"second",1,6,0,NA,NA
"132",4,"a3_4",1,"second",1,4,0,NA,NA
"133",4,"a3_5",1,"second",1,2,0,NA,NA
"134",4,"b1_3",1,"second",1,5,1,NA,NA
"135",4,"b3_4",1,"second",1,6,1,NA,NA
"136",4,"a2_2",1,"native",1,3,0,NA,NA
"137",4,"a4_5",1,"native",1,2,0,NA,NA
"138",4,"b2_2",1,"native",1,5,1,NA,NA
"139",4,"b2_3",1,"native",1,5,1,NA,NA
"140",4,"b4_1",1,"native",1,6,1,NA,NA
"141",4,"a1_4",1,"second",1,4,0,NA,NA
"142",4,"a3_1",1,"second",1,2,0,NA,NA
"143",4,"b1_4",1,"second",1,5,1,NA,NA
"144",4,"b3_1",1,"second",1,5,1,NA,NA
"145",4,"b3_2",1,"second",1,6,1,NA,NA
"146",4,"a2_3",1,"native",1,2,0,NA,NA
"147",4,"a4_1",1,"native",1,4,0,NA,NA
"148",4,"a4_2",1,"native",1,1,0,NA,NA
"149",4,"b2_4",1,"native",1,2,1,NA,NA
"150",4,"b4_2",1,"native",1,5,1,NA,NA
"151",4,"a1_5",1,"second",1,4,0,NA,NA
"152",4,"a1_3",1,"second",1,3,0,NA,NA
"153",4,"a3_2",1,"second",1,3,0,NA,NA
"154",4,"b1_5",1,"second",1,5,1,NA,NA
"155",4,"b3_5",1,"second",1,5,1,NA,NA
"156",4,"a2_5",1,"native",1,6,0,NA,NA
"157",4,"a4_3",1,"native",1,2,0,NA,NA
"158",4,"b2_5",1,"native",1,5,1,NA,NA
"159",4,"b4_3",1,"native",1,5,1,NA,NA
"160",4,"b4_5",1,"native",1,5,1,NA,NA
"161",5,"a1_1",1,"second",1,4,0,NA,NA
"162",5,"a3_3",1,"second",1,1,0,NA,NA
"163",5,"b1_1",1,"second",1,3,1,NA,NA
"164",5,"b1_2",1,"second",1,4,1,NA,NA
"165",5,"b3_3",1,"second",1,3,1,NA,NA
"166",5,"a2_1",1,"native",1,4,0,NA,NA
"167",5,"a2_4",1,"native",1,3,0,NA,NA
"168",5,"a4_4",1,"native",1,2,0,NA,NA
"169",5,"b2_1",1,"native",1,3,1,NA,NA
"170",5,"b4_4",1,"native",1,1,1,NA,NA
"171",5,"a1_2",1,"second",1,1,0,NA,NA
"172",5,"a3_4",1,"second",1,1,0,NA,NA
"173",5,"a3_5",1,"second",1,5,0,NA,NA
"174",5,"b1_3",1,"second",1,4,1,NA,NA
"175",5,"b3_4",1,"second",1,3,1,NA,NA
"176",5,"a2_2",1,"native",1,2,0,NA,NA
"177",5,"a4_5",1,"native",1,4,0,NA,NA
"178",5,"b2_2",1,"native",1,1,1,NA,NA
"179",5,"b2_3",1,"native",1,3,1,NA,NA
"180",5,"b4_1",1,"native",1,1,1,NA,NA
"181",5,"a1_4",1,"second",1,2,0,NA,NA
"182",5,"a3_1",1,"second",1,3,0,NA,NA
"183",5,"b1_4",1,"second",1,4,1,NA,NA
"184",5,"b3_1",1,"second",1,1,1,NA,NA
"185",5,"b3_2",1,"second",1,1,1,NA,NA
"186",5,"a2_3",1,"native",1,4,0,NA,NA
"187",5,"a4_1",1,"native",1,4,0,NA,NA
"188",5,"a4_2",1,"native",1,4,0,NA,NA
"189",5,"b2_4",1,"native",1,2,1,NA,NA
"190",5,"b4_2",1,"native",1,3,1,NA,NA
"191",5,"a1_5",1,"second",1,5,0,NA,NA
"192",5,"a1_3",1,"second",1,5,0,NA,NA
"193",5,"a3_2",1,"second",1,4,0,NA,NA
"194",5,"b1_5",1,"second",1,4,1,NA,NA
"195",5,"b3_5",1,"second",1,4,1,NA,NA
"196",5,"a2_5",1,"native",1,1,0,NA,NA
"197",5,"a4_3",1,"native",1,1,0,NA,NA
"198",5,"b2_5",1,"native",1,2,1,NA,NA
"199",5,"b4_3",1,"native",1,3,1,NA,NA
"200",5,"b4_5",1,"native",1,4,1,NA,NA
"201",6,NA,1,"native",1,6,0,NA,NA
"202",6,NA,1,"native",1,5,0,NA,NA
"203",6,NA,1,"native",1,2,1,NA,NA
"204",6,NA,1,"native",1,3,1,NA,NA
"205",6,NA,1,"native",1,5,1,NA,NA
"206",6,NA,1,"second",1,4,0,NA,NA
"207",6,NA,1,"second",1,4,0,NA,NA
"208",6,NA,1,"second",1,5,0,NA,NA
"209",6,NA,1,"second",1,3,1,NA,NA
"210",6,NA,1,"second",1,3,1,NA,NA
"211",6,NA,1,"native",1,1,0,NA,NA
"212",6,NA,1,"native",1,4,0,NA,NA
"213",6,NA,1,"native",1,3,0,NA,NA
"214",6,NA,1,"native",1,4,1,NA,NA
"215",6,NA,1,"native",1,1,1,NA,NA
"216",6,NA,1,"second",1,3,0,NA,NA
"217",6,NA,1,"second",1,2,0,NA,NA
"218",6,NA,1,"second",1,5,1,NA,NA
"219",6,NA,1,"second",1,5,1,NA,NA
"220",6,NA,1,"second",1,5,1,NA,NA
"221",6,NA,1,"native",1,5,0,NA,NA
"222",6,NA,1,"native",1,4,0,NA,NA
"223",6,NA,1,"native",1,3,1,NA,NA
"224",6,NA,1,"native",1,3,1,NA,NA
"225",6,NA,1,"native",1,2,1,NA,NA
"226",6,NA,1,"second",1,2,0,NA,NA
"227",6,NA,1,"second",1,2,0,NA,NA
"228",6,NA,1,"second",1,2,0,NA,NA
"229",6,NA,1,"second",1,5,1,NA,NA
"230",6,NA,1,"second",1,5,1,NA,NA
"231",6,NA,1,"native",1,6,0,NA,NA
"232",6,NA,1,"native",1,5,0,NA,NA
"233",6,NA,1,"native",1,3,0,NA,NA
"234",6,NA,1,"native",1,5,1,NA,NA
"235",6,NA,1,"native",1,3,1,NA,NA
"236",6,NA,1,"second",1,5,0,NA,NA
"237",6,NA,1,"second",1,4,0,NA,NA
"238",6,NA,1,"second",1,5,1,NA,NA
"239",6,NA,1,"second",1,6,1,NA,NA
"240",6,NA,1,"second",1,3,1,NA,NA
"241",7,NA,1,"native",1,3,0,NA,NA
"242",7,NA,1,"native",1,2,0,NA,NA
"243",7,NA,1,"native",1,2,1,NA,NA
"244",7,NA,1,"native",1,4,1,NA,NA
"245",7,NA,1,"native",1,6,1,NA,NA
"246",7,NA,1,"second",1,3,0,NA,NA
"247",7,NA,1,"second",1,3,0,NA,NA
"248",7,NA,1,"second",1,1,0,NA,NA
"249",7,NA,1,"second",1,6,1,NA,NA
"250",7,NA,1,"second",1,6,1,NA,NA
"251",7,NA,1,"native",1,3,0,NA,NA
"252",7,NA,1,"native",1,2,0,NA,NA
"253",7,NA,1,"native",1,3,0,NA,NA
"254",7,NA,1,"native",1,5,1,NA,NA
"255",7,NA,1,"native",1,5,1,NA,NA
"256",7,NA,1,"second",1,1,0,NA,NA
"257",7,NA,1,"second",1,2,0,NA,NA
"258",7,NA,1,"second",1,5,1,NA,NA
"259",7,NA,1,"second",1,6,1,NA,NA
"260",7,NA,1,"second",1,5,1,NA,NA
"261",7,NA,1,"native",1,2,0,NA,NA
"262",7,NA,1,"native",1,2,0,NA,NA
"263",7,NA,1,"native",1,6,1,NA,NA
"264",7,NA,1,"native",1,6,1,NA,NA
"265",7,NA,1,"native",1,6,1,NA,NA
"266",7,NA,1,"second",1,2,0,NA,NA
"267",7,NA,1,"second",1,4,0,NA,NA
"268",7,NA,1,"second",1,2,0,NA,NA
"269",7,NA,1,"second",1,5,1,NA,NA
"270",7,NA,1,"second",1,6,1,NA,NA
"271",7,NA,1,"native",1,2,0,NA,NA
"272",7,NA,1,"native",1,3,0,NA,NA
"273",7,NA,1,"native",1,2,0,NA,NA
"274",7,NA,1,"native",1,6,1,NA,NA
"275",7,NA,1,"native",1,6,1,NA,NA
"276",7,NA,1,"second",1,1,0,NA,NA
"277",7,NA,1,"second",1,2,0,NA,NA
"278",7,NA,1,"second",1,6,1,NA,NA
"279",7,NA,1,"second",1,6,1,NA,NA
"280",7,NA,1,"second",1,6,1,NA,NA
"281",8,"a1_1",1,"second",1,2,1,NA,NA
"282",8,"a3_3",1,"second",1,4,1,NA,NA
"283",8,"b1_1",1,"second",1,3,0,NA,NA
"284",8,"b1_2",1,"second",1,3,0,NA,NA
"285",8,"b3_3",1,"second",1,4,0,NA,NA
"286",8,"a2_1",1,"native",1,6,1,NA,NA
"287",8,"a2_4",1,"native",1,5,1,NA,NA
"288",8,"a4_4",1,"native",1,5,1,NA,NA
"289",8,"b2_1",1,"native",1,4,0,NA,NA
"290",8,"b4_4",1,"native",1,3,0,NA,NA
"291",8,"a1_2",1,"second",1,6,1,NA,NA
"292",8,"a3_4",1,"second",1,6,1,NA,NA
"293",8,"a3_5",1,"second",1,4,1,NA,NA
"294",8,"b1_3",1,"second",1,3,0,NA,NA
"295",8,"b3_4",1,"second",1,3,0,NA,NA
"296",8,"a2_2",1,"native",1,5,1,NA,NA
"297",8,"a4_5",1,"native",1,4,1,NA,NA
"298",8,"b2_2",1,"native",1,2,0,NA,NA
"299",8,"b2_3",1,"native",1,3,0,NA,NA
"300",8,"b4_1",1,"native",1,4,0,NA,NA
"301",8,"a1_4",1,"second",1,6,1,NA,NA
"302",8,"a3_1",1,"second",1,6,1,NA,NA
"303",8,"b1_4",1,"second",1,3,0,NA,NA
"304",8,"b3_1",1,"second",1,4,0,NA,NA
"305",8,"b3_2",1,"second",1,4,0,NA,NA
"306",8,"a2_3",1,"native",1,6,1,NA,NA
"307",8,"a4_1",1,"native",1,6,1,NA,NA
"308",8,"a4_2",1,"native",1,6,1,NA,NA
"309",8,"b2_4",1,"native",1,4,0,NA,NA
"310",8,"b4_2",1,"native",1,3,0,NA,NA
"311",8,"a1_5",1,"second",1,6,1,NA,NA
"312",8,"a1_3",1,"second",1,6,1,NA,NA
"313",8,"a3_2",1,"second",1,6,1,NA,NA
"314",8,"b1_5",1,"second",1,3,0,NA,NA
"315",8,"b3_5",1,"second",1,3,0,NA,NA
"316",8,"a2_5",1,"native",1,6,1,NA,NA
"317",8,"a4_3",1,"native",1,6,1,NA,NA
"318",8,"b2_5",1,"native",1,3,0,NA,NA
"319",8,"b4_3",1,"native",1,4,0,NA,NA
"320",8,"b4_5",1,"native",1,4,0,NA,NA
"321",9,NA,1,"native",1,4,0,NA,NA
"322",9,NA,1,"native",1,5,0,NA,NA
"323",9,NA,1,"native",1,6,1,NA,NA
"324",9,NA,1,"native",1,4,1,NA,NA
"325",9,NA,1,"native",1,1,1,NA,NA
"326",9,NA,1,"second",1,4,0,NA,NA
"327",9,NA,1,"second",1,3,0,NA,NA
"328",9,NA,1,"second",1,4,0,NA,NA
"329",9,NA,1,"second",1,3,1,NA,NA
"330",9,NA,1,"second",1,3,1,NA,NA
"331",9,NA,1,"native",1,3,0,NA,NA
"332",9,NA,1,"native",1,5,0,NA,NA
"333",9,NA,1,"native",1,4,0,NA,NA
"334",9,NA,1,"native",1,6,1,NA,NA
"335",9,NA,1,"native",1,1,1,NA,NA
"336",9,NA,1,"second",1,2,0,NA,NA
"337",9,NA,1,"second",1,3,0,NA,NA
"338",9,NA,1,"second",1,5,1,NA,NA
"339",9,NA,1,"second",1,5,1,NA,NA
"340",9,NA,1,"second",1,5,1,NA,NA
"341",9,NA,1,"native",1,4,0,NA,NA
"342",9,NA,1,"native",1,3,0,NA,NA
"343",9,NA,1,"native",1,2,1,NA,NA
"344",9,NA,1,"native",1,3,1,NA,NA
"345",9,NA,1,"native",1,6,1,NA,NA
"346",9,NA,1,"second",1,3,0,NA,NA
"347",9,NA,1,"second",1,4,0,NA,NA
"348",9,NA,1,"second",1,4,0,NA,NA
"349",9,NA,1,"second",1,2,1,NA,NA
"350",9,NA,1,"second",1,5,1,NA,NA
"351",9,NA,1,"native",1,3,0,NA,NA
"352",9,NA,1,"native",1,5,0,NA,NA
"353",9,NA,1,"native",1,4,0,NA,NA
"354",9,NA,1,"native",1,5,1,NA,NA
"355",9,NA,1,"native",1,2,1,NA,NA
"356",9,NA,1,"second",1,5,0,NA,NA
"357",9,NA,1,"second",1,3,0,NA,NA
"358",9,NA,1,"second",1,3,1,NA,NA
"359",9,NA,1,"second",1,5,1,NA,NA
"360",9,NA,1,"second",1,4,1,NA,NA
"361",10,NA,1,"native",1,4,0,NA,NA
"362",10,NA,1,"native",1,5,0,NA,NA
"363",10,NA,1,"native",1,1,1,NA,NA
"364",10,NA,1,"native",1,4,1,NA,NA
"365",10,NA,1,"native",1,5,1,NA,NA
"366",10,NA,1,"second",1,4,0,NA,NA
"367",10,NA,1,"second",1,3,0,NA,NA
"368",10,NA,1,"second",1,4,0,NA,NA
"369",10,NA,1,"second",1,5,1,NA,NA
"370",10,NA,1,"second",1,2,1,NA,NA
"371",10,NA,1,"native",1,3,0,NA,NA
"372",10,NA,1,"native",1,2,0,NA,NA
"373",10,NA,1,"native",1,5,0,NA,NA
"374",10,NA,1,"native",1,4,1,NA,NA
"375",10,NA,1,"native",1,3,1,NA,NA
"376",10,NA,1,"second",1,6,0,NA,NA
"377",10,NA,1,"second",1,2,0,NA,NA
"378",10,NA,1,"second",1,5,1,NA,NA
"379",10,NA,1,"second",1,4,1,NA,NA
"380",10,NA,1,"second",1,5,1,NA,NA
"381",10,NA,1,"native",1,4,0,NA,NA
"382",10,NA,1,"native",1,2,0,NA,NA
"383",10,NA,1,"native",1,5,1,NA,NA
"384",10,NA,1,"native",1,5,1,NA,NA
"385",10,NA,1,"native",1,4,1,NA,NA
"386",10,NA,1,"second",1,5,0,NA,NA
"387",10,NA,1,"second",1,2,0,NA,NA
"388",10,NA,1,"second",1,6,0,NA,NA
"389",10,NA,1,"second",1,2,1,NA,NA
"390",10,NA,1,"second",1,4,1,NA,NA
"391",10,NA,1,"native",1,5,0,NA,NA
"392",10,NA,1,"native",1,5,0,NA,NA
"393",10,NA,1,"native",1,3,0,NA,NA
"394",10,NA,1,"native",1,5,1,NA,NA
"395",10,NA,1,"native",1,4,1,NA,NA
"396",10,NA,1,"second",1,2,0,NA,NA
"397",10,NA,1,"second",1,5,0,NA,NA
"398",10,NA,1,"second",1,3,1,NA,NA
"399",10,NA,1,"second",1,5,1,NA,NA
"400",10,NA,1,"second",1,3,1,NA,NA
"401",11,NA,1,"native",1,2,0,NA,NA
"402",11,NA,1,"native",1,2,0,NA,NA
"403",11,NA,1,"native",1,2,1,NA,NA
"404",11,NA,1,"native",1,2,1,NA,NA
"405",11,NA,1,"native",1,5,1,NA,NA
"406",11,NA,1,"second",1,2,0,NA,NA
"407",11,NA,1,"second",1,2,0,NA,NA
"408",11,NA,1,"second",1,3,0,NA,NA
"409",11,NA,1,"second",1,5,1,NA,NA
"410",11,NA,1,"second",1,1,1,NA,NA
"411",11,NA,1,"native",1,1,0,NA,NA
"412",11,NA,1,"native",1,2,0,NA,NA
"413",11,NA,1,"native",1,2,0,NA,NA
"414",11,NA,1,"native",1,6,1,NA,NA
"415",11,NA,1,"native",1,5,1,NA,NA
"416",11,NA,1,"second",1,1,0,NA,NA
"417",11,NA,1,"second",1,2,0,NA,NA
"418",11,NA,1,"second",1,6,1,NA,NA
"419",11,NA,1,"second",1,3,1,NA,NA
"420",11,NA,1,"second",1,6,1,NA,NA
"421",11,NA,1,"native",1,3,0,NA,NA
"422",11,NA,1,"native",1,3,0,NA,NA
"423",11,NA,1,"native",1,6,1,NA,NA
"424",11,NA,1,"native",1,6,1,NA,NA
"425",11,NA,1,"native",1,6,1,NA,NA
"426",11,NA,1,"second",1,2,0,NA,NA
"427",11,NA,1,"second",1,4,0,NA,NA
"428",11,NA,1,"second",1,2,0,NA,NA
"429",11,NA,1,"second",1,6,1,NA,NA
"430",11,NA,1,"second",1,6,1,NA,NA
"431",11,NA,1,"native",1,3,0,NA,NA
"432",11,NA,1,"native",1,2,0,NA,NA
"433",11,NA,1,"native",1,2,0,NA,NA
"434",11,NA,1,"native",1,6,1,NA,NA
"435",11,NA,1,"native",1,6,1,NA,NA
"436",11,NA,1,"second",1,2,0,NA,NA
"437",11,NA,1,"second",1,1,0,NA,NA
"438",11,NA,1,"second",1,5,1,NA,NA
"439",11,NA,1,"second",1,6,1,NA,NA
"440",11,NA,1,"second",1,2,1,NA,NA
"441",12,"a1_1",1,"second",1,4,1,NA,NA
"442",12,"a3_3",1,"second",1,2,1,NA,NA
"443",12,"b1_1",1,"second",1,2,0,NA,NA
"444",12,"b1_2",1,"second",1,4,0,NA,NA
"445",12,"b3_3",1,"second",1,5,0,NA,NA
"446",12,"a2_1",1,"native",1,4,1,NA,NA
"447",12,"a2_4",1,"native",1,5,1,NA,NA
"448",12,"a4_4",1,"native",1,3,1,NA,NA
"449",12,"b2_1",1,"native",1,4,0,NA,NA
"450",12,"b4_4",1,"native",1,3,0,NA,NA
"451",12,"a1_2",1,"second",1,6,1,NA,NA
"452",12,"a3_4",1,"second",1,3,1,NA,NA
"453",12,"a3_5",1,"second",1,2,1,NA,NA
"454",12,"b1_3",1,"second",1,4,0,NA,NA
"455",12,"b3_4",1,"second",1,2,0,NA,NA
"456",12,"a2_2",1,"native",1,1,1,NA,NA
"457",12,"a4_5",1,"native",1,6,1,NA,NA
"458",12,"b2_2",1,"native",1,4,0,NA,NA
"459",12,"b2_3",1,"native",1,3,0,NA,NA
"460",12,"b4_1",1,"native",1,5,0,NA,NA
"461",12,"a1_4",1,"second",1,2,1,NA,NA
"462",12,"a3_1",1,"second",1,5,1,NA,NA
"463",12,"b1_4",1,"second",1,3,0,NA,NA
"464",12,"b3_1",1,"second",1,4,0,NA,NA
"465",12,"b3_2",1,"second",1,5,0,NA,NA
"466",12,"a2_3",1,"native",1,1,1,NA,NA
"467",12,"a4_1",1,"native",1,2,1,NA,NA
"468",12,"a4_2",1,"native",1,2,1,NA,NA
"469",12,"b2_4",1,"native",1,2,0,NA,NA
"470",12,"b4_2",1,"native",1,2,0,NA,NA
"471",12,"a1_5",1,"second",1,5,1,NA,NA
"472",12,"a1_3",1,"second",1,5,1,NA,NA
"473",12,"a3_2",1,"second",1,5,1,NA,NA
"474",12,"b1_5",1,"second",1,5,0,NA,NA
"475",12,"b3_5",1,"second",1,4,0,NA,NA
"476",12,"a2_5",1,"native",1,5,1,NA,NA
"477",12,"a4_3",1,"native",1,2,1,NA,NA
"478",12,"b2_5",1,"native",1,5,0,NA,NA
"479",12,"b4_3",1,"native",1,5,0,NA,NA
"480",12,"b4_5",1,"native",1,5,0,NA,NA
"481",13,NA,1,"native",1,5,1,NA,NA
"482",13,NA,1,"native",1,2,1,NA,NA
"483",13,NA,1,"native",1,4,0,NA,NA
"484",13,NA,1,"native",1,1,0,NA,NA
"485",13,NA,1,"native",1,5,0,NA,NA
"486",13,NA,1,"second",1,4,1,NA,NA
"487",13,NA,1,"second",1,3,1,NA,NA
"488",13,NA,1,"second",1,1,1,NA,NA
"489",13,NA,1,"second",1,2,0,NA,NA
"490",13,NA,1,"second",1,3,0,NA,NA
"491",13,NA,1,"native",1,1,1,NA,NA
"492",13,NA,1,"native",1,5,1,NA,NA
"493",13,NA,1,"native",1,2,1,NA,NA
"494",13,NA,1,"native",1,4,0,NA,NA
"495",13,NA,1,"native",1,2,0,NA,NA
"496",13,NA,1,"second",1,2,1,NA,NA
"497",13,NA,1,"second",1,2,1,NA,NA
"498",13,NA,1,"second",1,2,0,NA,NA
"499",13,NA,1,"second",1,3,0,NA,NA
"500",13,NA,1,"second",1,5,0,NA,NA
"501",13,NA,1,"native",1,4,1,NA,NA
"502",13,NA,1,"native",1,2,1,NA,NA
"503",13,NA,1,"native",1,3,0,NA,NA
"504",13,NA,1,"native",1,1,0,NA,NA
"505",13,NA,1,"native",1,4,0,NA,NA
"506",13,NA,1,"second",1,4,1,NA,NA
"507",13,NA,1,"second",1,3,1,NA,NA
"508",13,NA,1,"second",1,3,1,NA,NA
"509",13,NA,1,"second",1,2,0,NA,NA
"510",13,NA,1,"second",1,4,0,NA,NA
"511",13,NA,1,"native",1,5,1,NA,NA
"512",13,NA,1,"native",1,4,1,NA,NA
"513",13,NA,1,"native",1,4,1,NA,NA
"514",13,NA,1,"native",1,3,0,NA,NA
"515",13,NA,1,"native",1,3,0,NA,NA
"516",13,NA,1,"second",1,5,1,NA,NA
"517",13,NA,1,"second",1,1,1,NA,NA
"518",13,NA,1,"second",1,5,0,NA,NA
"519",13,NA,1,"second",1,3,0,NA,NA
"520",13,NA,1,"second",1,6,0,NA,NA
"521",14,NA,1,"native",1,4,1,NA,NA
"522",14,NA,1,"native",1,4,1,NA,NA
"523",14,NA,1,"native",1,4,0,NA,NA
"524",14,NA,1,"native",1,4,0,NA,NA
"525",14,NA,1,"native",1,3,0,NA,NA
"526",14,NA,1,"second",1,3,1,NA,NA
"527",14,NA,1,"second",1,6,1,NA,NA
"528",14,NA,1,"second",1,3,1,NA,NA
"529",14,NA,1,"second",1,3,0,NA,NA
"530",14,NA,1,"second",1,3,0,NA,NA
"531",14,NA,1,"native",1,6,1,NA,NA
"532",14,NA,1,"native",1,6,1,NA,NA
"533",14,NA,1,"native",1,3,1,NA,NA
"534",14,NA,1,"native",1,3,0,NA,NA
"535",14,NA,1,"native",1,1,0,NA,NA
"536",14,NA,1,"second",1,1,1,NA,NA
"537",14,NA,1,"second",1,1,1,NA,NA
"538",14,NA,1,"second",1,3,0,NA,NA
"539",14,NA,1,"second",1,3,0,NA,NA
"540",14,NA,1,"second",1,5,0,NA,NA
"541",14,NA,1,"native",1,6,1,NA,NA
"542",14,NA,1,"native",1,6,1,NA,NA
"543",14,NA,1,"native",1,3,0,NA,NA
"544",14,NA,1,"native",1,6,0,NA,NA
"545",14,NA,1,"native",1,3,0,NA,NA
"546",14,NA,1,"second",1,6,1,NA,NA
"547",14,NA,1,"second",1,6,1,NA,NA
"548",14,NA,1,"second",1,6,1,NA,NA
"549",14,NA,1,"second",1,3,0,NA,NA
"550",14,NA,1,"second",1,3,0,NA,NA
"551",14,NA,1,"native",1,4,1,NA,NA
"552",14,NA,1,"native",1,6,1,NA,NA
"553",14,NA,1,"native",1,5,1,NA,NA
"554",14,NA,1,"native",1,3,0,NA,NA
"555",14,NA,1,"native",1,3,0,NA,NA
"556",14,NA,1,"second",1,6,1,NA,NA
"557",14,NA,1,"second",1,6,1,NA,NA
"558",14,NA,1,"second",1,3,0,NA,NA
"559",14,NA,1,"second",1,4,0,NA,NA
"560",14,NA,1,"second",1,4,0,NA,NA
"561",15,"a1_1",1,"second",1,5,0,NA,NA
"562",15,"a3_3",1,"second",1,5,0,NA,NA
"563",15,"b1_1",1,"second",1,6,1,NA,NA
"564",15,"b1_2",1,"second",1,6,1,NA,NA
"565",15,"b3_3",1,"second",1,5,1,NA,NA
"566",15,"a2_1",1,"native",1,4,0,NA,NA
"567",15,"a2_4",1,"native",1,3,0,NA,NA
"568",15,"a4_4",1,"native",1,2,0,NA,NA
"569",15,"b2_1",1,"native",1,6,1,NA,NA
"570",15,"b4_4",1,"native",1,6,1,NA,NA
"571",15,"a1_2",1,"second",1,6,0,NA,NA
"572",15,"a3_4",1,"second",1,5,0,NA,NA
"573",15,"a3_5",1,"second",1,4,0,NA,NA
"574",15,"b1_3",1,"second",1,6,1,NA,NA
"575",15,"b3_4",1,"second",1,4,1,NA,NA
"576",15,"a2_2",1,"native",1,3,0,NA,NA
"577",15,"a4_5",1,"native",1,4,0,NA,NA
"578",15,"b2_2",1,"native",1,6,1,NA,NA
"579",15,"b2_3",1,"native",1,6,1,NA,NA
"580",15,"b4_1",1,"native",1,6,1,NA,NA
"581",15,"a1_4",1,"second",1,1,0,NA,NA
"582",15,"a3_1",1,"second",1,4,0,NA,NA
"583",15,"b1_4",1,"second",1,6,1,NA,NA
"584",15,"b3_1",1,"second",1,6,1,NA,NA
"585",15,"b3_2",1,"second",1,6,1,NA,NA
"586",15,"a2_3",1,"native",1,3,0,NA,NA
"587",15,"a4_1",1,"native",1,4,0,NA,NA
"588",15,"a4_2",1,"native",1,5,0,NA,NA
"589",15,"b2_4",1,"native",1,6,1,NA,NA
"590",15,"b4_2",1,"native",1,6,1,NA,NA
"591",15,"a1_5",1,"second",1,4,0,NA,NA
"592",15,"a1_3",1,"second",1,3,0,NA,NA
"593",15,"a3_2",1,"second",1,5,0,NA,NA
"594",15,"b1_5",1,"second",1,6,1,NA,NA
"595",15,"b3_5",1,"second",1,6,1,NA,NA
"596",15,"a2_5",1,"native",1,5,0,NA,NA
"597",15,"a4_3",1,"native",1,1,0,NA,NA
"598",15,"b2_5",1,"native",1,6,1,NA,NA
"599",15,"b4_3",1,"native",1,6,1,NA,NA
"600",15,"b4_5",1,"native",1,5,1,NA,NA
"601",16,"a1_1",1,"second",1,4,0,NA,NA
"602",16,"a3_3",1,"second",1,4,0,NA,NA
"603",16,"b1_1",1,"second",1,5,1,NA,NA
"604",16,"b1_2",1,"second",1,2,1,NA,NA
"605",16,"b3_3",1,"second",1,5,1,NA,NA
"606",16,"a2_1",1,"native",1,3,0,NA,NA
"607",16,"a2_4",1,"native",1,4,0,NA,NA
"608",16,"a4_4",1,"native",1,4,0,NA,NA
"609",16,"b2_1",1,"native",1,3,1,NA,NA
"610",16,"b4_4",1,"native",1,4,1,NA,NA
"611",16,"a1_2",1,"second",1,2,0,NA,NA
"612",16,"a3_4",1,"second",1,4,0,NA,NA
"613",16,"a3_5",1,"second",1,2,0,NA,NA
"614",16,"b1_3",1,"second",1,2,1,NA,NA
"615",16,"b3_4",1,"second",1,1,1,NA,NA
"616",16,"a2_2",1,"native",1,3,0,NA,NA
"617",16,"a4_5",1,"native",1,4,0,NA,NA
"618",16,"b2_2",1,"native",1,5,1,NA,NA
"619",16,"b2_3",1,"native",1,4,1,NA,NA
"620",16,"b4_1",1,"native",1,5,1,NA,NA
"621",16,"a1_4",1,"second",1,5,0,NA,NA
"622",16,"a3_1",1,"second",1,4,0,NA,NA
"623",16,"b1_4",1,"second",1,2,1,NA,NA
"624",16,"b3_1",1,"second",1,6,1,NA,NA
"625",16,"b3_2",1,"second",1,4,1,NA,NA
"626",16,"a2_3",1,"native",1,1,0,NA,NA
"627",16,"a4_1",1,"native",1,2,0,NA,NA
"628",16,"a4_2",1,"native",1,1,0,NA,NA
"629",16,"b2_4",1,"native",1,4,1,NA,NA
"630",16,"b4_2",1,"native",1,4,1,NA,NA
"631",16,"a1_5",1,"second",1,4,0,NA,NA
"632",16,"a1_3",1,"second",1,3,0,NA,NA
"633",16,"a3_2",1,"second",1,1,0,NA,NA
"634",16,"b1_5",1,"second",1,6,1,NA,NA
"635",16,"b3_5",1,"second",1,5,1,NA,NA
"636",16,"a2_5",1,"native",1,4,0,NA,NA
"637",16,"a4_3",1,"native",1,1,0,NA,NA
"638",16,"b2_5",1,"native",1,3,1,NA,NA
"639",16,"b4_3",1,"native",1,3,1,NA,NA
"640",16,"b4_5",1,"native",1,5,1,NA,NA
"641",17,"a1_1",1,"second",1,6,0,NA,NA
"642",17,"a3_3",1,"second",1,2,0,NA,NA
"643",17,"b1_1",1,"second",1,2,1,NA,NA
"644",17,"b1_2",1,"second",1,1,1,NA,NA
"645",17,"b3_3",1,"second",1,1,1,NA,NA
"646",17,"a2_1",1,"native",1,1,0,NA,NA
"647",17,"a2_4",1,"native",1,6,0,NA,NA
"648",17,"a4_4",1,"native",1,2,0,NA,NA
"649",17,"b2_1",1,"native",1,4,1,NA,NA
"650",17,"b4_4",1,"native",1,6,1,NA,NA
"651",17,"a1_2",1,"second",1,6,0,NA,NA
"652",17,"a3_4",1,"second",1,2,0,NA,NA
"653",17,"a3_5",1,"second",1,1,0,NA,NA
"654",17,"b1_3",1,"second",1,1,1,NA,NA
"655",17,"b3_4",1,"second",1,1,1,NA,NA
"656",17,"a2_2",1,"native",1,6,0,NA,NA
"657",17,"a4_5",1,"native",1,3,0,NA,NA
"658",17,"b2_2",1,"native",1,6,1,NA,NA
"659",17,"b2_3",1,"native",1,2,1,NA,NA
"660",17,"b4_1",1,"native",1,1,1,NA,NA
"661",17,"a1_4",1,"second",1,5,0,NA,NA
"662",17,"a3_1",1,"second",1,4,0,NA,NA
"663",17,"b1_4",1,"second",1,1,1,NA,NA
"664",17,"b3_1",1,"second",1,1,1,NA,NA
"665",17,"b3_2",1,"second",1,2,1,NA,NA
"666",17,"a2_3",1,"native",1,4,0,NA,NA
"667",17,"a4_1",1,"native",1,4,0,NA,NA
"668",17,"a4_2",1,"native",1,2,0,NA,NA
"669",17,"b2_4",1,"native",1,5,1,NA,NA
"670",17,"b4_2",1,"native",1,6,1,NA,NA
"671",17,"a1_5",1,"second",1,6,0,NA,NA
"672",17,"a1_3",1,"second",1,4,0,NA,NA
"673",17,"a3_2",1,"second",1,3,0,NA,NA
"674",17,"b1_5",1,"second",1,6,1,NA,NA
"675",17,"b3_5",1,"second",1,6,1,NA,NA
"676",17,"a2_5",1,"native",1,1,0,NA,NA
"677",17,"a4_3",1,"native",1,1,0,NA,NA
"678",17,"b2_5",1,"native",1,2,1,NA,NA
"679",17,"b4_3",1,"native",1,6,1,NA,NA
"680",17,"b4_5",1,"native",1,1,1,NA,NA
"681",18,NA,1,"native",1,3,0,NA,NA
"682",18,NA,1,"native",1,4,0,NA,NA
"683",18,NA,1,"native",1,2,1,NA,NA
"684",18,NA,1,"native",1,3,1,NA,NA
"685",18,NA,1,"native",1,3,1,NA,NA
"686",18,NA,1,"second",1,4,0,NA,NA
"687",18,NA,1,"second",1,4,0,NA,NA
"688",18,NA,1,"second",1,5,0,NA,NA
"689",18,NA,1,"second",1,2,1,NA,NA
"690",18,NA,1,"second",1,5,1,NA,NA
"691",18,NA,1,"native",1,2,0,NA,NA
"692",18,NA,1,"native",1,5,0,NA,NA
"693",18,NA,1,"native",1,3,0,NA,NA
"694",18,NA,1,"native",1,2,1,NA,NA
"695",18,NA,1,"native",1,5,1,NA,NA
"696",18,NA,1,"second",1,1,0,NA,NA
"697",18,NA,1,"second",1,6,0,NA,NA
"698",18,NA,1,"second",1,5,1,NA,NA
"699",18,NA,1,"second",1,1,1,NA,NA
"700",18,NA,1,"second",1,2,1,NA,NA
"701",18,NA,1,"native",1,4,0,NA,NA
"702",18,NA,1,"native",1,1,0,NA,NA
"703",18,NA,1,"native",1,2,1,NA,NA
"704",18,NA,1,"native",1,6,1,NA,NA
"705",18,NA,1,"native",1,2,1,NA,NA
"706",18,NA,1,"second",1,3,0,NA,NA
"707",18,NA,1,"second",1,4,0,NA,NA
"708",18,NA,1,"second",1,6,0,NA,NA
"709",18,NA,1,"second",1,2,1,NA,NA
"710",18,NA,1,"second",1,2,1,NA,NA
"711",18,NA,1,"native",1,2,0,NA,NA
"712",18,NA,1,"native",1,6,0,NA,NA
"713",18,NA,1,"native",1,6,0,NA,NA
"714",18,NA,1,"native",1,5,1,NA,NA
"715",18,NA,1,"native",1,2,1,NA,NA
"716",18,NA,1,"second",1,2,0,NA,NA
"717",18,NA,1,"second",1,1,0,NA,NA
"718",18,NA,1,"second",1,3,1,NA,NA
"719",18,NA,1,"second",1,2,1,NA,NA
"720",18,NA,1,"second",1,4,1,NA,NA
"721",23,"a1_1",1,"second",1,4,0,NA,NA
"722",23,"a3_3",1,"second",1,1,0,NA,NA
"723",23,"b1_1",1,"second",1,2,1,NA,NA
"724",23,"b1_2",1,"second",1,3,1,NA,NA
"725",23,"b3_3",1,"second",1,3,1,NA,NA
"726",23,"a2_1",1,"native",1,2,0,NA,NA
"727",23,"a2_4",1,"native",1,2,0,NA,NA
"728",23,"a4_4",1,"native",1,4,0,NA,NA
"729",23,"b2_1",1,"native",1,2,1,NA,NA
"730",23,"b4_4",1,"native",1,2,1,NA,NA
"731",23,"a1_2",1,"second",1,4,0,NA,NA
"732",23,"a3_4",1,"second",1,6,0,NA,NA
"733",23,"a3_5",1,"second",1,4,0,NA,NA
"734",23,"b1_3",1,"second",1,3,1,NA,NA
"735",23,"b3_4",1,"second",1,5,1,NA,NA
"736",23,"a2_2",1,"native",1,6,0,NA,NA
"737",23,"a4_5",1,"native",1,3,0,NA,NA
"738",23,"b2_2",1,"native",1,2,1,NA,NA
"739",23,"b2_3",1,"native",1,5,1,NA,NA
"740",23,"b4_1",1,"native",1,6,1,NA,NA
"741",23,"a1_4",1,"second",1,4,0,NA,NA
"742",23,"a3_1",1,"second",1,4,0,NA,NA
"743",23,"b1_4",1,"second",1,3,1,NA,NA
"744",23,"b3_1",1,"second",1,3,1,NA,NA
"745",23,"b3_2",1,"second",1,4,1,NA,NA
"746",23,"a2_3",1,"native",1,3,0,NA,NA
"747",23,"a4_1",1,"native",1,4,0,NA,NA
"748",23,"a4_2",1,"native",1,5,0,NA,NA
"749",23,"b2_4",1,"native",1,4,1,NA,NA
"750",23,"b4_2",1,"native",1,5,1,NA,NA
"751",23,"a1_5",1,"second",1,2,0,NA,NA
"752",23,"a1_3",1,"second",1,4,0,NA,NA
"753",23,"a3_2",1,"second",1,3,0,NA,NA
"754",23,"b1_5",1,"second",1,3,1,NA,NA
"755",23,"b3_5",1,"second",1,6,1,NA,NA
"756",23,"a2_5",1,"native",1,3,0,NA,NA
"757",23,"a4_3",1,"native",1,5,0,NA,NA
"758",23,"b2_5",1,"native",1,5,1,NA,NA
"759",23,"b4_3",1,"native",1,4,1,NA,NA
"760",23,"b4_5",1,"native",1,3,1,NA,NA
"761",24,NA,1,"native",1,3,0,NA,NA
"762",24,NA,1,"native",1,2,0,NA,NA
"763",24,NA,1,"native",1,5,1,NA,NA
"764",24,NA,1,"native",1,3,1,NA,NA
"765",24,NA,1,"native",1,2,1,NA,NA
"766",24,NA,1,"second",1,2,0,NA,NA
"767",24,NA,1,"second",1,5,0,NA,NA
"768",24,NA,1,"second",1,2,0,NA,NA
"769",24,NA,1,"second",1,5,1,NA,NA
"770",24,NA,1,"second",1,5,1,NA,NA
"771",24,NA,1,"native",1,1,0,NA,NA
"772",24,NA,1,"native",1,4,0,NA,NA
"773",24,NA,1,"native",1,5,0,NA,NA
"774",24,NA,1,"native",1,2,1,NA,NA
"775",24,NA,1,"native",1,5,1,NA,NA
"776",24,NA,1,"second",1,1,0,NA,NA
"777",24,NA,1,"second",1,2,0,NA,NA
"778",24,NA,1,"second",1,5,1,NA,NA
"779",24,NA,1,"second",1,5,1,NA,NA
"780",24,NA,1,"second",1,5,1,NA,NA
"781",24,NA,1,"native",1,5,0,NA,NA
"782",24,NA,1,"native",1,5,0,NA,NA
"783",24,NA,1,"native",1,3,1,NA,NA
"784",24,NA,1,"native",1,5,1,NA,NA
"785",24,NA,1,"native",1,5,1,NA,NA
"786",24,NA,1,"second",1,5,0,NA,NA
"787",24,NA,1,"second",1,5,0,NA,NA
"788",24,NA,1,"second",1,5,0,NA,NA
"789",24,NA,1,"second",1,5,1,NA,NA
"790",24,NA,1,"second",1,2,1,NA,NA
"791",24,NA,1,"native",1,5,0,NA,NA
"792",24,NA,1,"native",1,5,0,NA,NA
"793",24,NA,1,"native",1,2,0,NA,NA
"794",24,NA,1,"native",1,5,1,NA,NA
"795",24,NA,1,"native",1,5,1,NA,NA
"796",24,NA,1,"second",1,5,0,NA,NA
"797",24,NA,1,"second",1,5,0,NA,NA
"798",24,NA,1,"second",1,5,1,NA,NA
"799",24,NA,1,"second",1,5,1,NA,NA
"800",24,NA,1,"second",1,5,1,NA,NA
"801",25,"a1_1",1,"second",1,3,1,NA,NA
"802",25,"a3_3",1,"second",1,6,1,NA,NA
"803",25,"b1_1",1,"second",1,2,0,NA,NA
"804",25,"b1_2",1,"second",1,4,0,NA,NA
"805",25,"b3_3",1,"second",1,2,0,NA,NA
"806",25,"a2_1",1,"native",1,5,1,NA,NA
"807",25,"a2_4",1,"native",1,3,1,NA,NA
"808",25,"a4_4",1,"native",1,5,1,NA,NA
"809",25,"b2_1",1,"native",1,2,0,NA,NA
"810",25,"b4_4",1,"native",1,3,0,NA,NA
"811",25,"a1_2",1,"second",1,2,1,NA,NA
"812",25,"a3_4",1,"second",1,2,1,NA,NA
"813",25,"a3_5",1,"second",1,4,1,NA,NA
"814",25,"b1_3",1,"second",1,2,0,NA,NA
"815",25,"b3_4",1,"second",1,4,0,NA,NA
"816",25,"a2_2",1,"native",1,2,1,NA,NA
"817",25,"a4_5",1,"native",1,3,1,NA,NA
"818",25,"b2_2",1,"native",1,1,0,NA,NA
"819",25,"b2_3",1,"native",1,5,0,NA,NA
"820",25,"b4_1",1,"native",1,5,0,NA,NA
"821",25,"a1_4",1,"second",1,5,1,NA,NA
"822",25,"a3_1",1,"second",1,4,1,NA,NA
"823",25,"b1_4",1,"second",1,3,0,NA,NA
"824",25,"b3_1",1,"second",1,3,0,NA,NA
"825",25,"b3_2",1,"second",1,3,0,NA,NA
"826",25,"a2_3",1,"native",1,2,1,NA,NA
"827",25,"a4_1",1,"native",1,2,1,NA,NA
"828",25,"a4_2",1,"native",1,5,1,NA,NA
"829",25,"b2_4",1,"native",1,5,0,NA,NA
"830",25,"b4_2",1,"native",1,4,0,NA,NA
"831",25,"a1_5",1,"second",1,4,1,NA,NA
"832",25,"a1_3",1,"second",1,5,1,NA,NA
"833",25,"a3_2",1,"second",1,4,1,NA,NA
"834",25,"b1_5",1,"second",1,3,0,NA,NA
"835",25,"b3_5",1,"second",1,5,0,NA,NA
"836",25,"a2_5",1,"native",1,1,1,NA,NA
"837",25,"a4_3",1,"native",1,2,1,NA,NA
"838",25,"b2_5",1,"native",1,4,0,NA,NA
"839",25,"b4_3",1,"native",1,4,0,NA,NA
"840",25,"b4_5",1,"native",1,5,0,NA,NA
"841",26,NA,1,"native",1,3,1,NA,NA
"842",26,NA,1,"native",1,4,1,NA,NA
"843",26,NA,1,"native",1,5,0,NA,NA
"844",26,NA,1,"native",1,3,0,NA,NA
"845",26,NA,1,"native",1,3,0,NA,NA
"846",26,NA,1,"second",1,4,1,NA,NA
"847",26,NA,1,"second",1,3,1,NA,NA
"848",26,NA,1,"second",1,2,1,NA,NA
"849",26,NA,1,"second",1,3,0,NA,NA
"850",26,NA,1,"second",1,4,0,NA,NA
"851",26,NA,1,"native",1,3,1,NA,NA
"852",26,NA,1,"native",1,4,1,NA,NA
"853",26,NA,1,"native",1,4,1,NA,NA
"854",26,NA,1,"native",1,4,0,NA,NA
"855",26,NA,1,"native",1,2,0,NA,NA
"856",26,NA,1,"second",1,3,1,NA,NA
"857",26,NA,1,"second",1,4,1,NA,NA
"858",26,NA,1,"second",1,5,0,NA,NA
"859",26,NA,1,"second",1,5,0,NA,NA
"860",26,NA,1,"second",1,4,0,NA,NA
"861",26,NA,1,"native",1,5,1,NA,NA
"862",26,NA,1,"native",1,4,1,NA,NA
"863",26,NA,1,"native",1,4,0,NA,NA
"864",26,NA,1,"native",1,3,0,NA,NA
"865",26,NA,1,"native",1,2,0,NA,NA
"866",26,NA,1,"second",1,4,1,NA,NA
"867",26,NA,1,"second",1,3,1,NA,NA
"868",26,NA,1,"second",1,4,1,NA,NA
"869",26,NA,1,"second",1,5,0,NA,NA
"870",26,NA,1,"second",1,2,0,NA,NA
"871",26,NA,1,"native",1,3,1,NA,NA
"872",26,NA,1,"native",1,3,1,NA,NA
"873",26,NA,1,"native",1,4,1,NA,NA
"874",26,NA,1,"native",1,4,0,NA,NA
"875",26,NA,1,"native",1,4,0,NA,NA
"876",26,NA,1,"second",1,1,1,NA,NA
"877",26,NA,1,"second",1,5,1,NA,NA
"878",26,NA,1,"second",1,4,0,NA,NA
"879",26,NA,1,"second",1,5,0,NA,NA
"880",26,NA,1,"second",1,3,0,NA,NA
"881",27,NA,1,"native",1,5,1,NA,NA
"882",27,NA,1,"native",1,2,1,NA,NA
"883",27,NA,1,"native",1,1,0,NA,NA
"884",27,NA,1,"native",1,5,0,NA,NA
"885",27,NA,1,"native",1,5,0,NA,NA
"886",27,NA,1,"second",1,4,1,NA,NA
"887",27,NA,1,"second",1,2,1,NA,NA
"888",27,NA,1,"second",1,1,1,NA,NA
"889",27,NA,1,"second",1,3,0,NA,NA
"890",27,NA,1,"second",1,3,0,NA,NA
"891",27,NA,1,"native",1,2,1,NA,NA
"892",27,NA,1,"native",1,6,1,NA,NA
"893",27,NA,1,"native",1,2,1,NA,NA
"894",27,NA,1,"native",1,3,0,NA,NA
"895",27,NA,1,"native",1,1,0,NA,NA
"896",27,NA,1,"second",1,3,1,NA,NA
"897",27,NA,1,"second",1,3,1,NA,NA
"898",27,NA,1,"second",1,3,0,NA,NA
"899",27,NA,1,"second",1,4,0,NA,NA
"900",27,NA,1,"second",1,5,0,NA,NA
"901",27,NA,1,"native",1,5,1,NA,NA
"902",27,NA,1,"native",1,6,1,NA,NA
"903",27,NA,1,"native",1,3,0,NA,NA
"904",27,NA,1,"native",1,5,0,NA,NA
"905",27,NA,1,"native",1,5,0,NA,NA
"906",27,NA,1,"second",1,3,1,NA,NA
"907",27,NA,1,"second",1,4,1,NA,NA
"908",27,NA,1,"second",1,1,1,NA,NA
"909",27,NA,1,"second",1,5,0,NA,NA
"910",27,NA,1,"second",1,4,0,NA,NA
"911",27,NA,1,"native",1,1,1,NA,NA
"912",27,NA,1,"native",1,3,1,NA,NA
"913",27,NA,1,"native",1,3,1,NA,NA
"914",27,NA,1,"native",1,2,0,NA,NA
"915",27,NA,1,"native",1,6,0,NA,NA
"916",27,NA,1,"second",1,2,1,NA,NA
"917",27,NA,1,"second",1,2,1,NA,NA
"918",27,NA,1,"second",1,2,0,NA,NA
"919",27,NA,1,"second",1,5,0,NA,NA
"920",27,NA,1,"second",1,2,0,NA,NA
"921",28,NA,1,"native",1,6,1,NA,NA
"922",28,NA,1,"native",1,5,1,NA,NA
"923",28,NA,1,"native",1,4,0,NA,NA
"924",28,NA,1,"native",1,5,0,NA,NA
"925",28,NA,1,"native",1,5,0,NA,NA
"926",28,NA,1,"second",1,6,1,NA,NA
"927",28,NA,1,"second",1,6,1,NA,NA
"928",28,NA,1,"second",1,2,1,NA,NA
"929",28,NA,1,"second",1,3,0,NA,NA
"930",28,NA,1,"second",1,3,0,NA,NA
"931",28,NA,1,"native",1,6,1,NA,NA
"932",28,NA,1,"native",1,6,1,NA,NA
"933",28,NA,1,"native",1,2,1,NA,NA
"934",28,NA,1,"native",1,2,0,NA,NA
"935",28,NA,1,"native",1,2,0,NA,NA
"936",28,NA,1,"second",1,1,1,NA,NA
"937",28,NA,1,"second",1,5,1,NA,NA
"938",28,NA,1,"second",1,3,0,NA,NA
"939",28,NA,1,"second",1,4,0,NA,NA
"940",28,NA,1,"second",1,5,0,NA,NA
"941",28,NA,1,"native",1,5,1,NA,NA
"942",28,NA,1,"native",1,5,1,NA,NA
"943",28,NA,1,"native",1,2,0,NA,NA
"944",28,NA,1,"native",1,2,0,NA,NA
"945",28,NA,1,"native",1,4,0,NA,NA
"946",28,NA,1,"second",1,5,1,NA,NA
"947",28,NA,1,"second",1,5,1,NA,NA
"948",28,NA,1,"second",1,5,1,NA,NA
"949",28,NA,1,"second",1,2,0,NA,NA
"950",28,NA,1,"second",1,3,0,NA,NA
"951",28,NA,1,"native",1,3,1,NA,NA
"952",28,NA,1,"native",1,6,1,NA,NA
"953",28,NA,1,"native",1,5,1,NA,NA
"954",28,NA,1,"native",1,4,0,NA,NA
"955",28,NA,1,"native",1,3,0,NA,NA
"956",28,NA,1,"second",1,5,1,NA,NA
"957",28,NA,1,"second",1,2,1,NA,NA
"958",28,NA,1,"second",1,4,0,NA,NA
"959",28,NA,1,"second",1,4,0,NA,NA
"960",28,NA,1,"second",1,4,0,NA,NA
"961",29,NA,1,"native",1,6,1,NA,NA
"962",29,NA,1,"native",1,2,1,NA,NA
"963",29,NA,1,"native",1,2,0,NA,NA
"964",29,NA,1,"native",1,2,0,NA,NA
"965",29,NA,1,"native",1,5,0,NA,NA
"966",29,NA,1,"second",1,4,1,NA,NA
"967",29,NA,1,"second",1,2,1,NA,NA
"968",29,NA,1,"second",1,5,1,NA,NA
"969",29,NA,1,"second",1,1,0,NA,NA
"970",29,NA,1,"second",1,6,0,NA,NA
"971",29,NA,1,"native",1,6,1,NA,NA
"972",29,NA,1,"native",1,4,1,NA,NA
"973",29,NA,1,"native",1,6,1,NA,NA
"974",29,NA,1,"native",1,1,0,NA,NA
"975",29,NA,1,"native",1,6,0,NA,NA
"976",29,NA,1,"second",1,1,1,NA,NA
"977",29,NA,1,"second",1,2,1,NA,NA
"978",29,NA,1,"second",1,5,0,NA,NA
"979",29,NA,1,"second",1,3,0,NA,NA
"980",29,NA,1,"second",1,6,0,NA,NA
"981",29,NA,1,"native",1,6,1,NA,NA
"982",29,NA,1,"native",1,6,1,NA,NA
"983",29,NA,1,"native",1,3,0,NA,NA
"984",29,NA,1,"native",1,5,0,NA,NA
"985",29,NA,1,"native",1,6,0,NA,NA
"986",29,NA,1,"second",1,1,1,NA,NA
"987",29,NA,1,"second",1,4,1,NA,NA
"988",29,NA,1,"second",1,4,1,NA,NA
"989",29,NA,1,"second",1,1,0,NA,NA
"990",29,NA,1,"second",1,6,0,NA,NA
"991",29,NA,1,"native",1,1,1,NA,NA
"992",29,NA,1,"native",1,3,1,NA,NA
"993",29,NA,1,"native",1,4,1,NA,NA
"994",29,NA,1,"native",1,2,0,NA,NA
"995",29,NA,1,"native",1,5,0,NA,NA
"996",29,NA,1,"second",1,6,1,NA,NA
"997",29,NA,1,"second",1,2,1,NA,NA
"998",29,NA,1,"second",1,5,0,NA,NA
"999",29,NA,1,"second",1,1,0,NA,NA
"1000",29,NA,1,"second",1,6,0,NA,NA
"1001",30,NA,1,"native",1,4,1,NA,NA
"1002",30,NA,1,"native",1,4,1,NA,NA
"1003",30,NA,1,"native",1,4,0,NA,NA
"1004",30,NA,1,"native",1,4,0,NA,NA
"1005",30,NA,1,"native",1,3,0,NA,NA
"1006",30,NA,1,"second",1,4,1,NA,NA
"1007",30,NA,1,"second",1,4,1,NA,NA
"1008",30,NA,1,"second",1,4,1,NA,NA
"1009",30,NA,1,"second",1,4,0,NA,NA
"1010",30,NA,1,"second",1,2,0,NA,NA
"1011",30,NA,1,"native",1,1,1,NA,NA
"1012",30,NA,1,"native",1,3,1,NA,NA
"1013",30,NA,1,"native",1,5,1,NA,NA
"1014",30,NA,1,"native",1,4,0,NA,NA
"1015",30,NA,1,"native",1,5,0,NA,NA
"1016",30,NA,1,"second",1,2,1,NA,NA
"1017",30,NA,1,"second",1,5,1,NA,NA
"1018",30,NA,1,"second",1,5,0,NA,NA
"1019",30,NA,1,"second",1,4,0,NA,NA
"1020",30,NA,1,"second",1,5,0,NA,NA
"1021",30,NA,1,"native",1,5,1,NA,NA
"1022",30,NA,1,"native",1,4,1,NA,NA
"1023",30,NA,1,"native",1,4,0,NA,NA
"1024",30,NA,1,"native",1,4,0,NA,NA
"1025",30,NA,1,"native",1,3,0,NA,NA
"1026",30,NA,1,"second",1,5,1,NA,NA
"1027",30,NA,1,"second",1,5,1,NA,NA
"1028",30,NA,1,"second",1,5,1,NA,NA
"1029",30,NA,1,"second",1,5,0,NA,NA
"1030",30,NA,1,"second",1,5,0,NA,NA
"1031",30,NA,1,"native",1,5,1,NA,NA
"1032",30,NA,1,"native",1,5,1,NA,NA
"1033",30,NA,1,"native",1,4,1,NA,NA
"1034",30,NA,1,"native",1,4,0,NA,NA
"1035",30,NA,1,"native",1,4,0,NA,NA
"1036",30,NA,1,"second",1,5,1,NA,NA
"1037",30,NA,1,"second",1,2,1,NA,NA
"1038",30,NA,1,"second",1,5,0,NA,NA
"1039",30,NA,1,"second",1,5,0,NA,NA
"1040",30,NA,1,"second",1,4,0,NA,NA
"1041",31,"a1_1",1,"second",1,2,1,NA,NA
"1042",31,"a3_3",1,"second",1,4,1,NA,NA
"1043",31,"b1_1",1,"second",1,3,0,NA,NA
"1044",31,"b1_2",1,"second",1,4,0,NA,NA
"1045",31,"b3_3",1,"second",1,3,0,NA,NA
"1046",31,"a2_1",1,"native",1,6,1,NA,NA
"1047",31,"a2_4",1,"native",1,4,1,NA,NA
"1048",31,"a4_4",1,"native",1,4,1,NA,NA
"1049",31,"b2_1",1,"native",1,3,0,NA,NA
"1050",31,"b4_4",1,"native",1,4,0,NA,NA
"1051",31,"a1_2",1,"second",1,2,1,NA,NA
"1052",31,"a3_4",1,"second",1,2,1,NA,NA
"1053",31,"a3_5",1,"second",1,5,1,NA,NA
"1054",31,"b1_3",1,"second",1,5,0,NA,NA
"1055",31,"b3_4",1,"second",1,2,0,NA,NA
"1056",31,"a2_2",1,"native",1,6,1,NA,NA
"1057",31,"a4_5",1,"native",1,6,1,NA,NA
"1058",31,"b2_2",1,"native",1,3,0,NA,NA
"1059",31,"b2_3",1,"native",1,5,0,NA,NA
"1060",31,"b4_1",1,"native",1,6,0,NA,NA
"1061",31,"a1_4",1,"second",1,4,1,NA,NA
"1062",31,"a3_1",1,"second",1,4,1,NA,NA
"1063",31,"b1_4",1,"second",1,3,0,NA,NA
"1064",31,"b3_1",1,"second",1,4,0,NA,NA
"1065",31,"b3_2",1,"second",1,2,0,NA,NA
"1066",31,"a2_3",1,"native",1,4,1,NA,NA
"1067",31,"a4_1",1,"native",1,4,1,NA,NA
"1068",31,"a4_2",1,"native",1,4,1,NA,NA
"1069",31,"b2_4",1,"native",1,5,0,NA,NA
"1070",31,"b4_2",1,"native",1,3,0,NA,NA
"1071",31,"a1_5",1,"second",1,3,1,NA,NA
"1072",31,"a1_3",1,"second",1,6,1,NA,NA
"1073",31,"a3_2",1,"second",1,6,1,NA,NA
"1074",31,"b1_5",1,"second",1,4,0,NA,NA
"1075",31,"b3_5",1,"second",1,5,0,NA,NA
"1076",31,"a2_5",1,"native",1,3,1,NA,NA
"1077",31,"a4_3",1,"native",1,5,1,NA,NA
"1078",31,"b2_5",1,"native",1,5,0,NA,NA
"1079",31,"b4_3",1,"native",1,5,0,NA,NA
"1080",31,"b4_5",1,"native",1,4,0,NA,NA
"1081",32,"a1_1",1,"second",1,5,1,NA,NA
"1082",32,"a3_3",1,"second",1,3,1,NA,NA
"1083",32,"b1_1",1,"second",1,2,0,NA,NA
"1084",32,"b1_2",1,"second",1,3,0,NA,NA
"1085",32,"b3_3",1,"second",1,5,0,NA,NA
"1086",32,"a2_1",1,"native",1,5,1,NA,NA
"1087",32,"a2_4",1,"native",1,6,1,NA,NA
"1088",32,"a4_4",1,"native",1,5,1,NA,NA
"1089",32,"b2_1",1,"native",1,3,0,NA,NA
"1090",32,"b4_4",1,"native",1,5,0,NA,NA
"1091",32,"a1_2",1,"second",1,6,1,NA,NA
"1092",32,"a3_4",1,"second",1,5,1,NA,NA
"1093",32,"a3_5",1,"second",1,1,1,NA,NA
"1094",32,"b1_3",1,"second",1,5,0,NA,NA
"1095",32,"b3_4",1,"second",1,6,0,NA,NA
"1096",32,"a2_2",1,"native",1,2,1,NA,NA
"1097",32,"a4_5",1,"native",1,5,1,NA,NA
"1098",32,"b2_2",1,"native",1,5,0,NA,NA
"1099",32,"b2_3",1,"native",1,5,0,NA,NA
"1100",32,"b4_1",1,"native",1,5,0,NA,NA
"1101",32,"a1_4",1,"second",1,5,1,NA,NA
"1102",32,"a3_1",1,"second",1,4,1,NA,NA
"1103",32,"b1_4",1,"second",1,2,0,NA,NA
"1104",32,"b3_1",1,"second",1,4,0,NA,NA
"1105",32,"b3_2",1,"second",1,6,0,NA,NA
"1106",32,"a2_3",1,"native",1,5,1,NA,NA
"1107",32,"a4_1",1,"native",1,4,1,NA,NA
"1108",32,"a4_2",1,"native",1,2,1,NA,NA
"1109",32,"b2_4",1,"native",1,3,0,NA,NA
"1110",32,"b4_2",1,"native",1,6,0,NA,NA
"1111",32,"a1_5",1,"second",1,2,1,NA,NA
"1112",32,"a1_3",1,"second",1,5,1,NA,NA
"1113",32,"a3_2",1,"second",1,4,1,NA,NA
"1114",32,"b1_5",1,"second",1,5,0,NA,NA
"1115",32,"b3_5",1,"second",1,5,0,NA,NA
"1116",32,"a2_5",1,"native",1,5,1,NA,NA
"1117",32,"a4_3",1,"native",1,5,1,NA,NA
"1118",32,"b2_5",1,"native",1,4,0,NA,NA
"1119",32,"b4_3",1,"native",1,4,0,NA,NA
"1120",32,"b4_5",1,"native",1,3,0,NA,NA
"1121",33,"a1_1",1,"second",1,6,1,NA,NA
"1122",33,"a3_3",1,"second",1,3,1,NA,NA
"1123",33,"b1_1",1,"second",1,3,0,NA,NA
"1124",33,"b1_2",1,"second",1,6,0,NA,NA
"1125",33,"b3_3",1,"second",1,3,0,NA,NA
"1126",33,"a2_1",1,"native",1,2,1,NA,NA
"1127",33,"a2_4",1,"native",1,3,1,NA,NA
"1128",33,"a4_4",1,"native",1,4,1,NA,NA
"1129",33,"b2_1",1,"native",1,4,0,NA,NA
"1130",33,"b4_4",1,"native",1,1,0,NA,NA
"1131",33,"a1_2",1,"second",1,4,1,NA,NA
"1132",33,"a3_4",1,"second",1,2,1,NA,NA
"1133",33,"a3_5",1,"second",1,5,1,NA,NA
"1134",33,"b1_3",1,"second",1,3,0,NA,NA
"1135",33,"b3_4",1,"second",1,4,0,NA,NA
"1136",33,"a2_2",1,"native",1,1,1,NA,NA
"1137",33,"a4_5",1,"native",1,2,1,NA,NA
"1138",33,"b2_2",1,"native",1,4,0,NA,NA
"1139",33,"b2_3",1,"native",1,4,0,NA,NA
"1140",33,"b4_1",1,"native",1,4,0,NA,NA
"1141",33,"a1_4",1,"second",1,3,1,NA,NA
"1142",33,"a3_1",1,"second",1,3,1,NA,NA
"1143",33,"b1_4",1,"second",1,4,0,NA,NA
"1144",33,"b3_1",1,"second",1,4,0,NA,NA
"1145",33,"b3_2",1,"second",1,3,0,NA,NA
"1146",33,"a2_3",1,"native",1,5,1,NA,NA
"1147",33,"a4_1",1,"native",1,4,1,NA,NA
"1148",33,"a4_2",1,"native",1,2,1,NA,NA
"1149",33,"b2_4",1,"native",1,3,0,NA,NA
"1150",33,"b4_2",1,"native",1,4,0,NA,NA
"1151",33,"a1_5",1,"second",1,2,1,NA,NA
"1152",33,"a1_3",1,"second",1,2,1,NA,NA
"1153",33,"a3_2",1,"second",1,4,1,NA,NA
"1154",33,"b1_5",1,"second",1,3,0,NA,NA
"1155",33,"b3_5",1,"second",1,2,0,NA,NA
"1156",33,"a2_5",1,"native",1,1,1,NA,NA
"1157",33,"a4_3",1,"native",1,2,1,NA,NA
"1158",33,"b2_5",1,"native",1,1,0,NA,NA
"1159",33,"b4_3",1,"native",1,3,0,NA,NA
"1160",33,"b4_5",1,"native",1,2,0,NA,NA
"1161",34,"a1_1",1,"second",1,5,1,NA,NA
"1162",34,"a3_3",1,"second",1,5,1,NA,NA
"1163",34,"b1_1",1,"second",1,4,0,NA,NA
"1164",34,"b1_2",1,"second",1,4,0,NA,NA
"1165",34,"b3_3",1,"second",1,4,0,NA,NA
"1166",34,"a2_1",1,"native",1,3,1,NA,NA
"1167",34,"a2_4",1,"native",1,4,1,NA,NA
"1168",34,"a4_4",1,"native",1,6,1,NA,NA
"1169",34,"b2_1",1,"native",1,2,0,NA,NA
"1170",34,"b4_4",1,"native",1,4,0,NA,NA
"1171",34,"a1_2",1,"second",1,5,1,NA,NA
"1172",34,"a3_4",1,"second",1,3,1,NA,NA
"1173",34,"a3_5",1,"second",1,4,1,NA,NA
"1174",34,"b1_3",1,"second",1,4,0,NA,NA
"1175",34,"b3_4",1,"second",1,2,0,NA,NA
"1176",34,"a2_2",1,"native",1,2,1,NA,NA
"1177",34,"a4_5",1,"native",1,3,1,NA,NA
"1178",34,"b2_2",1,"native",1,1,0,NA,NA
"1179",34,"b2_3",1,"native",1,5,0,NA,NA
"1180",34,"b4_1",1,"native",1,1,0,NA,NA
"1181",34,"a1_4",1,"second",1,5,1,NA,NA
"1182",34,"a3_1",1,"second",1,4,1,NA,NA
"1183",34,"b1_4",1,"second",1,5,0,NA,NA
"1184",34,"b3_1",1,"second",1,2,0,NA,NA
"1185",34,"b3_2",1,"second",1,3,0,NA,NA
"1186",34,"a2_3",1,"native",1,5,1,NA,NA
"1187",34,"a4_1",1,"native",1,4,1,NA,NA
"1188",34,"a4_2",1,"native",1,4,1,NA,NA
"1189",34,"b2_4",1,"native",1,4,0,NA,NA
"1190",34,"b4_2",1,"native",1,3,0,NA,NA
"1191",34,"a1_5",1,"second",1,5,1,NA,NA
"1192",34,"a1_3",1,"second",1,3,1,NA,NA
"1193",34,"a3_2",1,"second",1,4,1,NA,NA
"1194",34,"b1_5",1,"second",1,5,0,NA,NA
"1195",34,"b3_5",1,"second",1,4,0,NA,NA
"1196",34,"a2_5",1,"native",1,6,1,NA,NA
"1197",34,"a4_3",1,"native",1,5,1,NA,NA
"1198",34,"b2_5",1,"native",1,3,0,NA,NA
"1199",34,"b4_3",1,"native",1,3,0,NA,NA
"1200",34,"b4_5",1,"native",1,5,0,NA,NA
"1201",35,"a1_1",1,"second",1,6,1,NA,NA
"1202",35,"a3_3",1,"second",1,6,1,NA,NA
"1203",35,"b1_1",1,"second",1,1,0,NA,NA
"1204",35,"b1_2",1,"second",1,3,0,NA,NA
"1205",35,"b3_3",1,"second",1,3,0,NA,NA
"1206",35,"a2_1",1,"native",1,6,1,NA,NA
"1207",35,"a2_4",1,"native",1,6,1,NA,NA
"1208",35,"a4_4",1,"native",1,3,1,NA,NA
"1209",35,"b2_1",1,"native",1,4,0,NA,NA
"1210",35,"b4_4",1,"native",1,4,0,NA,NA
"1211",35,"a1_2",1,"second",1,5,1,NA,NA
"1212",35,"a3_4",1,"second",1,6,1,NA,NA
"1213",35,"a3_5",1,"second",1,6,1,NA,NA
"1214",35,"b1_3",1,"second",1,5,0,NA,NA
"1215",35,"b3_4",1,"second",1,3,0,NA,NA
"1216",35,"a2_2",1,"native",1,6,1,NA,NA
"1217",35,"a4_5",1,"native",1,3,1,NA,NA
"1218",35,"b2_2",1,"native",1,4,0,NA,NA
"1219",35,"b2_3",1,"native",1,4,0,NA,NA
"1220",35,"b4_1",1,"native",1,6,0,NA,NA
"1221",35,"a1_4",1,"second",1,6,1,NA,NA
"1222",35,"a3_1",1,"second",1,6,1,NA,NA
"1223",35,"b1_4",1,"second",1,4,0,NA,NA
"1224",35,"b3_1",1,"second",1,6,0,NA,NA
"1225",35,"b3_2",1,"second",1,3,0,NA,NA
"1226",35,"a2_3",1,"native",1,6,1,NA,NA
"1227",35,"a4_1",1,"native",1,6,1,NA,NA
"1228",35,"a4_2",1,"native",1,6,1,NA,NA
"1229",35,"b2_4",1,"native",1,3,0,NA,NA
"1230",35,"b4_2",1,"native",1,3,0,NA,NA
"1231",35,"a1_5",1,"second",1,5,1,NA,NA
"1232",35,"a1_3",1,"second",1,6,1,NA,NA
"1233",35,"a3_2",1,"second",1,5,1,NA,NA
"1234",35,"b1_5",1,"second",1,2,0,NA,NA
"1235",35,"b3_5",1,"second",1,3,0,NA,NA
"1236",35,"a2_5",1,"native",1,6,1,NA,NA
"1237",35,"a4_3",1,"native",1,6,1,NA,NA
"1238",35,"b2_5",1,"native",1,3,0,NA,NA
"1239",35,"b4_3",1,"native",1,4,0,NA,NA
"1240",35,"b4_5",1,"native",1,4,0,NA,NA
"1241",36,NA,1,"native",1,6,1,NA,NA
"1242",36,NA,1,"native",1,6,1,NA,NA
"1243",36,NA,1,"native",1,1,0,NA,NA
"1244",36,NA,1,"native",1,6,0,NA,NA
"1245",36,NA,1,"native",1,1,0,NA,NA
"1246",36,NA,1,"second",1,6,1,NA,NA
"1247",36,NA,1,"second",1,6,1,NA,NA
"1248",36,NA,1,"second",1,1,1,NA,NA
"1249",36,NA,1,"second",1,6,0,NA,NA
"1250",36,NA,1,"second",1,1,0,NA,NA
"1251",36,NA,1,"native",1,6,1,NA,NA
"1252",36,NA,1,"native",1,6,1,NA,NA
"1253",36,NA,1,"native",1,6,1,NA,NA
"1254",36,NA,1,"native",1,1,0,NA,NA
"1255",36,NA,1,"native",1,1,0,NA,NA
"1256",36,NA,1,"second",1,6,1,NA,NA
"1257",36,NA,1,"second",1,6,1,NA,NA
"1258",36,NA,1,"second",1,6,0,NA,NA
"1259",36,NA,1,"second",1,6,0,NA,NA
"1260",36,NA,1,"second",1,6,0,NA,NA
"1261",36,NA,1,"native",1,6,1,NA,NA
"1262",36,NA,1,"native",1,1,1,NA,NA
"1263",36,NA,1,"native",1,6,0,NA,NA
"1264",36,NA,1,"native",1,6,0,NA,NA
"1265",36,NA,1,"native",1,1,0,NA,NA
"1266",36,NA,1,"second",1,6,1,NA,NA
"1267",36,NA,1,"second",1,6,1,NA,NA
"1268",36,NA,1,"second",1,6,1,NA,NA
"1269",36,NA,1,"second",1,6,0,NA,NA
"1270",36,NA,1,"second",1,6,0,NA,NA
"1271",36,NA,1,"native",1,6,1,NA,NA
"1272",36,NA,1,"native",1,6,1,NA,NA
"1273",36,NA,1,"native",1,6,1,NA,NA
"1274",36,NA,1,"native",1,1,0,NA,NA
"1275",36,NA,1,"native",1,1,0,NA,NA
"1276",36,NA,1,"second",1,6,1,NA,NA
"1277",36,NA,1,"second",1,6,1,NA,NA
"1278",36,NA,1,"second",1,6,0,NA,NA
"1279",36,NA,1,"second",1,1,0,NA,NA
"1280",36,NA,1,"second",1,1,0,NA,NA
"1281",37,NA,1,"native",1,4,1,NA,NA
"1282",37,NA,1,"native",1,6,1,NA,NA
"1283",37,NA,1,"native",1,2,0,NA,NA
"1284",37,NA,1,"native",1,2,0,NA,NA
"1285",37,NA,1,"native",1,3,0,NA,NA
"1286",37,NA,1,"second",1,6,1,NA,NA
"1287",37,NA,1,"second",1,4,1,NA,NA
"1288",37,NA,1,"second",1,4,1,NA,NA
"1289",37,NA,1,"second",1,3,0,NA,NA
"1290",37,NA,1,"second",1,3,0,NA,NA
"1291",37,NA,1,"native",1,6,1,NA,NA
"1292",37,NA,1,"native",1,2,1,NA,NA
"1293",37,NA,1,"native",1,4,1,NA,NA
"1294",37,NA,1,"native",1,3,0,NA,NA
"1295",37,NA,1,"native",1,2,0,NA,NA
"1296",37,NA,1,"second",1,3,1,NA,NA
"1297",37,NA,1,"second",1,2,1,NA,NA
"1298",37,NA,1,"second",1,3,0,NA,NA
"1299",37,NA,1,"second",1,3,0,NA,NA
"1300",37,NA,1,"second",1,5,0,NA,NA
"1301",37,NA,1,"native",1,3,1,NA,NA
"1302",37,NA,1,"native",1,5,1,NA,NA
"1303",37,NA,1,"native",1,4,0,NA,NA
"1304",37,NA,1,"native",1,4,0,NA,NA
"1305",37,NA,1,"native",1,3,0,NA,NA
"1306",37,NA,1,"second",1,4,1,NA,NA
"1307",37,NA,1,"second",1,6,1,NA,NA
"1308",37,NA,1,"second",1,6,1,NA,NA
"1309",37,NA,1,"second",1,2,0,NA,NA
"1310",37,NA,1,"second",1,4,0,NA,NA
"1311",37,NA,1,"native",1,6,1,NA,NA
"1312",37,NA,1,"native",1,6,1,NA,NA
"1313",37,NA,1,"native",1,5,1,NA,NA
"1314",37,NA,1,"native",1,3,0,NA,NA
"1315",37,NA,1,"native",1,4,0,NA,NA
"1316",37,NA,1,"second",1,6,1,NA,NA
"1317",37,NA,1,"second",1,6,1,NA,NA
"1318",37,NA,1,"second",1,4,0,NA,NA
"1319",37,NA,1,"second",1,3,0,NA,NA
"1320",37,NA,1,"second",1,5,0,NA,NA
"1321",38,NA,1,"native",1,6,1,NA,NA
"1322",38,NA,1,"native",1,5,1,NA,NA
"1323",38,NA,1,"native",1,3,0,NA,NA
"1324",38,NA,1,"native",1,4,0,NA,NA
"1325",38,NA,1,"native",1,4,0,NA,NA
"1326",38,NA,1,"second",1,4,1,NA,NA
"1327",38,NA,1,"second",1,4,1,NA,NA
"1328",38,NA,1,"second",1,3,1,NA,NA
"1329",38,NA,1,"second",1,3,0,NA,NA
"1330",38,NA,1,"second",1,4,0,NA,NA
"1331",38,NA,1,"native",1,2,1,NA,NA
"1332",38,NA,1,"native",1,5,1,NA,NA
"1333",38,NA,1,"native",1,2,1,NA,NA
"1334",38,NA,1,"native",1,2,0,NA,NA
"1335",38,NA,1,"native",1,1,0,NA,NA
"1336",38,NA,1,"second",1,2,1,NA,NA
"1337",38,NA,1,"second",1,2,1,NA,NA
"1338",38,NA,1,"second",1,5,0,NA,NA
"1339",38,NA,1,"second",1,4,0,NA,NA
"1340",38,NA,1,"second",1,1,0,NA,NA
"1341",38,NA,1,"native",1,4,1,NA,NA
"1342",38,NA,1,"native",1,5,1,NA,NA
"1343",38,NA,1,"native",1,4,0,NA,NA
"1344",38,NA,1,"native",1,5,0,NA,NA
"1345",38,NA,1,"native",1,3,0,NA,NA
"1346",38,NA,1,"second",1,1,1,NA,NA
"1347",38,NA,1,"second",1,4,1,NA,NA
"1348",38,NA,1,"second",1,4,1,NA,NA
"1349",38,NA,1,"second",1,1,0,NA,NA
"1350",38,NA,1,"second",1,4,0,NA,NA
"1351",38,NA,1,"native",1,5,1,NA,NA
"1352",38,NA,1,"native",1,4,1,NA,NA
"1353",38,NA,1,"native",1,4,1,NA,NA
"1354",38,NA,1,"native",1,5,0,NA,NA
"1355",38,NA,1,"native",1,3,0,NA,NA
"1356",38,NA,1,"second",1,5,1,NA,NA
"1357",38,NA,1,"second",1,4,1,NA,NA
"1358",38,NA,1,"second",1,4,0,NA,NA
"1359",38,NA,1,"second",1,4,0,NA,NA
"1360",38,NA,1,"second",1,5,0,NA,NA
"1361",39,NA,1,"native",1,4,1,NA,NA
"1362",39,NA,1,"native",1,1,1,NA,NA
"1363",39,NA,1,"native",1,4,0,NA,NA
"1364",39,NA,1,"native",1,2,0,NA,NA
"1365",39,NA,1,"native",1,2,0,NA,NA
"1366",39,NA,1,"second",1,2,1,NA,NA
"1367",39,NA,1,"second",1,4,1,NA,NA
"1368",39,NA,1,"second",1,2,1,NA,NA
"1369",39,NA,1,"second",1,4,0,NA,NA
"1370",39,NA,1,"second",1,4,0,NA,NA
"1371",39,NA,1,"native",1,2,1,NA,NA
"1372",39,NA,1,"native",1,2,1,NA,NA
"1373",39,NA,1,"native",1,2,1,NA,NA
"1374",39,NA,1,"native",1,2,0,NA,NA
"1375",39,NA,1,"native",1,1,0,NA,NA
"1376",39,NA,1,"second",1,2,1,NA,NA
"1377",39,NA,1,"second",1,5,1,NA,NA
"1378",39,NA,1,"second",1,2,0,NA,NA
"1379",39,NA,1,"second",1,4,0,NA,NA
"1380",39,NA,1,"second",1,2,0,NA,NA
"1381",39,NA,1,"native",1,2,1,NA,NA
"1382",39,NA,1,"native",1,5,1,NA,NA
"1383",39,NA,1,"native",1,2,0,NA,NA
"1384",39,NA,1,"native",1,4,0,NA,NA
"1385",39,NA,1,"native",1,5,0,NA,NA
"1386",39,NA,1,"second",1,5,1,NA,NA
"1387",39,NA,1,"second",1,4,1,NA,NA
"1388",39,NA,1,"second",1,5,1,NA,NA
"1389",39,NA,1,"second",1,4,0,NA,NA
"1390",39,NA,1,"second",1,2,0,NA,NA
"1391",39,NA,1,"native",1,2,1,NA,NA
"1392",39,NA,1,"native",1,4,1,NA,NA
"1393",39,NA,1,"native",1,5,1,NA,NA
"1394",39,NA,1,"native",1,2,0,NA,NA
"1395",39,NA,1,"native",1,5,0,NA,NA
"1396",39,NA,1,"second",1,5,1,NA,NA
"1397",39,NA,1,"second",1,2,1,NA,NA
"1398",39,NA,1,"second",1,5,0,NA,NA
"1399",39,NA,1,"second",1,2,0,NA,NA
"1400",39,NA,1,"second",1,2,0,NA,NA
"1401",40,NA,1,"native",1,5,1,NA,NA
"1402",40,NA,1,"native",1,5,1,NA,NA
"1403",40,NA,1,"native",1,1,0,NA,NA
"1404",40,NA,1,"native",1,2,0,NA,NA
"1405",40,NA,1,"native",1,4,0,NA,NA
"1406",40,NA,1,"second",1,3,1,NA,NA
"1407",40,NA,1,"second",1,4,1,NA,NA
"1408",40,NA,1,"second",1,5,1,NA,NA
"1409",40,NA,1,"second",1,3,0,NA,NA
"1410",40,NA,1,"second",1,4,0,NA,NA
"1411",40,NA,1,"native",1,4,1,NA,NA
"1412",40,NA,1,"native",1,2,1,NA,NA
"1413",40,NA,1,"native",1,4,1,NA,NA
"1414",40,NA,1,"native",1,5,0,NA,NA
"1415",40,NA,1,"native",1,2,0,NA,NA
"1416",40,NA,1,"second",1,1,1,NA,NA
"1417",40,NA,1,"second",1,4,1,NA,NA
"1418",40,NA,1,"second",1,3,0,NA,NA
"1419",40,NA,1,"second",1,5,0,NA,NA
"1420",40,NA,1,"second",1,5,0,NA,NA
"1421",40,NA,1,"native",1,4,1,NA,NA
"1422",40,NA,1,"native",1,4,1,NA,NA
"1423",40,NA,1,"native",1,3,0,NA,NA
"1424",40,NA,1,"native",1,2,0,NA,NA
"1425",40,NA,1,"native",1,4,0,NA,NA
"1426",40,NA,1,"second",1,4,1,NA,NA
"1427",40,NA,1,"second",1,2,1,NA,NA
"1428",40,NA,1,"second",1,4,1,NA,NA
"1429",40,NA,1,"second",1,1,0,NA,NA
"1430",40,NA,1,"second",1,5,0,NA,NA
"1431",40,NA,1,"native",1,3,1,NA,NA
"1432",40,NA,1,"native",1,2,1,NA,NA
"1433",40,NA,1,"native",1,3,1,NA,NA
"1434",40,NA,1,"native",1,5,0,NA,NA
"1435",40,NA,1,"native",1,4,0,NA,NA
"1436",40,NA,1,"second",1,1,1,NA,NA
"1437",40,NA,1,"second",1,5,1,NA,NA
"1438",40,NA,1,"second",1,3,0,NA,NA
"1439",40,NA,1,"second",1,2,0,NA,NA
"1440",40,NA,1,"second",1,4,0,NA,NA
"1441",41,NA,1,"native",1,3,1,NA,NA
"1442",41,NA,1,"native",1,5,1,NA,NA
"1443",41,NA,1,"native",1,4,0,NA,NA
"1444",41,NA,1,"native",1,2,0,NA,NA
"1445",41,NA,1,"native",1,4,0,NA,NA
"1446",41,NA,1,"second",1,4,1,NA,NA
"1447",41,NA,1,"second",1,3,1,NA,NA
"1448",41,NA,1,"second",1,5,1,NA,NA
"1449",41,NA,1,"second",1,3,0,NA,NA
"1450",41,NA,1,"second",1,4,0,NA,NA
"1451",41,NA,1,"native",1,3,1,NA,NA
"1452",41,NA,1,"native",1,4,1,NA,NA
"1453",41,NA,1,"native",1,4,1,NA,NA
"1454",41,NA,1,"native",1,3,0,NA,NA
"1455",41,NA,1,"native",1,4,0,NA,NA
"1456",41,NA,1,"second",1,1,1,NA,NA
"1457",41,NA,1,"second",1,3,1,NA,NA
"1458",41,NA,1,"second",1,3,0,NA,NA
"1459",41,NA,1,"second",1,4,0,NA,NA
"1460",41,NA,1,"second",1,6,0,NA,NA
"1461",41,NA,1,"native",1,5,1,NA,NA
"1462",41,NA,1,"native",1,4,1,NA,NA
"1463",41,NA,1,"native",1,3,0,NA,NA
"1464",41,NA,1,"native",1,3,0,NA,NA
"1465",41,NA,1,"native",1,3,0,NA,NA
"1466",41,NA,1,"second",1,4,1,NA,NA
"1467",41,NA,1,"second",1,4,1,NA,NA
"1468",41,NA,1,"second",1,2,1,NA,NA
"1469",41,NA,1,"second",1,4,0,NA,NA
"1470",41,NA,1,"second",1,4,0,NA,NA
"1471",41,NA,1,"native",1,4,1,NA,NA
"1472",41,NA,1,"native",1,4,1,NA,NA
"1473",41,NA,1,"native",1,4,1,NA,NA
"1474",41,NA,1,"native",1,5,0,NA,NA
"1475",41,NA,1,"native",1,4,0,NA,NA
"1476",41,NA,1,"second",1,2,1,NA,NA
"1477",41,NA,1,"second",1,3,1,NA,NA
"1478",41,NA,1,"second",1,4,0,NA,NA
"1479",41,NA,1,"second",1,4,0,NA,NA
"1480",41,NA,1,"second",1,4,0,NA,NA
"1481",42,"a1_1",1,"second",1,4,0,NA,NA
"1482",42,"a3_3",1,"second",1,2,0,NA,NA
"1483",42,"b1_1",1,"second",1,3,1,NA,NA
"1484",42,"b1_2",1,"second",1,2,1,NA,NA
"1485",42,"b3_3",1,"second",1,4,1,NA,NA
"1486",42,"a2_1",1,"native",1,3,0,NA,NA
"1487",42,"a2_4",1,"native",1,2,0,NA,NA
"1488",42,"a4_4",1,"native",1,3,0,NA,NA
"1489",42,"b2_1",1,"native",1,4,1,NA,NA
"1490",42,"b4_4",1,"native",1,4,1,NA,NA
"1491",42,"a1_2",1,"second",1,1,0,NA,NA
"1492",42,"a3_4",1,"second",1,4,0,NA,NA
"1493",42,"a3_5",1,"second",1,3,0,NA,NA
"1494",42,"b1_3",1,"second",1,2,1,NA,NA
"1495",42,"b3_4",1,"second",1,1,1,NA,NA
"1496",42,"a2_2",1,"native",1,4,0,NA,NA
"1497",42,"a4_5",1,"native",1,3,0,NA,NA
"1498",42,"b2_2",1,"native",1,3,1,NA,NA
"1499",42,"b2_3",1,"native",1,4,1,NA,NA
"1500",42,"b4_1",1,"native",1,2,1,NA,NA
"1501",42,"a1_4",1,"second",1,3,0,NA,NA
"1502",42,"a3_1",1,"second",1,3,0,NA,NA
"1503",42,"b1_4",1,"second",1,4,1,NA,NA
"1504",42,"b3_1",1,"second",1,2,1,NA,NA
"1505",42,"b3_2",1,"second",1,4,1,NA,NA
"1506",42,"a2_3",1,"native",1,3,0,NA,NA
"1507",42,"a4_1",1,"native",1,4,0,NA,NA
"1508",42,"a4_2",1,"native",1,3,0,NA,NA
"1509",42,"b2_4",1,"native",1,1,1,NA,NA
"1510",42,"b4_2",1,"native",1,3,1,NA,NA
"1511",42,"a1_5",1,"second",1,2,0,NA,NA
"1512",42,"a1_3",1,"second",1,4,0,NA,NA
"1513",42,"a3_2",1,"second",1,2,0,NA,NA
"1514",42,"b1_5",1,"second",1,5,1,NA,NA
"1515",42,"b3_5",1,"second",1,4,1,NA,NA
"1516",42,"a2_5",1,"native",1,4,0,NA,NA
"1517",42,"a4_3",1,"native",1,2,0,NA,NA
"1518",42,"b2_5",1,"native",1,4,1,NA,NA
"1519",42,"b4_3",1,"native",1,4,1,NA,NA
"1520",42,"b4_5",1,"native",1,3,1,NA,NA
"1521",43,"a1_1",1,"second",1,4,0,NA,NA
"1522",43,"a3_3",1,"second",1,5,0,NA,NA
"1523",43,"b1_1",1,"second",1,4,1,NA,NA
"1524",43,"b1_2",1,"second",1,5,1,NA,NA
"1525",43,"b3_3",1,"second",1,2,1,NA,NA
"1526",43,"a2_1",1,"native",1,4,0,NA,NA
"1527",43,"a2_4",1,"native",1,3,0,NA,NA
"1528",43,"a4_4",1,"native",1,2,0,NA,NA
"1529",43,"b2_1",1,"native",1,3,1,NA,NA
"1530",43,"b4_4",1,"native",1,4,1,NA,NA
"1531",43,"a1_2",1,"second",1,5,0,NA,NA
"1532",43,"a3_4",1,"second",1,4,0,NA,NA
"1533",43,"a3_5",1,"second",1,4,0,NA,NA
"1534",43,"b1_3",1,"second",1,4,1,NA,NA
"1535",43,"b3_4",1,"second",1,5,1,NA,NA
"1536",43,"a2_2",1,"native",1,1,0,NA,NA
"1537",43,"a4_5",1,"native",1,5,0,NA,NA
"1538",43,"b2_2",1,"native",1,3,1,NA,NA
"1539",43,"b2_3",1,"native",1,6,1,NA,NA
"1540",43,"b4_1",1,"native",1,5,1,NA,NA
"1541",43,"a1_4",1,"second",1,5,0,NA,NA
"1542",43,"a3_1",1,"second",1,4,0,NA,NA
"1543",43,"b1_4",1,"second",1,4,1,NA,NA
"1544",43,"b3_1",1,"second",1,4,1,NA,NA
"1545",43,"b3_2",1,"second",1,3,1,NA,NA
"1546",43,"a2_3",1,"native",1,3,0,NA,NA
"1547",43,"a4_1",1,"native",1,3,0,NA,NA
"1548",43,"a4_2",1,"native",1,4,0,NA,NA
"1549",43,"b2_4",1,"native",1,4,1,NA,NA
"1550",43,"b4_2",1,"native",1,5,1,NA,NA
"1551",43,"a1_5",1,"second",1,4,0,NA,NA
"1552",43,"a1_3",1,"second",1,4,0,NA,NA
"1553",43,"a3_2",1,"second",1,3,0,NA,NA
"1554",43,"b1_5",1,"second",1,4,1,NA,NA
"1555",43,"b3_5",1,"second",1,5,1,NA,NA
"1556",43,"a2_5",1,"native",1,5,0,NA,NA
"1557",43,"a4_3",1,"native",1,2,0,NA,NA
"1558",43,"b2_5",1,"native",1,4,1,NA,NA
"1559",43,"b4_3",1,"native",1,3,1,NA,NA
"1560",43,"b4_5",1,"native",1,3,1,NA,NA
"1561",44,"a1_1",1,"second",1,1,0,NA,NA
"1562",44,"a3_3",1,"second",1,2,0,NA,NA
"1563",44,"b1_1",1,"second",1,6,1,NA,NA
"1564",44,"b1_2",1,"second",1,4,1,NA,NA
"1565",44,"b3_3",1,"second",1,6,1,NA,NA
"1566",44,"a2_1",1,"native",1,4,0,NA,NA
"1567",44,"a2_4",1,"native",1,5,0,NA,NA
"1568",44,"a4_4",1,"native",1,2,0,NA,NA
"1569",44,"b2_1",1,"native",1,6,1,NA,NA
"1570",44,"b4_4",1,"native",1,6,1,NA,NA
"1571",44,"a1_2",1,"second",1,2,0,NA,NA
"1572",44,"a3_4",1,"second",1,4,0,NA,NA
"1573",44,"a3_5",1,"second",1,2,0,NA,NA
"1574",44,"b1_3",1,"second",1,6,1,NA,NA
"1575",44,"b3_4",1,"second",1,4,1,NA,NA
"1576",44,"a2_2",1,"native",1,2,0,NA,NA
"1577",44,"a4_5",1,"native",1,2,0,NA,NA
"1578",44,"b2_2",1,"native",1,6,1,NA,NA
"1579",44,"b2_3",1,"native",1,2,1,NA,NA
"1580",44,"b4_1",1,"native",1,6,1,NA,NA
"1581",44,"a1_4",1,"second",1,1,0,NA,NA
"1582",44,"a3_1",1,"second",1,5,0,NA,NA
"1583",44,"b1_4",1,"second",1,6,1,NA,NA
"1584",44,"b3_1",1,"second",1,6,1,NA,NA
"1585",44,"b3_2",1,"second",1,6,1,NA,NA
"1586",44,"a2_3",1,"native",1,3,0,NA,NA
"1587",44,"a4_1",1,"native",1,4,0,NA,NA
"1588",44,"a4_2",1,"native",1,2,0,NA,NA
"1589",44,"b2_4",1,"native",1,5,1,NA,NA
"1590",44,"b4_2",1,"native",1,6,1,NA,NA
"1591",44,"a1_5",1,"second",1,3,0,NA,NA
"1592",44,"a1_3",1,"second",1,4,0,NA,NA
"1593",44,"a3_2",1,"second",1,6,0,NA,NA
"1594",44,"b1_5",1,"second",1,6,1,NA,NA
"1595",44,"b3_5",1,"second",1,6,1,NA,NA
"1596",44,"a2_5",1,"native",1,2,0,NA,NA
"1597",44,"a4_3",1,"native",1,3,0,NA,NA
"1598",44,"b2_5",1,"native",1,6,1,NA,NA
"1599",44,"b4_3",1,"native",1,6,1,NA,NA
"1600",44,"b4_5",1,"native",1,6,1,NA,NA
"1601",45,"a1_1",1,"second",1,5,0,NA,NA
"1602",45,"a3_3",1,"second",1,4,0,NA,NA
"1603",45,"b1_1",1,"second",1,6,1,NA,NA
"1604",45,"b1_2",1,"second",1,6,1,NA,NA
"1605",45,"b3_3",1,"second",1,6,1,NA,NA
"1606",45,"a2_1",1,"native",1,6,0,NA,NA
"1607",45,"a2_4",1,"native",1,1,0,NA,NA
"1608",45,"a4_4",1,"native",1,6,0,NA,NA
"1609",45,"b2_1",1,"native",1,1,1,NA,NA
"1610",45,"b4_4",1,"native",1,6,1,NA,NA
"1611",45,"a1_2",1,"second",1,6,0,NA,NA
"1612",45,"a3_4",1,"second",1,6,0,NA,NA
"1613",45,"a3_5",1,"second",1,6,0,NA,NA
"1614",45,"b1_3",1,"second",1,6,1,NA,NA
"1615",45,"b3_4",1,"second",1,6,1,NA,NA
"1616",45,"a2_2",1,"native",1,6,0,NA,NA
"1617",45,"a4_5",1,"native",1,6,0,NA,NA
"1618",45,"b2_2",1,"native",1,6,1,NA,NA
"1619",45,"b2_3",1,"native",1,6,1,NA,NA
"1620",45,"b4_1",1,"native",1,6,1,NA,NA
"1621",45,"a1_4",1,"second",1,6,0,NA,NA
"1622",45,"a3_1",1,"second",1,6,0,NA,NA
"1623",45,"b1_4",1,"second",1,6,1,NA,NA
"1624",45,"b3_1",1,"second",1,6,1,NA,NA
"1625",45,"b3_2",1,"second",1,6,1,NA,NA
"1626",45,"a2_3",1,"native",1,6,0,NA,NA
"1627",45,"a4_1",1,"native",1,6,0,NA,NA
"1628",45,"a4_2",1,"native",1,6,0,NA,NA
"1629",45,"b2_4",1,"native",1,6,1,NA,NA
"1630",45,"b4_2",1,"native",1,6,1,NA,NA
"1631",45,"a1_5",1,"second",1,1,0,NA,NA
"1632",45,"a1_3",1,"second",1,1,0,NA,NA
"1633",45,"a3_2",1,"second",1,1,0,NA,NA
"1634",45,"b1_5",1,"second",1,6,1,NA,NA
"1635",45,"b3_5",1,"second",1,6,1,NA,NA
"1636",45,"a2_5",1,"native",1,1,0,NA,NA
"1637",45,"a4_3",1,"native",1,6,0,NA,NA
"1638",45,"b2_5",1,"native",1,6,1,NA,NA
"1639",45,"b4_3",1,"native",1,6,1,NA,NA
"1640",45,"b4_5",1,"native",1,6,1,NA,NA
"1641",46,NA,1,"native",1,6,0,NA,NA
"1642",46,NA,1,"native",1,1,0,NA,NA
"1643",46,NA,1,"native",1,6,1,NA,NA
"1644",46,NA,1,"native",1,5,1,NA,NA
"1645",46,NA,1,"native",1,6,1,NA,NA
"1646",46,NA,1,"second",1,5,0,NA,NA
"1647",46,NA,1,"second",1,3,0,NA,NA
"1648",46,NA,1,"second",1,2,0,NA,NA
"1649",46,NA,1,"second",1,5,1,NA,NA
"1650",46,NA,1,"second",1,6,1,NA,NA
"1651",46,NA,1,"native",1,6,0,NA,NA
"1652",46,NA,1,"native",1,4,0,NA,NA
"1653",46,NA,1,"native",1,2,0,NA,NA
"1654",46,NA,1,"native",1,6,1,NA,NA
"1655",46,NA,1,"native",1,6,1,NA,NA
"1656",46,NA,1,"second",1,2,0,NA,NA
"1657",46,NA,1,"second",1,1,0,NA,NA
"1658",46,NA,1,"second",1,6,1,NA,NA
"1659",46,NA,1,"second",1,6,1,NA,NA
"1660",46,NA,1,"second",1,6,1,NA,NA
"1661",46,NA,1,"native",1,6,0,NA,NA
"1662",46,NA,1,"native",1,4,0,NA,NA
"1663",46,NA,1,"native",1,1,1,NA,NA
"1664",46,NA,1,"native",1,1,1,NA,NA
"1665",46,NA,1,"native",1,5,1,NA,NA
"1666",46,NA,1,"second",1,3,0,NA,NA
"1667",46,NA,1,"second",1,3,0,NA,NA
"1668",46,NA,1,"second",1,6,0,NA,NA
"1669",46,NA,1,"second",1,6,1,NA,NA
"1670",46,NA,1,"second",1,6,1,NA,NA
"1671",46,NA,1,"native",1,6,0,NA,NA
"1672",46,NA,1,"native",1,1,0,NA,NA
"1673",46,NA,1,"native",1,2,0,NA,NA
"1674",46,NA,1,"native",1,2,1,NA,NA
"1675",46,NA,1,"native",1,6,1,NA,NA
"1676",46,NA,1,"second",1,1,0,NA,NA
"1677",46,NA,1,"second",1,3,0,NA,NA
"1678",46,NA,1,"second",1,6,1,NA,NA
"1679",46,NA,1,"second",1,6,1,NA,NA
"1680",46,NA,1,"second",1,6,1,NA,NA
"1681",47,NA,1,"native",1,3,0,NA,NA
"1682",47,NA,1,"native",1,5,0,NA,NA
"1683",47,NA,1,"native",1,4,1,NA,NA
"1684",47,NA,1,"native",1,4,1,NA,NA
"1685",47,NA,1,"native",1,5,1,NA,NA
"1686",47,NA,1,"second",1,3,0,NA,NA
"1687",47,NA,1,"second",1,3,0,NA,NA
"1688",47,NA,1,"second",1,3,0,NA,NA
"1689",47,NA,1,"second",1,2,1,NA,NA
"1690",47,NA,1,"second",1,5,1,NA,NA
"1691",47,NA,1,"native",1,2,0,NA,NA
"1692",47,NA,1,"native",1,4,0,NA,NA
"1693",47,NA,1,"native",1,3,0,NA,NA
"1694",47,NA,1,"native",1,5,1,NA,NA
"1695",47,NA,1,"native",1,4,1,NA,NA
"1696",47,NA,1,"second",1,2,0,NA,NA
"1697",47,NA,1,"second",1,3,0,NA,NA
"1698",47,NA,1,"second",1,4,1,NA,NA
"1699",47,NA,1,"second",1,4,1,NA,NA
"1700",47,NA,1,"second",1,4,1,NA,NA
"1701",47,NA,1,"native",1,3,0,NA,NA
"1702",47,NA,1,"native",1,3,0,NA,NA
"1703",47,NA,1,"native",1,5,1,NA,NA
"1704",47,NA,1,"native",1,4,1,NA,NA
"1705",47,NA,1,"native",1,3,1,NA,NA
"1706",47,NA,1,"second",1,3,0,NA,NA
"1707",47,NA,1,"second",1,4,0,NA,NA
"1708",47,NA,1,"second",1,4,0,NA,NA
"1709",47,NA,1,"second",1,4,1,NA,NA
"1710",47,NA,1,"second",1,3,1,NA,NA
"1711",47,NA,1,"native",1,1,0,NA,NA
"1712",47,NA,1,"native",1,4,0,NA,NA
"1713",47,NA,1,"native",1,3,0,NA,NA
"1714",47,NA,1,"native",1,5,1,NA,NA
"1715",47,NA,1,"native",1,4,1,NA,NA
"1716",47,NA,1,"second",1,2,0,NA,NA
"1717",47,NA,1,"second",1,2,0,NA,NA
"1718",47,NA,1,"second",1,4,1,NA,NA
"1719",47,NA,1,"second",1,3,1,NA,NA
"1720",47,NA,1,"second",1,5,1,NA,NA
"1721",48,NA,1,"native",1,2,0,NA,NA
"1722",48,NA,1,"native",1,6,0,NA,NA
"1723",48,NA,1,"native",1,2,1,NA,NA
"1724",48,NA,1,"native",1,6,1,NA,NA
"1725",48,NA,1,"native",1,6,1,NA,NA
"1726",48,NA,1,"second",1,2,0,NA,NA
"1727",48,NA,1,"second",1,2,0,NA,NA
"1728",48,NA,1,"second",1,6,0,NA,NA
"1729",48,NA,1,"second",1,6,1,NA,NA
"1730",48,NA,1,"second",1,6,1,NA,NA
"1731",48,NA,1,"native",1,6,0,NA,NA
"1732",48,NA,1,"native",1,5,0,NA,NA
"1733",48,NA,1,"native",1,4,0,NA,NA
"1734",48,NA,1,"native",1,3,1,NA,NA
"1735",48,NA,1,"native",1,6,1,NA,NA
"1736",48,NA,1,"second",1,1,0,NA,NA
"1737",48,NA,1,"second",1,1,0,NA,NA
"1738",48,NA,1,"second",1,6,1,NA,NA
"1739",48,NA,1,"second",1,6,1,NA,NA
"1740",48,NA,1,"second",1,6,1,NA,NA
"1741",48,NA,1,"native",1,2,0,NA,NA
"1742",48,NA,1,"native",1,6,0,NA,NA
"1743",48,NA,1,"native",1,6,1,NA,NA
"1744",48,NA,1,"native",1,6,1,NA,NA
"1745",48,NA,1,"native",1,6,1,NA,NA
"1746",48,NA,1,"second",1,2,0,NA,NA
"1747",48,NA,1,"second",1,2,0,NA,NA
"1748",48,NA,1,"second",1,6,0,NA,NA
"1749",48,NA,1,"second",1,6,1,NA,NA
"1750",48,NA,1,"second",1,6,1,NA,NA
"1751",48,NA,1,"native",1,2,0,NA,NA
"1752",48,NA,1,"native",1,3,0,NA,NA
"1753",48,NA,1,"native",1,4,0,NA,NA
"1754",48,NA,1,"native",1,6,1,NA,NA
"1755",48,NA,1,"native",1,6,1,NA,NA
"1756",48,NA,1,"second",1,6,0,NA,NA
"1757",48,NA,1,"second",1,2,0,NA,NA
"1758",48,NA,1,"second",1,6,1,NA,NA
"1759",48,NA,1,"second",1,6,1,NA,NA
"1760",48,NA,1,"second",1,6,1,NA,NA
"1761",49,NA,1,"native",1,6,0,NA,NA
"1762",49,NA,1,"native",1,5,0,NA,NA
"1763",49,NA,1,"native",1,2,1,NA,NA
"1764",49,NA,1,"native",1,4,1,NA,NA
"1765",49,NA,1,"native",1,4,1,NA,NA
"1766",49,NA,1,"second",1,5,0,NA,NA
"1767",49,NA,1,"second",1,4,0,NA,NA
"1768",49,NA,1,"second",1,3,0,NA,NA
"1769",49,NA,1,"second",1,1,1,NA,NA
"1770",49,NA,1,"second",1,6,1,NA,NA
"1771",49,NA,1,"native",1,6,0,NA,NA
"1772",49,NA,1,"native",1,6,0,NA,NA
"1773",49,NA,1,"native",1,3,0,NA,NA
"1774",49,NA,1,"native",1,3,1,NA,NA
"1775",49,NA,1,"native",1,6,1,NA,NA
"1776",49,NA,1,"second",1,2,0,NA,NA
"1777",49,NA,1,"second",1,3,0,NA,NA
"1778",49,NA,1,"second",1,5,1,NA,NA
"1779",49,NA,1,"second",1,6,1,NA,NA
"1780",49,NA,1,"second",1,6,1,NA,NA
"1781",49,NA,1,"native",1,6,0,NA,NA
"1782",49,NA,1,"native",1,6,0,NA,NA
"1783",49,NA,1,"native",1,6,1,NA,NA
"1784",49,NA,1,"native",1,4,1,NA,NA
"1785",49,NA,1,"native",1,5,1,NA,NA
"1786",49,NA,1,"second",1,2,0,NA,NA
"1787",49,NA,1,"second",1,4,0,NA,NA
"1788",49,NA,1,"second",1,5,0,NA,NA
"1789",49,NA,1,"second",1,4,1,NA,NA
"1790",49,NA,1,"second",1,4,1,NA,NA
"1791",49,NA,1,"native",1,2,0,NA,NA
"1792",49,NA,1,"native",1,4,0,NA,NA
"1793",49,NA,1,"native",1,6,0,NA,NA
"1794",49,NA,1,"native",1,6,1,NA,NA
"1795",49,NA,1,"native",1,6,1,NA,NA
"1796",49,NA,1,"second",1,2,0,NA,NA
"1797",49,NA,1,"second",1,2,0,NA,NA
"1798",49,NA,1,"second",1,3,1,NA,NA
"1799",49,NA,1,"second",1,6,1,NA,NA
"1800",49,NA,1,"second",1,2,1,NA,NA
"1801",50,NA,1,"native",1,5,0,NA,NA
"1802",50,NA,1,"native",1,5,0,NA,NA
"1803",50,NA,1,"native",1,4,1,NA,NA
"1804",50,NA,1,"native",1,4,1,NA,NA
"1805",50,NA,1,"native",1,4,1,NA,NA
"1806",50,NA,1,"second",1,4,0,NA,NA
"1807",50,NA,1,"second",1,3,0,NA,NA
"1808",50,NA,1,"second",1,3,0,NA,NA
"1809",50,NA,1,"second",1,3,1,NA,NA
"1810",50,NA,1,"second",1,4,1,NA,NA
"1811",50,NA,1,"native",1,3,0,NA,NA
"1812",50,NA,1,"native",1,3,0,NA,NA
"1813",50,NA,1,"native",1,4,0,NA,NA
"1814",50,NA,1,"native",1,6,1,NA,NA
"1815",50,NA,1,"native",1,4,1,NA,NA
"1816",50,NA,1,"second",1,4,0,NA,NA
"1817",50,NA,1,"second",1,4,0,NA,NA
"1818",50,NA,1,"second",1,4,1,NA,NA
"1819",50,NA,1,"second",1,3,1,NA,NA
"1820",50,NA,1,"second",1,5,1,NA,NA
"1821",50,NA,1,"native",1,1,0,NA,NA
"1822",50,NA,1,"native",1,5,0,NA,NA
"1823",50,NA,1,"native",1,4,1,NA,NA
"1824",50,NA,1,"native",1,6,1,NA,NA
"1825",50,NA,1,"native",1,3,1,NA,NA
"1826",50,NA,1,"second",1,4,0,NA,NA
"1827",50,NA,1,"second",1,3,0,NA,NA
"1828",50,NA,1,"second",1,3,0,NA,NA
"1829",50,NA,1,"second",1,3,1,NA,NA
"1830",50,NA,1,"second",1,4,1,NA,NA
"1831",50,NA,1,"native",1,4,0,NA,NA
"1832",50,NA,1,"native",1,5,0,NA,NA
"1833",50,NA,1,"native",1,5,0,NA,NA
"1834",50,NA,1,"native",1,4,1,NA,NA
"1835",50,NA,1,"native",1,5,1,NA,NA
"1836",50,NA,1,"second",1,4,0,NA,NA
"1837",50,NA,1,"second",1,3,0,NA,NA
"1838",50,NA,1,"second",1,4,1,NA,NA
"1839",50,NA,1,"second",1,5,1,NA,NA
"1840",50,NA,1,"second",1,4,1,NA,NA
"1841",51,NA,1,"native",1,3,0,NA,NA
"1842",51,NA,1,"native",1,5,0,NA,NA
"1843",51,NA,1,"native",1,6,1,NA,NA
"1844",51,NA,1,"native",1,6,1,NA,NA
"1845",51,NA,1,"native",1,6,1,NA,NA
"1846",51,NA,1,"second",1,2,0,NA,NA
"1847",51,NA,1,"second",1,6,0,NA,NA
"1848",51,NA,1,"second",1,4,0,NA,NA
"1849",51,NA,1,"second",1,6,1,NA,NA
"1850",51,NA,1,"second",1,6,1,NA,NA
"1851",51,NA,1,"native",1,4,0,NA,NA
"1852",51,NA,1,"native",1,3,0,NA,NA
"1853",51,NA,1,"native",1,3,0,NA,NA
"1854",51,NA,1,"native",1,5,1,NA,NA
"1855",51,NA,1,"native",1,6,1,NA,NA
"1856",51,NA,1,"second",1,4,0,NA,NA
"1857",51,NA,1,"second",1,4,0,NA,NA
"1858",51,NA,1,"second",1,6,1,NA,NA
"1859",51,NA,1,"second",1,6,1,NA,NA
"1860",51,NA,1,"second",1,6,1,NA,NA
"1861",51,NA,1,"native",1,6,0,NA,NA
"1862",51,NA,1,"native",1,5,0,NA,NA
"1863",51,NA,1,"native",1,6,1,NA,NA
"1864",51,NA,1,"native",1,6,1,NA,NA
"1865",51,NA,1,"native",1,6,1,NA,NA
"1866",51,NA,1,"second",1,6,0,NA,NA
"1867",51,NA,1,"second",1,5,0,NA,NA
"1868",51,NA,1,"second",1,4,0,NA,NA
"1869",51,NA,1,"second",1,6,1,NA,NA
"1870",51,NA,1,"second",1,4,1,NA,NA
"1871",51,NA,1,"native",1,3,0,NA,NA
"1872",51,NA,1,"native",1,3,0,NA,NA
"1873",51,NA,1,"native",1,4,0,NA,NA
"1874",51,NA,1,"native",1,5,1,NA,NA
"1875",51,NA,1,"native",1,6,1,NA,NA
"1876",51,NA,1,"second",1,6,0,NA,NA
"1877",51,NA,1,"second",1,2,0,NA,NA
"1878",51,NA,1,"second",1,6,1,NA,NA
"1879",51,NA,1,"second",1,6,1,NA,NA
"1880",51,NA,1,"second",1,5,1,NA,NA
"1881",52,"a1_1",1,"second",1,6,1,NA,NA
"1882",52,"a3_3",1,"second",1,5,1,NA,NA
"1883",52,"b1_1",1,"second",1,1,0,NA,NA
"1884",52,"b1_2",1,"second",1,2,0,NA,NA
"1885",52,"b3_3",1,"second",1,2,0,NA,NA
"1886",52,"a2_1",1,"native",1,4,1,NA,NA
"1887",52,"a2_4",1,"native",1,3,1,NA,NA
"1888",52,"a4_4",1,"native",1,2,1,NA,NA
"1889",52,"b2_1",1,"native",1,2,0,NA,NA
"1890",52,"b4_4",1,"native",1,4,0,NA,NA
"1891",52,"a1_2",1,"second",1,4,1,NA,NA
"1892",52,"a3_4",1,"second",1,5,1,NA,NA
"1893",52,"a3_5",1,"second",1,4,1,NA,NA
"1894",52,"b1_3",1,"second",1,5,0,NA,NA
"1895",52,"b3_4",1,"second",1,6,0,NA,NA
"1896",52,"a2_2",1,"native",1,6,1,NA,NA
"1897",52,"a4_5",1,"native",1,5,1,NA,NA
"1898",52,"b2_2",1,"native",1,5,0,NA,NA
"1899",52,"b2_3",1,"native",1,5,0,NA,NA
"1900",52,"b4_1",1,"native",1,6,0,NA,NA
"1901",52,"a1_4",1,"second",1,6,1,NA,NA
"1902",52,"a3_1",1,"second",1,4,1,NA,NA
"1903",52,"b1_4",1,"second",1,3,0,NA,NA
"1904",52,"b3_1",1,"second",1,3,0,NA,NA
"1905",52,"b3_2",1,"second",1,3,0,NA,NA
"1906",52,"a2_3",1,"native",1,5,1,NA,NA
"1907",52,"a4_1",1,"native",1,5,1,NA,NA
"1908",52,"a4_2",1,"native",1,2,1,NA,NA
"1909",52,"b2_4",1,"native",1,2,0,NA,NA
"1910",52,"b4_2",1,"native",1,5,0,NA,NA
"1911",52,"a1_5",1,"second",1,2,1,NA,NA
"1912",52,"a1_3",1,"second",1,4,1,NA,NA
"1913",52,"a3_2",1,"second",1,3,1,NA,NA
"1914",52,"b1_5",1,"second",1,4,0,NA,NA
"1915",52,"b3_5",1,"second",1,5,0,NA,NA
"1916",52,"a2_5",1,"native",1,1,1,NA,NA
"1917",52,"a4_3",1,"native",1,3,1,NA,NA
"1918",52,"b2_5",1,"native",1,4,0,NA,NA
"1919",52,"b4_3",1,"native",1,4,0,NA,NA
"1920",52,"b4_5",1,"native",1,6,0,NA,NA
"1921",53,"a1_1",1,"second",1,3,1,NA,NA
"1922",53,"a3_3",1,"second",1,5,1,NA,NA
"1923",53,"b1_1",1,"second",1,6,0,NA,NA
"1924",53,"b1_2",1,"second",1,4,0,NA,NA
"1925",53,"b3_3",1,"second",1,5,0,NA,NA
"1926",53,"a2_1",1,"native",1,4,1,NA,NA
"1927",53,"a2_4",1,"native",1,5,1,NA,NA
"1928",53,"a4_4",1,"native",1,5,1,NA,NA
"1929",53,"b2_1",1,"native",1,3,0,NA,NA
"1930",53,"b4_4",1,"native",1,5,0,NA,NA
"1931",53,"a1_2",1,"second",1,5,1,NA,NA
"1932",53,"a3_4",1,"second",1,4,1,NA,NA
"1933",53,"a3_5",1,"second",1,5,1,NA,NA
"1934",53,"b1_3",1,"second",1,4,0,NA,NA
"1935",53,"b3_4",1,"second",1,4,0,NA,NA
"1936",53,"a2_2",1,"native",1,2,1,NA,NA
"1937",53,"a4_5",1,"native",1,3,1,NA,NA
"1938",53,"b2_2",1,"native",1,4,0,NA,NA
"1939",53,"b2_3",1,"native",1,5,0,NA,NA
"1940",53,"b4_1",1,"native",1,5,0,NA,NA
"1941",53,"a1_4",1,"second",1,2,1,NA,NA
"1942",53,"a3_1",1,"second",1,4,1,NA,NA
"1943",53,"b1_4",1,"second",1,4,0,NA,NA
"1944",53,"b3_1",1,"second",1,4,0,NA,NA
"1945",53,"b3_2",1,"second",1,4,0,NA,NA
"1946",53,"a2_3",1,"native",1,4,1,NA,NA
"1947",53,"a4_1",1,"native",1,2,1,NA,NA
"1948",53,"a4_2",1,"native",1,3,1,NA,NA
"1949",53,"b2_4",1,"native",1,5,0,NA,NA
"1950",53,"b4_2",1,"native",1,4,0,NA,NA
"1951",53,"a1_5",1,"second",1,3,1,NA,NA
"1952",53,"a1_3",1,"second",1,5,1,NA,NA
"1953",53,"a3_2",1,"second",1,3,1,NA,NA
"1954",53,"b1_5",1,"second",1,4,0,NA,NA
"1955",53,"b3_5",1,"second",1,2,0,NA,NA
"1956",53,"a2_5",1,"native",1,2,1,NA,NA
"1957",53,"a4_3",1,"native",1,2,1,NA,NA
"1958",53,"b2_5",1,"native",1,3,0,NA,NA
"1959",53,"b4_3",1,"native",1,4,0,NA,NA
"1960",53,"b4_5",1,"native",1,2,0,NA,NA
"1961",54,"a1_1",1,"second",1,3,1,NA,NA
"1962",54,"a3_3",1,"second",1,3,1,NA,NA
"1963",54,"b1_1",1,"second",1,2,0,NA,NA
"1964",54,"b1_2",1,"second",1,3,0,NA,NA
"1965",54,"b3_3",1,"second",1,3,0,NA,NA
"1966",54,"a2_1",1,"native",1,3,1,NA,NA
"1967",54,"a2_4",1,"native",1,3,1,NA,NA
"1968",54,"a4_4",1,"native",1,3,1,NA,NA
"1969",54,"b2_1",1,"native",1,4,0,NA,NA
"1970",54,"b4_4",1,"native",1,3,0,NA,NA
"1971",54,"a1_2",1,"second",1,3,1,NA,NA
"1972",54,"a3_4",1,"second",1,4,1,NA,NA
"1973",54,"a3_5",1,"second",1,4,1,NA,NA
"1974",54,"b1_3",1,"second",1,3,0,NA,NA
"1975",54,"b3_4",1,"second",1,6,0,NA,NA
"1976",54,"a2_2",1,"native",1,3,1,NA,NA
"1977",54,"a4_5",1,"native",1,3,1,NA,NA
"1978",54,"b2_2",1,"native",1,4,0,NA,NA
"1979",54,"b2_3",1,"native",1,4,0,NA,NA
"1980",54,"b4_1",1,"native",1,4,0,NA,NA
"1981",54,"a1_4",1,"second",1,5,1,NA,NA
"1982",54,"a3_1",1,"second",1,4,1,NA,NA
"1983",54,"b1_4",1,"second",1,4,0,NA,NA
"1984",54,"b3_1",1,"second",1,3,0,NA,NA
"1985",54,"b3_2",1,"second",1,4,0,NA,NA
"1986",54,"a2_3",1,"native",1,4,1,NA,NA
"1987",54,"a4_1",1,"native",1,4,1,NA,NA
"1988",54,"a4_2",1,"native",1,6,1,NA,NA
"1989",54,"b2_4",1,"native",1,4,0,NA,NA
"1990",54,"b4_2",1,"native",1,2,0,NA,NA
"1991",54,"a1_5",1,"second",1,4,1,NA,NA
"1992",54,"a1_3",1,"second",1,4,1,NA,NA
"1993",54,"a3_2",1,"second",1,3,1,NA,NA
"1994",54,"b1_5",1,"second",1,4,0,NA,NA
"1995",54,"b3_5",1,"second",1,4,0,NA,NA
"1996",54,"a2_5",1,"native",1,4,1,NA,NA
"1997",54,"a4_3",1,"native",1,3,1,NA,NA
"1998",54,"b2_5",1,"native",1,3,0,NA,NA
"1999",54,"b4_3",1,"native",1,2,0,NA,NA
"2000",54,"b4_5",1,"native",1,4,0,NA,NA
"2001",55,"a1_1",1,"second",1,5,1,NA,NA
"2002",55,"a3_3",1,"second",1,3,1,NA,NA
"2003",55,"b1_1",1,"second",1,4,0,NA,NA
"2004",55,"b1_2",1,"second",1,2,0,NA,NA
"2005",55,"b3_3",1,"second",1,3,0,NA,NA
"2006",55,"a2_1",1,"native",1,5,1,NA,NA
"2007",55,"a2_4",1,"native",1,3,1,NA,NA
"2008",55,"a4_4",1,"native",1,6,1,NA,NA
"2009",55,"b2_1",1,"native",1,2,0,NA,NA
"2010",55,"b4_4",1,"native",1,2,0,NA,NA
"2011",55,"a1_2",1,"second",1,1,1,NA,NA
"2012",55,"a3_4",1,"second",1,6,1,NA,NA
"2013",55,"a3_5",1,"second",1,4,1,NA,NA
"2014",55,"b1_3",1,"second",1,4,0,NA,NA
"2015",55,"b3_4",1,"second",1,1,0,NA,NA
"2016",55,"a2_2",1,"native",1,1,1,NA,NA
"2017",55,"a4_5",1,"native",1,4,1,NA,NA
"2018",55,"b2_2",1,"native",1,2,0,NA,NA
"2019",55,"b2_3",1,"native",1,5,0,NA,NA
"2020",55,"b4_1",1,"native",1,4,0,NA,NA
"2021",55,"a1_4",1,"second",1,3,1,NA,NA
"2022",55,"a3_1",1,"second",1,5,1,NA,NA
"2023",55,"b1_4",1,"second",1,5,0,NA,NA
"2024",55,"b3_1",1,"second",1,4,0,NA,NA
"2025",55,"b3_2",1,"second",1,3,0,NA,NA
"2026",55,"a2_3",1,"native",1,5,1,NA,NA
"2027",55,"a4_1",1,"native",1,5,1,NA,NA
"2028",55,"a4_2",1,"native",1,5,1,NA,NA
"2029",55,"b2_4",1,"native",1,5,0,NA,NA
"2030",55,"b4_2",1,"native",1,2,0,NA,NA
"2031",55,"a1_5",1,"second",1,4,1,NA,NA
"2032",55,"a1_3",1,"second",1,6,1,NA,NA
"2033",55,"a3_2",1,"second",1,5,1,NA,NA
"2034",55,"b1_5",1,"second",1,1,0,NA,NA
"2035",55,"b3_5",1,"second",1,3,0,NA,NA
"2036",55,"a2_5",1,"native",1,5,1,NA,NA
"2037",55,"a4_3",1,"native",1,4,1,NA,NA
"2038",55,"b2_5",1,"native",1,6,0,NA,NA
"2039",55,"b4_3",1,"native",1,2,0,NA,NA
"2040",55,"b4_5",1,"native",1,2,0,NA,NA
"2041",56,"a1_1",1,"second",1,5,1,NA,NA
"2042",56,"a3_3",1,"second",1,2,1,NA,NA
"2043",56,"b1_1",1,"second",1,4,0,NA,NA
"2044",56,"b1_2",1,"second",1,3,0,NA,NA
"2045",56,"b3_3",1,"second",1,4,0,NA,NA
"2046",56,"a2_1",1,"native",1,6,1,NA,NA
"2047",56,"a2_4",1,"native",1,2,1,NA,NA
"2048",56,"a4_4",1,"native",1,1,1,NA,NA
"2049",56,"b2_1",1,"native",1,2,0,NA,NA
"2050",56,"b4_4",1,"native",1,2,0,NA,NA
"2051",56,"a1_2",1,"second",1,6,1,NA,NA
"2052",56,"a3_4",1,"second",1,1,1,NA,NA
"2053",56,"a3_5",1,"second",1,5,1,NA,NA
"2054",56,"b1_3",1,"second",1,3,0,NA,NA
"2055",56,"b3_4",1,"second",1,3,0,NA,NA
"2056",56,"a2_2",1,"native",1,2,1,NA,NA
"2057",56,"a4_5",1,"native",1,5,1,NA,NA
"2058",56,"b2_2",1,"native",1,5,0,NA,NA
"2059",56,"b2_3",1,"native",1,4,0,NA,NA
"2060",56,"b4_1",1,"native",1,3,0,NA,NA
"2061",56,"a1_4",1,"second",1,3,1,NA,NA
"2062",56,"a3_1",1,"second",1,5,1,NA,NA
"2063",56,"b1_4",1,"second",1,2,0,NA,NA
"2064",56,"b3_1",1,"second",1,3,0,NA,NA
"2065",56,"b3_2",1,"second",1,3,0,NA,NA
"2066",56,"a2_3",1,"native",1,5,1,NA,NA
"2067",56,"a4_1",1,"native",1,2,1,NA,NA
"2068",56,"a4_2",1,"native",1,2,1,NA,NA
"2069",56,"b2_4",1,"native",1,3,0,NA,NA
"2070",56,"b4_2",1,"native",1,2,0,NA,NA
"2071",56,"a1_5",1,"second",1,4,1,NA,NA
"2072",56,"a1_3",1,"second",1,3,1,NA,NA
"2073",56,"a3_2",1,"second",1,5,1,NA,NA
"2074",56,"b1_5",1,"second",1,4,0,NA,NA
"2075",56,"b3_5",1,"second",1,6,0,NA,NA
"2076",56,"a2_5",1,"native",1,4,1,NA,NA
"2077",56,"a4_3",1,"native",1,2,1,NA,NA
"2078",56,"b2_5",1,"native",1,3,0,NA,NA
"2079",56,"b4_3",1,"native",1,2,0,NA,NA
"2080",56,"b4_5",1,"native",1,4,0,NA,NA
"2081",57,"a1_1",1,"second",1,6,1,NA,NA
"2082",57,"a3_3",1,"second",1,6,1,NA,NA
"2083",57,"b1_1",1,"second",1,6,0,NA,NA
"2084",57,"b1_2",1,"second",1,1,0,NA,NA
"2085",57,"b3_3",1,"second",1,4,0,NA,NA
"2086",57,"a2_1",1,"native",1,5,1,NA,NA
"2087",57,"a2_4",1,"native",1,4,1,NA,NA
"2088",57,"a4_4",1,"native",1,1,1,NA,NA
"2089",57,"b2_1",1,"native",1,3,0,NA,NA
"2090",57,"b4_4",1,"native",1,1,0,NA,NA
"2091",57,"a1_2",1,"second",1,6,1,NA,NA
"2092",57,"a3_4",1,"second",1,6,1,NA,NA
"2093",57,"a3_5",1,"second",1,6,1,NA,NA
"2094",57,"b1_3",1,"second",1,1,0,NA,NA
"2095",57,"b3_4",1,"second",1,1,0,NA,NA
"2096",57,"a2_2",1,"native",1,6,1,NA,NA
"2097",57,"a4_5",1,"native",1,6,1,NA,NA
"2098",57,"b2_2",1,"native",1,2,0,NA,NA
"2099",57,"b2_3",1,"native",1,6,0,NA,NA
"2100",57,"b4_1",1,"native",1,5,0,NA,NA
"2101",57,"a1_4",1,"second",1,6,1,NA,NA
"2102",57,"a3_1",1,"second",1,6,1,NA,NA
"2103",57,"b1_4",1,"second",1,2,0,NA,NA
"2104",57,"b3_1",1,"second",1,6,0,NA,NA
"2105",57,"b3_2",1,"second",1,6,0,NA,NA
"2106",57,"a2_3",1,"native",1,1,1,NA,NA
"2107",57,"a4_1",1,"native",1,6,1,NA,NA
"2108",57,"a4_2",1,"native",1,1,1,NA,NA
"2109",57,"b2_4",1,"native",1,6,0,NA,NA
"2110",57,"b4_2",1,"native",1,1,0,NA,NA
"2111",57,"a1_5",1,"second",1,6,1,NA,NA
"2112",57,"a1_3",1,"second",1,6,1,NA,NA
"2113",57,"a3_2",1,"second",1,6,1,NA,NA
"2114",57,"b1_5",1,"second",1,2,0,NA,NA
"2115",57,"b3_5",1,"second",1,2,0,NA,NA
"2116",57,"a2_5",1,"native",1,6,1,NA,NA
"2117",57,"a4_3",1,"native",1,4,1,NA,NA
"2118",57,"b2_5",1,"native",1,3,0,NA,NA
"2119",57,"b4_3",1,"native",1,4,0,NA,NA
"2120",57,"b4_5",1,"native",1,3,0,NA,NA
"2121",58,"a1_1",1,"second",1,3,1,NA,NA
"2122",58,"a3_3",1,"second",1,5,1,NA,NA
"2123",58,"b1_1",1,"second",1,4,0,NA,NA
"2124",58,"b1_2",1,"second",1,3,0,NA,NA
"2125",58,"b3_3",1,"second",1,5,0,NA,NA
"2126",58,"a2_1",1,"native",1,4,1,NA,NA
"2127",58,"a2_4",1,"native",1,6,1,NA,NA
"2128",58,"a4_4",1,"native",1,5,1,NA,NA
"2129",58,"b2_1",1,"native",1,4,0,NA,NA
"2130",58,"b4_4",1,"native",1,1,0,NA,NA
"2131",58,"a1_2",1,"second",1,2,1,NA,NA
"2132",58,"a3_4",1,"second",1,5,1,NA,NA
"2133",58,"a3_5",1,"second",1,5,1,NA,NA
"2134",58,"b1_3",1,"second",1,3,0,NA,NA
"2135",58,"b3_4",1,"second",1,6,0,NA,NA
"2136",58,"a2_2",1,"native",1,6,1,NA,NA
"2137",58,"a4_5",1,"native",1,5,1,NA,NA
"2138",58,"b2_2",1,"native",1,2,0,NA,NA
"2139",58,"b2_3",1,"native",1,4,0,NA,NA
"2140",58,"b4_1",1,"native",1,4,0,NA,NA
"2141",58,"a1_4",1,"second",1,5,1,NA,NA
"2142",58,"a3_1",1,"second",1,5,1,NA,NA
"2143",58,"b1_4",1,"second",1,3,0,NA,NA
"2144",58,"b3_1",1,"second",1,4,0,NA,NA
"2145",58,"b3_2",1,"second",1,3,0,NA,NA
"2146",58,"a2_3",1,"native",1,5,1,NA,NA
"2147",58,"a4_1",1,"native",1,6,1,NA,NA
"2148",58,"a4_2",1,"native",1,3,1,NA,NA
"2149",58,"b2_4",1,"native",1,3,0,NA,NA
"2150",58,"b4_2",1,"native",1,4,0,NA,NA
"2151",58,"a1_5",1,"second",1,5,1,NA,NA
"2152",58,"a1_3",1,"second",1,5,1,NA,NA
"2153",58,"a3_2",1,"second",1,4,1,NA,NA
"2154",58,"b1_5",1,"second",1,3,0,NA,NA
"2155",58,"b3_5",1,"second",1,4,0,NA,NA
"2156",58,"a2_5",1,"native",1,5,1,NA,NA
"2157",58,"a4_3",1,"native",1,3,1,NA,NA
"2158",58,"b2_5",1,"native",1,4,0,NA,NA
"2159",58,"b4_3",1,"native",1,3,0,NA,NA
"2160",58,"b4_5",1,"native",1,3,0,NA,NA
"2161",59,"a1_1",1,"second",1,3,1,NA,NA
"2162",59,"a3_3",1,"second",1,5,1,NA,NA
"2163",59,"b1_1",1,"second",1,1,0,NA,NA
"2164",59,"b1_2",1,"second",1,3,0,NA,NA
"2165",59,"b3_3",1,"second",1,1,0,NA,NA
"2166",59,"a2_1",1,"native",1,3,1,NA,NA
"2167",59,"a2_4",1,"native",1,3,1,NA,NA
"2168",59,"a4_4",1,"native",1,2,1,NA,NA
"2169",59,"b2_1",1,"native",1,4,0,NA,NA
"2170",59,"b4_4",1,"native",1,5,0,NA,NA
"2171",59,"a1_2",1,"second",1,5,1,NA,NA
"2172",59,"a3_4",1,"second",1,4,1,NA,NA
"2173",59,"a3_5",1,"second",1,4,1,NA,NA
"2174",59,"b1_3",1,"second",1,4,0,NA,NA
"2175",59,"b3_4",1,"second",1,2,0,NA,NA
"2176",59,"a2_2",1,"native",1,2,1,NA,NA
"2177",59,"a4_5",1,"native",1,3,1,NA,NA
"2178",59,"b2_2",1,"native",1,3,0,NA,NA
"2179",59,"b2_3",1,"native",1,5,0,NA,NA
"2180",59,"b4_1",1,"native",1,2,0,NA,NA
"2181",59,"a1_4",1,"second",1,4,1,NA,NA
"2182",59,"a3_1",1,"second",1,3,1,NA,NA
"2183",59,"b1_4",1,"second",1,2,0,NA,NA
"2184",59,"b3_1",1,"second",1,3,0,NA,NA
"2185",59,"b3_2",1,"second",1,2,0,NA,NA
"2186",59,"a2_3",1,"native",1,4,1,NA,NA
"2187",59,"a4_1",1,"native",1,2,1,NA,NA
"2188",59,"a4_2",1,"native",1,2,1,NA,NA
"2189",59,"b2_4",1,"native",1,1,0,NA,NA
"2190",59,"b4_2",1,"native",1,3,0,NA,NA
"2191",59,"a1_5",1,"second",1,3,1,NA,NA
"2192",59,"a1_3",1,"second",1,4,1,NA,NA
"2193",59,"a3_2",1,"second",1,2,1,NA,NA
"2194",59,"b1_5",1,"second",1,5,0,NA,NA
"2195",59,"b3_5",1,"second",1,2,0,NA,NA
"2196",59,"a2_5",1,"native",1,1,1,NA,NA
"2197",59,"a4_3",1,"native",1,2,1,NA,NA
"2198",59,"b2_5",1,"native",1,4,0,NA,NA
"2199",59,"b4_3",1,"native",1,4,0,NA,NA
"2200",59,"b4_5",1,"native",1,2,0,NA,NA
"2201",60,"a1_1",1,"second",1,3,1,NA,NA
"2202",60,"a3_3",1,"second",1,3,1,NA,NA
"2203",60,"b1_1",1,"second",1,2,0,NA,NA
"2204",60,"b1_2",1,"second",1,4,0,NA,NA
"2205",60,"b3_3",1,"second",1,3,0,NA,NA
"2206",60,"a2_1",1,"native",1,3,1,NA,NA
"2207",60,"a2_4",1,"native",1,4,1,NA,NA
"2208",60,"a4_4",1,"native",1,2,1,NA,NA
"2209",60,"b2_1",1,"native",1,4,0,NA,NA
"2210",60,"b4_4",1,"native",1,2,0,NA,NA
"2211",60,"a1_2",1,"second",1,4,1,NA,NA
"2212",60,"a3_4",1,"second",1,3,1,NA,NA
"2213",60,"a3_5",1,"second",1,3,1,NA,NA
"2214",60,"b1_3",1,"second",1,4,0,NA,NA
"2215",60,"b3_4",1,"second",1,3,0,NA,NA
"2216",60,"a2_2",1,"native",1,4,1,NA,NA
"2217",60,"a4_5",1,"native",1,3,1,NA,NA
"2218",60,"b2_2",1,"native",1,4,0,NA,NA
"2219",60,"b2_3",1,"native",1,4,0,NA,NA
"2220",60,"b4_1",1,"native",1,3,0,NA,NA
"2221",60,"a1_4",1,"second",1,4,1,NA,NA
"2222",60,"a3_1",1,"second",1,4,1,NA,NA
"2223",60,"b1_4",1,"second",1,4,0,NA,NA
"2224",60,"b3_1",1,"second",1,4,0,NA,NA
"2225",60,"b3_2",1,"second",1,3,0,NA,NA
"2226",60,"a2_3",1,"native",1,3,1,NA,NA
"2227",60,"a4_1",1,"native",1,4,1,NA,NA
"2228",60,"a4_2",1,"native",1,3,1,NA,NA
"2229",60,"b2_4",1,"native",1,2,0,NA,NA
"2230",60,"b4_2",1,"native",1,3,0,NA,NA
"2231",60,"a1_5",1,"second",1,4,1,NA,NA
"2232",60,"a1_3",1,"second",1,4,1,NA,NA
"2233",60,"a3_2",1,"second",1,4,1,NA,NA
"2234",60,"b1_5",1,"second",1,3,0,NA,NA
"2235",60,"b3_5",1,"second",1,4,0,NA,NA
"2236",60,"a2_5",1,"native",1,2,1,NA,NA
"2237",60,"a4_3",1,"native",1,3,1,NA,NA
"2238",60,"b2_5",1,"native",1,4,0,NA,NA
"2239",60,"b4_3",1,"native",1,4,0,NA,NA
"2240",60,"b4_5",1,"native",1,3,0,NA,NA
"2241",61,NA,1,"native",1,6,1,NA,NA
"2242",61,NA,1,"native",1,6,1,NA,NA
"2243",61,NA,1,"native",1,3,0,NA,NA
"2244",61,NA,1,"native",1,1,0,NA,NA
"2245",61,NA,1,"native",1,1,0,NA,NA
"2246",61,NA,1,"second",1,6,1,NA,NA
"2247",61,NA,1,"second",1,6,1,NA,NA
"2248",61,NA,1,"second",1,6,1,NA,NA
"2249",61,NA,1,"second",1,3,0,NA,NA
"2250",61,NA,1,"second",1,3,0,NA,NA
"2251",61,NA,1,"native",1,3,1,NA,NA
"2252",61,NA,1,"native",1,6,1,NA,NA
"2253",61,NA,1,"native",1,4,1,NA,NA
"2254",61,NA,1,"native",1,3,0,NA,NA
"2255",61,NA,1,"native",1,3,0,NA,NA
"2256",61,NA,1,"second",1,1,1,NA,NA
"2257",61,NA,1,"second",1,1,1,NA,NA
"2258",61,NA,1,"second",1,3,0,NA,NA
"2259",61,NA,1,"second",1,1,0,NA,NA
"2260",61,NA,1,"second",1,3,0,NA,NA
"2261",61,NA,1,"native",1,6,1,NA,NA
"2262",61,NA,1,"native",1,6,1,NA,NA
"2263",61,NA,1,"native",1,1,0,NA,NA
"2264",61,NA,1,"native",1,3,0,NA,NA
"2265",61,NA,1,"native",1,6,0,NA,NA
"2266",61,NA,1,"second",1,1,1,NA,NA
"2267",61,NA,1,"second",1,6,1,NA,NA
"2268",61,NA,1,"second",1,6,1,NA,NA
"2269",61,NA,1,"second",1,1,0,NA,NA
"2270",61,NA,1,"second",1,3,0,NA,NA
"2271",61,NA,1,"native",1,6,1,NA,NA
"2272",61,NA,1,"native",1,6,1,NA,NA
"2273",61,NA,1,"native",1,6,1,NA,NA
"2274",61,NA,1,"native",1,3,0,NA,NA
"2275",61,NA,1,"native",1,4,0,NA,NA
"2276",61,NA,1,"second",1,1,1,NA,NA
"2277",61,NA,1,"second",1,1,1,NA,NA
"2278",61,NA,1,"second",1,1,0,NA,NA
"2279",61,NA,1,"second",1,3,0,NA,NA
"2280",61,NA,1,"second",1,3,0,NA,NA
"2281",62,NA,1,"native",1,6,1,NA,NA
"2282",62,NA,1,"native",1,4,1,NA,NA
"2283",62,NA,1,"native",1,1,0,NA,NA
"2284",62,NA,1,"native",1,5,0,NA,NA
"2285",62,NA,1,"native",1,2,0,NA,NA
"2286",62,NA,1,"second",1,5,1,NA,NA
"2287",62,NA,1,"second",1,5,1,NA,NA
"2288",62,NA,1,"second",1,6,1,NA,NA
"2289",62,NA,1,"second",1,2,0,NA,NA
"2290",62,NA,1,"second",1,6,0,NA,NA
"2291",62,NA,1,"native",1,2,1,NA,NA
"2292",62,NA,1,"native",1,6,1,NA,NA
"2293",62,NA,1,"native",1,6,1,NA,NA
"2294",62,NA,1,"native",1,3,0,NA,NA
"2295",62,NA,1,"native",1,1,0,NA,NA
"2296",62,NA,1,"second",1,1,1,NA,NA
"2297",62,NA,1,"second",1,1,1,NA,NA
"2298",62,NA,1,"second",1,4,0,NA,NA
"2299",62,NA,1,"second",1,5,0,NA,NA
"2300",62,NA,1,"second",1,4,0,NA,NA
"2301",62,NA,1,"native",1,2,1,NA,NA
"2302",62,NA,1,"native",1,5,1,NA,NA
"2303",62,NA,1,"native",1,3,0,NA,NA
"2304",62,NA,1,"native",1,4,0,NA,NA
"2305",62,NA,1,"native",1,4,0,NA,NA
"2306",62,NA,1,"second",1,5,1,NA,NA
"2307",62,NA,1,"second",1,6,1,NA,NA
"2308",62,NA,1,"second",1,5,1,NA,NA
"2309",62,NA,1,"second",1,4,0,NA,NA
"2310",62,NA,1,"second",1,1,0,NA,NA
"2311",62,NA,1,"native",1,6,1,NA,NA
"2312",62,NA,1,"native",1,4,1,NA,NA
"2313",62,NA,1,"native",1,6,1,NA,NA
"2314",62,NA,1,"native",1,5,0,NA,NA
"2315",62,NA,1,"native",1,5,0,NA,NA
"2316",62,NA,1,"second",1,2,1,NA,NA
"2317",62,NA,1,"second",1,3,1,NA,NA
"2318",62,NA,1,"second",1,4,0,NA,NA
"2319",62,NA,1,"second",1,4,0,NA,NA
"2320",62,NA,1,"second",1,2,0,NA,NA
"2321",63,NA,1,"native",1,4,1,NA,NA
"2322",63,NA,1,"native",1,5,1,NA,NA
"2323",63,NA,1,"native",1,1,0,NA,NA
"2324",63,NA,1,"native",1,4,0,NA,NA
"2325",63,NA,1,"native",1,4,0,NA,NA
"2326",63,NA,1,"second",1,4,1,NA,NA
"2327",63,NA,1,"second",1,4,1,NA,NA
"2328",63,NA,1,"second",1,1,1,NA,NA
"2329",63,NA,1,"second",1,3,0,NA,NA
"2330",63,NA,1,"second",1,1,0,NA,NA
"2331",63,NA,1,"native",1,1,1,NA,NA
"2332",63,NA,1,"native",1,4,1,NA,NA
"2333",63,NA,1,"native",1,4,1,NA,NA
"2334",63,NA,1,"native",1,4,0,NA,NA
"2335",63,NA,1,"native",1,6,0,NA,NA
"2336",63,NA,1,"second",1,6,1,NA,NA
"2337",63,NA,1,"second",1,3,1,NA,NA
"2338",63,NA,1,"second",1,6,0,NA,NA
"2339",63,NA,1,"second",1,5,0,NA,NA
"2340",63,NA,1,"second",1,4,0,NA,NA
"2341",63,NA,1,"native",1,5,1,NA,NA
"2342",63,NA,1,"native",1,4,1,NA,NA
"2343",63,NA,1,"native",1,4,0,NA,NA
"2344",63,NA,1,"native",1,2,0,NA,NA
"2345",63,NA,1,"native",1,4,0,NA,NA
"2346",63,NA,1,"second",1,4,1,NA,NA
"2347",63,NA,1,"second",1,4,1,NA,NA
"2348",63,NA,1,"second",1,3,1,NA,NA
"2349",63,NA,1,"second",1,4,0,NA,NA
"2350",63,NA,1,"second",1,4,0,NA,NA
"2351",63,NA,1,"native",1,5,1,NA,NA
"2352",63,NA,1,"native",1,4,1,NA,NA
"2353",63,NA,1,"native",1,4,1,NA,NA
"2354",63,NA,1,"native",1,5,0,NA,NA
"2355",63,NA,1,"native",1,4,0,NA,NA
"2356",63,NA,1,"second",1,6,1,NA,NA
"2357",63,NA,1,"second",1,3,1,NA,NA
"2358",63,NA,1,"second",1,4,0,NA,NA
"2359",63,NA,1,"second",1,3,0,NA,NA
"2360",63,NA,1,"second",1,4,0,NA,NA
"2361",64,NA,1,"native",1,6,1,NA,NA
"2362",64,NA,1,"native",1,1,1,NA,NA
"2363",64,NA,1,"native",1,2,0,NA,NA
"2364",64,NA,1,"native",1,3,0,NA,NA
"2365",64,NA,1,"native",1,4,0,NA,NA
"2366",64,NA,1,"second",1,5,1,NA,NA
"2367",64,NA,1,"second",1,5,1,NA,NA
"2368",64,NA,1,"second",1,2,1,NA,NA
"2369",64,NA,1,"second",1,3,0,NA,NA
"2370",64,NA,1,"second",1,2,0,NA,NA
"2371",64,NA,1,"native",1,1,1,NA,NA
"2372",64,NA,1,"native",1,5,1,NA,NA
"2373",64,NA,1,"native",1,5,1,NA,NA
"2374",64,NA,1,"native",1,2,0,NA,NA
"2375",64,NA,1,"native",1,3,0,NA,NA
"2376",64,NA,1,"second",1,2,1,NA,NA
"2377",64,NA,1,"second",1,2,1,NA,NA
"2378",64,NA,1,"second",1,6,0,NA,NA
"2379",64,NA,1,"second",1,3,0,NA,NA
"2380",64,NA,1,"second",1,5,0,NA,NA
"2381",64,NA,1,"native",1,5,1,NA,NA
"2382",64,NA,1,"native",1,6,1,NA,NA
"2383",64,NA,1,"native",1,2,0,NA,NA
"2384",64,NA,1,"native",1,6,0,NA,NA
"2385",64,NA,1,"native",1,3,0,NA,NA
"2386",64,NA,1,"second",1,5,1,NA,NA
"2387",64,NA,1,"second",1,5,1,NA,NA
"2388",64,NA,1,"second",1,4,1,NA,NA
"2389",64,NA,1,"second",1,2,0,NA,NA
"2390",64,NA,1,"second",1,2,0,NA,NA
"2391",64,NA,1,"native",1,4,1,NA,NA
"2392",64,NA,1,"native",1,4,1,NA,NA
"2393",64,NA,1,"native",1,6,1,NA,NA
"2394",64,NA,1,"native",1,5,0,NA,NA
"2395",64,NA,1,"native",1,3,0,NA,NA
"2396",64,NA,1,"second",1,6,1,NA,NA
"2397",64,NA,1,"second",1,2,1,NA,NA
"2398",64,NA,1,"second",1,5,0,NA,NA
"2399",64,NA,1,"second",1,5,0,NA,NA
"2400",64,NA,1,"second",1,4,0,NA,NA
"2401",65,NA,1,"native",1,2,1,NA,NA
"2402",65,NA,1,"native",1,3,1,NA,NA
"2403",65,NA,1,"native",1,2,0,NA,NA
"2404",65,NA,1,"native",1,2,0,NA,NA
"2405",65,NA,1,"native",1,2,0,NA,NA
"2406",65,NA,1,"second",1,4,1,NA,NA
"2407",65,NA,1,"second",1,3,1,NA,NA
"2408",65,NA,1,"second",1,2,1,NA,NA
"2409",65,NA,1,"second",1,2,0,NA,NA
"2410",65,NA,1,"second",1,4,0,NA,NA
"2411",65,NA,1,"native",1,5,1,NA,NA
"2412",65,NA,1,"native",1,2,1,NA,NA
"2413",65,NA,1,"native",1,5,1,NA,NA
"2414",65,NA,1,"native",1,3,0,NA,NA
"2415",65,NA,1,"native",1,3,0,NA,NA
"2416",65,NA,1,"second",1,3,1,NA,NA
"2417",65,NA,1,"second",1,2,1,NA,NA
"2418",65,NA,1,"second",1,3,0,NA,NA
"2419",65,NA,1,"second",1,5,0,NA,NA
"2420",65,NA,1,"second",1,4,0,NA,NA
"2421",65,NA,1,"native",1,4,1,NA,NA
"2422",65,NA,1,"native",1,4,1,NA,NA
"2423",65,NA,1,"native",1,3,0,NA,NA
"2424",65,NA,1,"native",1,4,0,NA,NA
"2425",65,NA,1,"native",1,4,0,NA,NA
"2426",65,NA,1,"second",1,5,1,NA,NA
"2427",65,NA,1,"second",1,3,1,NA,NA
"2428",65,NA,1,"second",1,5,1,NA,NA
"2429",65,NA,1,"second",1,5,0,NA,NA
"2430",65,NA,1,"second",1,3,0,NA,NA
"2431",65,NA,1,"native",1,3,1,NA,NA
"2432",65,NA,1,"native",1,3,1,NA,NA
"2433",65,NA,1,"native",1,4,1,NA,NA
"2434",65,NA,1,"native",1,5,0,NA,NA
"2435",65,NA,1,"native",1,5,0,NA,NA
"2436",65,NA,1,"second",1,5,1,NA,NA
"2437",65,NA,1,"second",1,2,1,NA,NA
"2438",65,NA,1,"second",1,4,0,NA,NA
"2439",65,NA,1,"second",1,3,0,NA,NA
"2440",65,NA,1,"second",1,2,0,NA,NA
"2441",66,NA,1,"native",1,3,1,NA,NA
"2442",66,NA,1,"native",1,3,1,NA,NA
"2443",66,NA,1,"native",1,5,0,NA,NA
"2444",66,NA,1,"native",1,1,0,NA,NA
"2445",66,NA,1,"native",1,3,0,NA,NA
"2446",66,NA,1,"second",1,3,1,NA,NA
"2447",66,NA,1,"second",1,6,1,NA,NA
"2448",66,NA,1,"second",1,3,1,NA,NA
"2449",66,NA,1,"second",1,3,0,NA,NA
"2450",66,NA,1,"second",1,1,0,NA,NA
"2451",66,NA,1,"native",1,3,1,NA,NA
"2452",66,NA,1,"native",1,3,1,NA,NA
"2453",66,NA,1,"native",1,5,1,NA,NA
"2454",66,NA,1,"native",1,3,0,NA,NA
"2455",66,NA,1,"native",1,3,0,NA,NA
"2456",66,NA,1,"second",1,3,1,NA,NA
"2457",66,NA,1,"second",1,3,1,NA,NA
"2458",66,NA,1,"second",1,3,0,NA,NA
"2459",66,NA,1,"second",1,3,0,NA,NA
"2460",66,NA,1,"second",1,4,0,NA,NA
"2461",66,NA,1,"native",1,3,1,NA,NA
"2462",66,NA,1,"native",1,4,1,NA,NA
"2463",66,NA,1,"native",1,3,0,NA,NA
"2464",66,NA,1,"native",1,4,0,NA,NA
"2465",66,NA,1,"native",1,3,0,NA,NA
"2466",66,NA,1,"second",1,3,1,NA,NA
"2467",66,NA,1,"second",1,4,1,NA,NA
"2468",66,NA,1,"second",1,1,1,NA,NA
"2469",66,NA,1,"second",1,1,0,NA,NA
"2470",66,NA,1,"second",1,6,0,NA,NA
"2471",66,NA,1,"native",1,6,1,NA,NA
"2472",66,NA,1,"native",1,4,1,NA,NA
"2473",66,NA,1,"native",1,4,1,NA,NA
"2474",66,NA,1,"native",1,4,0,NA,NA
"2475",66,NA,1,"native",1,4,0,NA,NA
"2476",66,NA,1,"second",1,6,1,NA,NA
"2477",66,NA,1,"second",1,3,1,NA,NA
"2478",66,NA,1,"second",1,3,0,NA,NA
"2479",66,NA,1,"second",1,4,0,NA,NA
"2480",66,NA,1,"second",1,3,0,NA,NA
"2481",67,NA,1,"native",1,5,1,NA,NA
"2482",67,NA,1,"native",1,3,1,NA,NA
"2483",67,NA,1,"native",1,2,0,NA,NA
"2484",67,NA,1,"native",1,1,0,NA,NA
"2485",67,NA,1,"native",1,2,0,NA,NA
"2486",67,NA,1,"second",1,4,1,NA,NA
"2487",67,NA,1,"second",1,5,1,NA,NA
"2488",67,NA,1,"second",1,1,1,NA,NA
"2489",67,NA,1,"second",1,2,0,NA,NA
"2490",67,NA,1,"second",1,3,0,NA,NA
"2491",67,NA,1,"native",1,1,1,NA,NA
"2492",67,NA,1,"native",1,5,1,NA,NA
"2493",67,NA,1,"native",1,5,1,NA,NA
"2494",67,NA,1,"native",1,1,0,NA,NA
"2495",67,NA,1,"native",1,1,0,NA,NA
"2496",67,NA,1,"second",1,2,1,NA,NA
"2497",67,NA,1,"second",1,2,1,NA,NA
"2498",67,NA,1,"second",1,4,0,NA,NA
"2499",67,NA,1,"second",1,5,0,NA,NA
"2500",67,NA,1,"second",1,5,0,NA,NA
"2501",67,NA,1,"native",1,5,1,NA,NA
"2502",67,NA,1,"native",1,3,1,NA,NA
"2503",67,NA,1,"native",1,4,0,NA,NA
"2504",67,NA,1,"native",1,2,0,NA,NA
"2505",67,NA,1,"native",1,4,0,NA,NA
"2506",67,NA,1,"second",1,5,1,NA,NA
"2507",67,NA,1,"second",1,4,1,NA,NA
"2508",67,NA,1,"second",1,4,1,NA,NA
"2509",67,NA,1,"second",1,1,0,NA,NA
"2510",67,NA,1,"second",1,3,0,NA,NA
"2511",67,NA,1,"native",1,6,1,NA,NA
"2512",67,NA,1,"native",1,5,1,NA,NA
"2513",67,NA,1,"native",1,5,1,NA,NA
"2514",67,NA,1,"native",1,4,0,NA,NA
"2515",67,NA,1,"native",1,5,0,NA,NA
"2516",67,NA,1,"second",1,6,1,NA,NA
"2517",67,NA,1,"second",1,1,1,NA,NA
"2518",67,NA,1,"second",1,1,0,NA,NA
"2519",67,NA,1,"second",1,6,0,NA,NA
"2520",67,NA,1,"second",1,5,0,NA,NA
"2521",68,NA,1,"native",1,6,1,NA,NA
"2522",68,NA,1,"native",1,6,1,NA,NA
"2523",68,NA,1,"native",1,1,0,NA,NA
"2524",68,NA,1,"native",1,1,0,NA,NA
"2525",68,NA,1,"native",1,2,0,NA,NA
"2526",68,NA,1,"second",1,6,1,NA,NA
"2527",68,NA,1,"second",1,6,1,NA,NA
"2528",68,NA,1,"second",1,5,1,NA,NA
"2529",68,NA,1,"second",1,3,0,NA,NA
"2530",68,NA,1,"second",1,3,0,NA,NA
"2531",68,NA,1,"native",1,6,1,NA,NA
"2532",68,NA,1,"native",1,6,1,NA,NA
"2533",68,NA,1,"native",1,5,1,NA,NA
"2534",68,NA,1,"native",1,3,0,NA,NA
"2535",68,NA,1,"native",1,3,0,NA,NA
"2536",68,NA,1,"second",1,1,1,NA,NA
"2537",68,NA,1,"second",1,5,1,NA,NA
"2538",68,NA,1,"second",1,3,0,NA,NA
"2539",68,NA,1,"second",1,3,0,NA,NA
"2540",68,NA,1,"second",1,3,0,NA,NA
"2541",68,NA,1,"native",1,6,1,NA,NA
"2542",68,NA,1,"native",1,6,1,NA,NA
"2543",68,NA,1,"native",1,3,0,NA,NA
"2544",68,NA,1,"native",1,3,0,NA,NA
"2545",68,NA,1,"native",1,3,0,NA,NA
"2546",68,NA,1,"second",1,6,1,NA,NA
"2547",68,NA,1,"second",1,6,1,NA,NA
"2548",68,NA,1,"second",1,6,1,NA,NA
"2549",68,NA,1,"second",1,3,0,NA,NA
"2550",68,NA,1,"second",1,3,0,NA,NA
"2551",68,NA,1,"native",1,6,1,NA,NA
"2552",68,NA,1,"native",1,6,1,NA,NA
"2553",68,NA,1,"native",1,5,1,NA,NA
"2554",68,NA,1,"native",1,3,0,NA,NA
"2555",68,NA,1,"native",1,2,0,NA,NA
"2556",68,NA,1,"second",1,6,1,NA,NA
"2557",68,NA,1,"second",1,6,1,NA,NA
"2558",68,NA,1,"second",1,3,0,NA,NA
"2559",68,NA,1,"second",1,3,0,NA,NA
"2560",68,NA,1,"second",1,3,0,NA,NA
"2561",69,NA,1,"native",1,6,1,NA,NA
"2562",69,NA,1,"native",1,6,1,NA,NA
"2563",69,NA,1,"native",1,3,0,NA,NA
"2564",69,NA,1,"native",1,4,0,NA,NA
"2565",69,NA,1,"native",1,4,0,NA,NA
"2566",69,NA,1,"second",1,6,1,NA,NA
"2567",69,NA,1,"second",1,6,1,NA,NA
"2568",69,NA,1,"second",1,5,1,NA,NA
"2569",69,NA,1,"second",1,3,0,NA,NA
"2570",69,NA,1,"second",1,1,0,NA,NA
"2571",69,NA,1,"native",1,2,1,NA,NA
"2572",69,NA,1,"native",1,6,1,NA,NA
"2573",69,NA,1,"native",1,6,1,NA,NA
"2574",69,NA,1,"native",1,3,0,NA,NA
"2575",69,NA,1,"native",1,1,0,NA,NA
"2576",69,NA,1,"second",1,1,1,NA,NA
"2577",69,NA,1,"second",1,3,1,NA,NA
"2578",69,NA,1,"second",1,5,0,NA,NA
"2579",69,NA,1,"second",1,4,0,NA,NA
"2580",69,NA,1,"second",1,5,0,NA,NA
"2581",69,NA,1,"native",1,6,1,NA,NA
"2582",69,NA,1,"native",1,5,1,NA,NA
"2583",69,NA,1,"native",1,4,0,NA,NA
"2584",69,NA,1,"native",1,5,0,NA,NA
"2585",69,NA,1,"native",1,2,0,NA,NA
"2586",69,NA,1,"second",1,1,1,NA,NA
"2587",69,NA,1,"second",1,3,1,NA,NA
"2588",69,NA,1,"second",1,6,1,NA,NA
"2589",69,NA,1,"second",1,4,0,NA,NA
"2590",69,NA,1,"second",1,4,0,NA,NA
"2591",69,NA,1,"native",1,6,1,NA,NA
"2592",69,NA,1,"native",1,1,1,NA,NA
"2593",69,NA,1,"native",1,6,1,NA,NA
"2594",69,NA,1,"native",1,6,0,NA,NA
"2595",69,NA,1,"native",1,4,0,NA,NA
"2596",69,NA,1,"second",1,2,1,NA,NA
"2597",69,NA,1,"second",1,6,1,NA,NA
"2598",69,NA,1,"second",1,3,0,NA,NA
"2599",69,NA,1,"second",1,3,0,NA,NA
"2600",69,NA,1,"second",1,4,0,NA,NA
"2601",70,NA,1,"native",1,3,1,NA,NA
"2602",70,NA,1,"native",1,6,1,NA,NA
"2603",70,NA,1,"native",1,4,0,NA,NA
"2604",70,NA,1,"native",1,3,0,NA,NA
"2605",70,NA,1,"native",1,3,0,NA,NA
"2606",70,NA,1,"second",1,4,1,NA,NA
"2607",70,NA,1,"second",1,6,1,NA,NA
"2608",70,NA,1,"second",1,6,1,NA,NA
"2609",70,NA,1,"second",1,2,0,NA,NA
"2610",70,NA,1,"second",1,4,0,NA,NA
"2611",70,NA,1,"native",1,1,1,NA,NA
"2612",70,NA,1,"native",1,6,1,NA,NA
"2613",70,NA,1,"native",1,6,1,NA,NA
"2614",70,NA,1,"native",1,2,0,NA,NA
"2615",70,NA,1,"native",1,3,0,NA,NA
"2616",70,NA,1,"second",1,6,1,NA,NA
"2617",70,NA,1,"second",1,2,1,NA,NA
"2618",70,NA,1,"second",1,2,0,NA,NA
"2619",70,NA,1,"second",1,6,0,NA,NA
"2620",70,NA,1,"second",1,3,0,NA,NA
"2621",70,NA,1,"native",1,6,1,NA,NA
"2622",70,NA,1,"native",1,6,1,NA,NA
"2623",70,NA,1,"native",1,3,0,NA,NA
"2624",70,NA,1,"native",1,2,0,NA,NA
"2625",70,NA,1,"native",1,2,0,NA,NA
"2626",70,NA,1,"second",1,6,1,NA,NA
"2627",70,NA,1,"second",1,6,1,NA,NA
"2628",70,NA,1,"second",1,6,1,NA,NA
"2629",70,NA,1,"second",1,4,0,NA,NA
"2630",70,NA,1,"second",1,3,0,NA,NA
"2631",70,NA,1,"native",1,3,1,NA,NA
"2632",70,NA,1,"native",1,6,1,NA,NA
"2633",70,NA,1,"native",1,6,1,NA,NA
"2634",70,NA,1,"native",1,2,0,NA,NA
"2635",70,NA,1,"native",1,4,0,NA,NA
"2636",70,NA,1,"second",1,4,1,NA,NA
"2637",70,NA,1,"second",1,3,1,NA,NA
"2638",70,NA,1,"second",1,4,0,NA,NA
"2639",70,NA,1,"second",1,4,0,NA,NA
"2640",70,NA,1,"second",1,3,0,NA,NA
"2641",71,NA,1,"native",1,5,1,NA,NA
"2642",71,NA,1,"native",1,3,1,NA,NA
"2643",71,NA,1,"native",1,4,0,NA,NA
"2644",71,NA,1,"native",1,5,0,NA,NA
"2645",71,NA,1,"native",1,4,0,NA,NA
"2646",71,NA,1,"second",1,4,1,NA,NA
"2647",71,NA,1,"second",1,5,1,NA,NA
"2648",71,NA,1,"second",1,4,1,NA,NA
"2649",71,NA,1,"second",1,3,0,NA,NA
"2650",71,NA,1,"second",1,4,0,NA,NA
"2651",71,NA,1,"native",1,6,1,NA,NA
"2652",71,NA,1,"native",1,5,1,NA,NA
"2653",71,NA,1,"native",1,5,1,NA,NA
"2654",71,NA,1,"native",1,4,0,NA,NA
"2655",71,NA,1,"native",1,2,0,NA,NA
"2656",71,NA,1,"second",1,3,1,NA,NA
"2657",71,NA,1,"second",1,4,1,NA,NA
"2658",71,NA,1,"second",1,6,0,NA,NA
"2659",71,NA,1,"second",1,6,0,NA,NA
"2660",71,NA,1,"second",1,5,0,NA,NA
"2661",71,NA,1,"native",1,4,1,NA,NA
"2662",71,NA,1,"native",1,5,1,NA,NA
"2663",71,NA,1,"native",1,4,0,NA,NA
"2664",71,NA,1,"native",1,4,0,NA,NA
"2665",71,NA,1,"native",1,4,0,NA,NA
"2666",71,NA,1,"second",1,5,1,NA,NA
"2667",71,NA,1,"second",1,4,1,NA,NA
"2668",71,NA,1,"second",1,4,1,NA,NA
"2669",71,NA,1,"second",1,2,0,NA,NA
"2670",71,NA,1,"second",1,5,0,NA,NA
"2671",71,NA,1,"native",1,6,1,NA,NA
"2672",71,NA,1,"native",1,5,1,NA,NA
"2673",71,NA,1,"native",1,5,1,NA,NA
"2674",71,NA,1,"native",1,5,0,NA,NA
"2675",71,NA,1,"native",1,4,0,NA,NA
"2676",71,NA,1,"second",1,2,1,NA,NA
"2677",71,NA,1,"second",1,3,1,NA,NA
"2678",71,NA,1,"second",1,4,0,NA,NA
"2679",71,NA,1,"second",1,4,0,NA,NA
"2680",71,NA,1,"second",1,4,0,NA,NA
"2681",72,NA,1,"native",1,5,1,NA,NA
"2682",72,NA,1,"native",1,6,1,NA,NA
"2683",72,NA,1,"native",1,2,0,NA,NA
"2684",72,NA,1,"native",1,1,0,NA,NA
"2685",72,NA,1,"native",1,5,0,NA,NA
