"","subject","statement_identifier","presentation_identifier","within_identifier","between_identifier","response","repeated","rt","trial"
"1",2,"a1_1",1,"second",1,3,1,NA,NA
"2",2,"a3_3",1,"second",1,2,1,NA,NA
"3",2,"b1_1",1,"second",1,5,0,NA,NA
"4",2,"b1_2",1,"second",1,3,0,NA,NA
"5",2,"b3_3",1,"second",1,3,0,NA,NA
"6",2,"a2_1",1,"native",1,6,1,NA,NA
"7",2,"a2_4",1,"native",1,5,1,NA,NA
"8",2,"a4_4",1,"native",1,1,1,NA,NA
"9",2,"b2_1",1,"native",1,4,0,NA,NA
"10",2,"b4_4",1,"native",1,3,0,NA,NA
"11",2,"a1_2",1,"second",1,6,1,NA,NA
"12",2,"a3_4",1,"second",1,2,1,NA,NA
"13",2,"a3_5",1,"second",1,3,1,NA,NA
"14",2,"b1_3",1,"second",1,1,0,NA,NA
"15",2,"b3_4",1,"second",1,1,0,NA,NA
"16",2,"a2_2",1,"native",1,5,1,NA,NA
"17",2,"a4_5",1,"native",1,5,1,NA,NA
"18",2,"b2_2",1,"native",1,5,0,NA,NA
"19",2,"b2_3",1,"native",1,4,0,NA,NA
"20",2,"b4_1",1,"native",1,6,0,NA,NA
"21",2,"a1_4",1,"second",1,6,1,NA,NA
"22",2,"a3_1",1,"second",1,6,1,NA,NA
"23",2,"b1_4",1,"second",1,4,0,NA,NA
"24",2,"b3_1",1,"second",1,4,0,NA,NA
"25",2,"b3_2",1,"second",1,6,0,NA,NA
"26",2,"a2_3",1,"native",1,6,1,NA,NA
"27",2,"a4_1",1,"native",1,2,1,NA,NA
"28",2,"a4_2",1,"native",1,4,1,NA,NA
"29",2,"b2_4",1,"native",1,4,0,NA,NA
"30",2,"b4_2",1,"native",1,1,0,NA,NA
"31",2,"a1_5",1,"second",1,6,1,NA,NA
"32",2,"a1_3",1,"second",1,5,1,NA,NA
"33",2,"a3_2",1,"second",1,4,1,NA,NA
"34",2,"b1_5",1,"second",1,5,0,NA,NA
"35",2,"b3_5",1,"second",1,5,0,NA,NA
"36",2,"a2_5",1,"native",1,1,1,NA,NA
"37",2,"a4_3",1,"native",1,1,1,NA,NA
"38",2,"b2_5",1,"native",1,4,0,NA,NA
"39",2,"b4_3",1,"native",1,4,0,NA,NA
"40",2,"b4_5",1,"native",1,4,0,NA,NA
"41",3,"a1_1",1,"second",1,5,0,NA,NA
"42",3,"a3_3",1,"second",1,2,0,NA,NA
"43",3,"b1_1",1,"second",1,1,1,NA,NA
"44",3,"b1_2",1,"second",1,4,1,NA,NA
"45",3,"b3_3",1,"second",1,3,1,NA,NA
"46",3,"a2_1",1,"native",1,6,0,NA,NA
"47",3,"a2_4",1,"native",1,4,0,NA,NA
"48",3,"a4_4",1,"native",1,2,0,NA,NA
"49",3,"b2_1",1,"native",1,2,1,NA,NA
"50",3,"b4_4",1,"native",1,3,1,NA,NA
"51",3,"a1_2",1,"second",1,5,0,NA,NA
"52",3,"a3_4",1,"second",1,2,0,NA,NA
"53",3,"a3_5",1,"second",1,5,0,NA,NA
"54",3,"b1_3",1,"second",1,1,1,NA,NA
"55",3,"b3_4",1,"second",1,1,1,NA,NA
"56",3,"a2_2",1,"native",1,1,0,NA,NA
"57",3,"a4_5",1,"native",1,3,0,NA,NA
"58",3,"b2_2",1,"native",1,6,1,NA,NA
"59",3,"b2_3",1,"native",1,4,1,NA,NA
"60",3,"b4_1",1,"native",1,6,1,NA,NA
"61",3,"a1_4",1,"second",1,5,0,NA,NA
"62",3,"a3_1",1,"second",1,3,0,NA,NA
"63",3,"b1_4",1,"second",1,5,1,NA,NA
"64",3,"b3_1",1,"second",1,2,1,NA,NA
"65",3,"b3_2",1,"second",1,6,1,NA,NA
"66",3,"a2_3",1,"native",1,4,0,NA,NA
"67",3,"a4_1",1,"native",1,3,0,NA,NA
"68",3,"a4_2",1,"native",1,2,0,NA,NA
"69",3,"b2_4",1,"native",1,1,1,NA,NA
"70",3,"b4_2",1,"native",1,6,1,NA,NA
"71",3,"a1_5",1,"second",1,6,0,NA,NA
"72",3,"a1_3",1,"second",1,5,0,NA,NA
"73",3,"a3_2",1,"second",1,4,0,NA,NA
"74",3,"b1_5",1,"second",1,5,1,NA,NA
"75",3,"b3_5",1,"second",1,2,1,NA,NA
"76",3,"a2_5",1,"native",1,1,0,NA,NA
"77",3,"a4_3",1,"native",1,4,0,NA,NA
"78",3,"b2_5",1,"native",1,4,1,NA,NA
"79",3,"b4_3",1,"native",1,5,1,NA,NA
"80",3,"b4_5",1,"native",1,4,1,NA,NA
"81",4,NA,1,"native",1,6,1,NA,NA
"82",4,NA,1,"native",1,6,1,NA,NA
"83",4,NA,1,"native",1,4,0,NA,NA
"84",4,NA,1,"native",1,4,0,NA,NA
"85",4,NA,1,"native",1,3,0,NA,NA
"86",4,NA,1,"second",1,6,1,NA,NA
"87",4,NA,1,"second",1,5,1,NA,NA
"88",4,NA,1,"second",1,5,1,NA,NA
"89",4,NA,1,"second",1,4,0,NA,NA
"90",4,NA,1,"second",1,4,0,NA,NA
"91",4,NA,1,"native",1,4,1,NA,NA
"92",4,NA,1,"native",1,6,1,NA,NA
"93",4,NA,1,"native",1,6,1,NA,NA
"94",4,NA,1,"native",1,3,0,NA,NA
"95",4,NA,1,"native",1,3,0,NA,NA
"96",4,NA,1,"second",1,3,1,NA,NA
"97",4,NA,1,"second",1,5,1,NA,NA
"98",4,NA,1,"second",1,4,0,NA,NA
"99",4,NA,1,"second",1,4,0,NA,NA
"100",4,NA,1,"second",1,3,0,NA,NA
"101",4,NA,1,"native",1,5,1,NA,NA
"102",4,NA,1,"native",1,6,1,NA,NA
"103",4,NA,1,"native",1,4,0,NA,NA
"104",4,NA,1,"native",1,3,0,NA,NA
"105",4,NA,1,"native",1,5,0,NA,NA
"106",4,NA,1,"second",1,3,1,NA,NA
"107",4,NA,1,"second",1,6,1,NA,NA
"108",4,NA,1,"second",1,5,1,NA,NA
"109",4,NA,1,"second",1,4,0,NA,NA
"110",4,NA,1,"second",1,3,0,NA,NA
"111",4,NA,1,"native",1,5,1,NA,NA
"112",4,NA,1,"native",1,5,1,NA,NA
"113",4,NA,1,"native",1,5,1,NA,NA
"114",4,NA,1,"native",1,4,0,NA,NA
"115",4,NA,1,"native",1,4,0,NA,NA
"116",4,NA,1,"second",1,6,1,NA,NA
"117",4,NA,1,"second",1,6,1,NA,NA
"118",4,NA,1,"second",1,3,0,NA,NA
"119",4,NA,1,"second",1,3,0,NA,NA
"120",4,NA,1,"second",1,3,0,NA,NA
"121",5,NA,1,"native",1,3,0,NA,NA
"122",5,NA,1,"native",1,5,0,NA,NA
"123",5,NA,1,"native",1,1,1,NA,NA
"124",5,NA,1,"native",1,3,1,NA,NA
"125",5,NA,1,"native",1,5,1,NA,NA
"126",5,NA,1,"second",1,1,0,NA,NA
"127",5,NA,1,"second",1,1,0,NA,NA
"128",5,NA,1,"second",1,1,0,NA,NA
"129",5,NA,1,"second",1,3,1,NA,NA
"130",5,NA,1,"second",1,2,1,NA,NA
"131",5,NA,1,"native",1,6,0,NA,NA
"132",5,NA,1,"native",1,6,0,NA,NA
"133",5,NA,1,"native",1,6,0,NA,NA
"134",5,NA,1,"native",1,6,1,NA,NA
"135",5,NA,1,"native",1,1,1,NA,NA
"136",5,NA,1,"second",1,6,0,NA,NA
"137",5,NA,1,"second",1,3,0,NA,NA
"138",5,NA,1,"second",1,4,1,NA,NA
"139",5,NA,1,"second",1,2,1,NA,NA
"140",5,NA,1,"second",1,2,1,NA,NA
"141",5,NA,1,"native",1,5,0,NA,NA
"142",5,NA,1,"native",1,6,0,NA,NA
"143",5,NA,1,"native",1,4,1,NA,NA
"144",5,NA,1,"native",1,4,1,NA,NA
"145",5,NA,1,"native",1,6,1,NA,NA
"146",5,NA,1,"second",1,6,0,NA,NA
"147",5,NA,1,"second",1,5,0,NA,NA
"148",5,NA,1,"second",1,3,0,NA,NA
"149",5,NA,1,"second",1,4,1,NA,NA
"150",5,NA,1,"second",1,5,1,NA,NA
"151",5,NA,1,"native",1,6,0,NA,NA
"152",5,NA,1,"native",1,5,0,NA,NA
"153",5,NA,1,"native",1,3,0,NA,NA
"154",5,NA,1,"native",1,2,1,NA,NA
"155",5,NA,1,"native",1,5,1,NA,NA
"156",5,NA,1,"second",1,1,0,NA,NA
"157",5,NA,1,"second",1,1,0,NA,NA
"158",5,NA,1,"second",1,3,1,NA,NA
"159",5,NA,1,"second",1,6,1,NA,NA
"160",5,NA,1,"second",1,5,1,NA,NA
"161",6,"a1_1",1,"second",1,2,1,NA,NA
"162",6,"a3_3",1,"second",1,2,1,NA,NA
"163",6,"b1_1",1,"second",1,2,0,NA,NA
"164",6,"b1_2",1,"second",1,3,0,NA,NA
"165",6,"b3_3",1,"second",1,3,0,NA,NA
"166",6,"a2_1",1,"native",1,3,1,NA,NA
"167",6,"a2_4",1,"native",1,2,1,NA,NA
"168",6,"a4_4",1,"native",1,2,1,NA,NA
"169",6,"b2_1",1,"native",1,3,0,NA,NA
"170",6,"b4_4",1,"native",1,3,0,NA,NA
"171",6,"a1_2",1,"second",1,1,1,NA,NA
"172",6,"a3_4",1,"second",1,1,1,NA,NA
"173",6,"a3_5",1,"second",1,2,1,NA,NA
"174",6,"b1_3",1,"second",1,3,0,NA,NA
"175",6,"b3_4",1,"second",1,1,0,NA,NA
"176",6,"a2_2",1,"native",1,2,1,NA,NA
"177",6,"a4_5",1,"native",1,3,1,NA,NA
"178",6,"b2_2",1,"native",1,3,0,NA,NA
"179",6,"b2_3",1,"native",1,1,0,NA,NA
"180",6,"b4_1",1,"native",1,4,0,NA,NA
"181",6,"a1_4",1,"second",1,4,1,NA,NA
"182",6,"a3_1",1,"second",1,4,1,NA,NA
"183",6,"b1_4",1,"second",1,3,0,NA,NA
"184",6,"b3_1",1,"second",1,3,0,NA,NA
"185",6,"b3_2",1,"second",1,4,0,NA,NA
"186",6,"a2_3",1,"native",1,2,1,NA,NA
"187",6,"a4_1",1,"native",1,4,1,NA,NA
"188",6,"a4_2",1,"native",1,1,1,NA,NA
"189",6,"b2_4",1,"native",1,3,0,NA,NA
"190",6,"b4_2",1,"native",1,4,0,NA,NA
"191",6,"a1_5",1,"second",1,3,1,NA,NA
"192",6,"a1_3",1,"second",1,3,1,NA,NA
"193",6,"a3_2",1,"second",1,3,1,NA,NA
"194",6,"b1_5",1,"second",1,2,0,NA,NA
"195",6,"b3_5",1,"second",1,1,0,NA,NA
"196",6,"a2_5",1,"native",1,1,1,NA,NA
"197",6,"a4_3",1,"native",1,2,1,NA,NA
"198",6,"b2_5",1,"native",1,2,0,NA,NA
"199",6,"b4_3",1,"native",1,3,0,NA,NA
"200",6,"b4_5",1,"native",1,3,0,NA,NA
"201",7,"a1_1",1,"second",1,4,1,NA,NA
"202",7,"a3_3",1,"second",1,3,1,NA,NA
"203",7,"b1_1",1,"second",1,3,0,NA,NA
"204",7,"b1_2",1,"second",1,4,0,NA,NA
"205",7,"b3_3",1,"second",1,3,0,NA,NA
"206",7,"a2_1",1,"native",1,6,1,NA,NA
"207",7,"a2_4",1,"native",1,3,1,NA,NA
"208",7,"a4_4",1,"native",1,4,1,NA,NA
"209",7,"b2_1",1,"native",1,3,0,NA,NA
"210",7,"b4_4",1,"native",1,3,0,NA,NA
"211",7,"a1_2",1,"second",1,5,1,NA,NA
"212",7,"a3_4",1,"second",1,3,1,NA,NA
"213",7,"a3_5",1,"second",1,6,1,NA,NA
"214",7,"b1_3",1,"second",1,5,0,NA,NA
"215",7,"b3_4",1,"second",1,4,0,NA,NA
"216",7,"a2_2",1,"native",1,2,1,NA,NA
"217",7,"a4_5",1,"native",1,2,1,NA,NA
"218",7,"b2_2",1,"native",1,3,0,NA,NA
"219",7,"b2_3",1,"native",1,4,0,NA,NA
"220",7,"b4_1",1,"native",1,6,0,NA,NA
"221",7,"a1_4",1,"second",1,6,1,NA,NA
"222",7,"a3_1",1,"second",1,3,1,NA,NA
"223",7,"b1_4",1,"second",1,2,0,NA,NA
"224",7,"b3_1",1,"second",1,2,0,NA,NA
"225",7,"b3_2",1,"second",1,2,0,NA,NA
"226",7,"a2_3",1,"native",1,3,1,NA,NA
"227",7,"a4_1",1,"native",1,6,1,NA,NA
"228",7,"a4_2",1,"native",1,2,1,NA,NA
"229",7,"b2_4",1,"native",1,3,0,NA,NA
"230",7,"b4_2",1,"native",1,3,0,NA,NA
"231",7,"a1_5",1,"second",1,3,1,NA,NA
"232",7,"a1_3",1,"second",1,3,1,NA,NA
"233",7,"a3_2",1,"second",1,4,1,NA,NA
"234",7,"b1_5",1,"second",1,3,0,NA,NA
"235",7,"b3_5",1,"second",1,3,0,NA,NA
"236",7,"a2_5",1,"native",1,6,1,NA,NA
"237",7,"a4_3",1,"native",1,4,1,NA,NA
"238",7,"b2_5",1,"native",1,4,0,NA,NA
"239",7,"b4_3",1,"native",1,4,0,NA,NA
"240",7,"b4_5",1,"native",1,5,0,NA,NA
"241",8,"a1_1",1,"second",1,3,1,NA,NA
"242",8,"a3_3",1,"second",1,3,1,NA,NA
"243",8,"b1_1",1,"second",1,1,0,NA,NA
"244",8,"b1_2",1,"second",1,3,0,NA,NA
"245",8,"b3_3",1,"second",1,3,0,NA,NA
"246",8,"a2_1",1,"native",1,4,1,NA,NA
"247",8,"a2_4",1,"native",1,4,1,NA,NA
"248",8,"a4_4",1,"native",1,3,1,NA,NA
"249",8,"b2_1",1,"native",1,3,0,NA,NA
"250",8,"b4_4",1,"native",1,3,0,NA,NA
"251",8,"a1_2",1,"second",1,3,1,NA,NA
"252",8,"a3_4",1,"second",1,4,1,NA,NA
"253",8,"a3_5",1,"second",1,4,1,NA,NA
"254",8,"b1_3",1,"second",1,3,0,NA,NA
"255",8,"b3_4",1,"second",1,4,0,NA,NA
"256",8,"a2_2",1,"native",1,1,1,NA,NA
"257",8,"a4_5",1,"native",1,4,1,NA,NA
"258",8,"b2_2",1,"native",1,3,0,NA,NA
"259",8,"b2_3",1,"native",1,4,0,NA,NA
"260",8,"b4_1",1,"native",1,4,0,NA,NA
"261",8,"a1_4",1,"second",1,1,1,NA,NA
"262",8,"a3_1",1,"second",1,4,1,NA,NA
"263",8,"b1_4",1,"second",1,3,0,NA,NA
"264",8,"b3_1",1,"second",1,3,0,NA,NA
"265",8,"b3_2",1,"second",1,4,0,NA,NA
"266",8,"a2_3",1,"native",1,5,1,NA,NA
"267",8,"a4_1",1,"native",1,4,1,NA,NA
"268",8,"a4_2",1,"native",1,4,1,NA,NA
"269",8,"b2_4",1,"native",1,3,0,NA,NA
"270",8,"b4_2",1,"native",1,3,0,NA,NA
"271",8,"a1_5",1,"second",1,4,1,NA,NA
"272",8,"a1_3",1,"second",1,4,1,NA,NA
"273",8,"a3_2",1,"second",1,4,1,NA,NA
"274",8,"b1_5",1,"second",1,3,0,NA,NA
"275",8,"b3_5",1,"second",1,1,0,NA,NA
"276",8,"a2_5",1,"native",1,4,1,NA,NA
"277",8,"a4_3",1,"native",1,3,1,NA,NA
"278",8,"b2_5",1,"native",1,5,0,NA,NA
"279",8,"b4_3",1,"native",1,3,0,NA,NA
"280",8,"b4_5",1,"native",1,4,0,NA,NA
"281",9,"a1_1",1,"second",1,6,0,NA,NA
"282",9,"a3_3",1,"second",1,6,0,NA,NA
"283",9,"b1_1",1,"second",1,6,1,NA,NA
"284",9,"b1_2",1,"second",1,6,1,NA,NA
"285",9,"b3_3",1,"second",1,6,1,NA,NA
"286",9,"a2_1",1,"native",1,6,0,NA,NA
"287",9,"a2_4",1,"native",1,6,0,NA,NA
"288",9,"a4_4",1,"native",1,6,0,NA,NA
"289",9,"b2_1",1,"native",1,6,1,NA,NA
"290",9,"b4_4",1,"native",1,6,1,NA,NA
"291",9,"a1_2",1,"second",1,5,0,NA,NA
"292",9,"a3_4",1,"second",1,6,0,NA,NA
"293",9,"a3_5",1,"second",1,6,0,NA,NA
"294",9,"b1_3",1,"second",1,6,1,NA,NA
"295",9,"b3_4",1,"second",1,6,1,NA,NA
"296",9,"a2_2",1,"native",1,3,0,NA,NA
"297",9,"a4_5",1,"native",1,6,0,NA,NA
"298",9,"b2_2",1,"native",1,6,1,NA,NA
"299",9,"b2_3",1,"native",1,6,1,NA,NA
"300",9,"b4_1",1,"native",1,6,1,NA,NA
"301",9,"a1_4",1,"second",1,6,0,NA,NA
"302",9,"a3_1",1,"second",1,6,0,NA,NA
"303",9,"b1_4",1,"second",1,6,1,NA,NA
"304",9,"b3_1",1,"second",1,6,1,NA,NA
"305",9,"b3_2",1,"second",1,6,1,NA,NA
"306",9,"a2_3",1,"native",1,6,0,NA,NA
"307",9,"a4_1",1,"native",1,6,0,NA,NA
"308",9,"a4_2",1,"native",1,6,0,NA,NA
"309",9,"b2_4",1,"native",1,6,1,NA,NA
"310",9,"b4_2",1,"native",1,6,1,NA,NA
"311",9,"a1_5",1,"second",1,5,0,NA,NA
"312",9,"a1_3",1,"second",1,5,0,NA,NA
"313",9,"a3_2",1,"second",1,3,0,NA,NA
"314",9,"b1_5",1,"second",1,6,1,NA,NA
"315",9,"b3_5",1,"second",1,6,1,NA,NA
"316",9,"a2_5",1,"native",1,6,0,NA,NA
"317",9,"a4_3",1,"native",1,6,0,NA,NA
"318",9,"b2_5",1,"native",1,6,1,NA,NA
"319",9,"b4_3",1,"native",1,6,1,NA,NA
"320",9,"b4_5",1,"native",1,6,1,NA,NA
"321",10,NA,1,"native",1,4,0,NA,NA
"322",10,NA,1,"native",1,3,0,NA,NA
"323",10,NA,1,"native",1,1,1,NA,NA
"324",10,NA,1,"native",1,4,1,NA,NA
"325",10,NA,1,"native",1,4,1,NA,NA
"326",10,NA,1,"second",1,3,0,NA,NA
"327",10,NA,1,"second",1,4,0,NA,NA
"328",10,NA,1,"second",1,4,0,NA,NA
"329",10,NA,1,"second",1,3,1,NA,NA
"330",10,NA,1,"second",1,3,1,NA,NA
"331",10,NA,1,"native",1,1,0,NA,NA
"332",10,NA,1,"native",1,3,0,NA,NA
"333",10,NA,1,"native",1,3,0,NA,NA
"334",10,NA,1,"native",1,5,1,NA,NA
"335",10,NA,1,"native",1,4,1,NA,NA
"336",10,NA,1,"second",1,4,0,NA,NA
"337",10,NA,1,"second",1,4,0,NA,NA
"338",10,NA,1,"second",1,5,1,NA,NA
"339",10,NA,1,"second",1,5,1,NA,NA
"340",10,NA,1,"second",1,5,1,NA,NA
"341",10,NA,1,"native",1,4,0,NA,NA
"342",10,NA,1,"native",1,4,0,NA,NA
"343",10,NA,1,"native",1,4,1,NA,NA
"344",10,NA,1,"native",1,5,1,NA,NA
"345",10,NA,1,"native",1,5,1,NA,NA
"346",10,NA,1,"second",1,5,0,NA,NA
"347",10,NA,1,"second",1,1,0,NA,NA
"348",10,NA,1,"second",1,4,0,NA,NA
"349",10,NA,1,"second",1,4,1,NA,NA
"350",10,NA,1,"second",1,4,1,NA,NA
"351",10,NA,1,"native",1,4,0,NA,NA
"352",10,NA,1,"native",1,3,0,NA,NA
"353",10,NA,1,"native",1,4,0,NA,NA
"354",10,NA,1,"native",1,4,1,NA,NA
"355",10,NA,1,"native",1,3,1,NA,NA
"356",10,NA,1,"second",1,1,0,NA,NA
"357",10,NA,1,"second",1,1,0,NA,NA
"358",10,NA,1,"second",1,4,1,NA,NA
"359",10,NA,1,"second",1,6,1,NA,NA
"360",10,NA,1,"second",1,4,1,NA,NA
"361",11,"a1_1",1,"second",1,6,0,NA,NA
"362",11,"a3_3",1,"second",1,3,0,NA,NA
"363",11,"b1_1",1,"second",1,6,1,NA,NA
"364",11,"b1_2",1,"second",1,5,1,NA,NA
"365",11,"b3_3",1,"second",1,3,1,NA,NA
"366",11,"a2_1",1,"native",1,5,0,NA,NA
"367",11,"a2_4",1,"native",1,4,0,NA,NA
"368",11,"a4_4",1,"native",1,2,0,NA,NA
"369",11,"b2_1",1,"native",1,3,1,NA,NA
"370",11,"b4_4",1,"native",1,2,1,NA,NA
"371",11,"a1_2",1,"second",1,6,0,NA,NA
"372",11,"a3_4",1,"second",1,2,0,NA,NA
"373",11,"a3_5",1,"second",1,4,0,NA,NA
"374",11,"b1_3",1,"second",1,5,1,NA,NA
"375",11,"b3_4",1,"second",1,1,1,NA,NA
"376",11,"a2_2",1,"native",1,1,0,NA,NA
"377",11,"a4_5",1,"native",1,4,0,NA,NA
"378",11,"b2_2",1,"native",1,5,1,NA,NA
"379",11,"b2_3",1,"native",1,5,1,NA,NA
"380",11,"b4_1",1,"native",1,6,1,NA,NA
"381",11,"a1_4",1,"second",1,5,0,NA,NA
"382",11,"a3_1",1,"second",1,5,0,NA,NA
"383",11,"b1_4",1,"second",1,1,1,NA,NA
"384",11,"b3_1",1,"second",1,4,1,NA,NA
"385",11,"b3_2",1,"second",1,5,1,NA,NA
"386",11,"a2_3",1,"native",1,4,0,NA,NA
"387",11,"a4_1",1,"native",1,3,0,NA,NA
"388",11,"a4_2",1,"native",1,4,0,NA,NA
"389",11,"b2_4",1,"native",1,2,1,NA,NA
"390",11,"b4_2",1,"native",1,5,1,NA,NA
"391",11,"a1_5",1,"second",1,6,0,NA,NA
"392",11,"a1_3",1,"second",1,2,0,NA,NA
"393",11,"a3_2",1,"second",1,4,0,NA,NA
"394",11,"b1_5",1,"second",1,5,1,NA,NA
"395",11,"b3_5",1,"second",1,3,1,NA,NA
"396",11,"a2_5",1,"native",1,1,0,NA,NA
"397",11,"a4_3",1,"native",1,3,0,NA,NA
"398",11,"b2_5",1,"native",1,4,1,NA,NA
"399",11,"b4_3",1,"native",1,3,1,NA,NA
"400",11,"b4_5",1,"native",1,3,1,NA,NA
"401",12,NA,1,"native",1,6,1,NA,NA
"402",12,NA,1,"native",1,4,1,NA,NA
"403",12,NA,1,"native",1,3,0,NA,NA
"404",12,NA,1,"native",1,5,0,NA,NA
"405",12,NA,1,"native",1,5,0,NA,NA
"406",12,NA,1,"second",1,5,1,NA,NA
"407",12,NA,1,"second",1,3,1,NA,NA
"408",12,NA,1,"second",1,5,1,NA,NA
"409",12,NA,1,"second",1,3,0,NA,NA
"410",12,NA,1,"second",1,4,0,NA,NA
"411",12,NA,1,"native",1,1,1,NA,NA
"412",12,NA,1,"native",1,1,1,NA,NA
"413",12,NA,1,"native",1,6,1,NA,NA
"414",12,NA,1,"native",1,6,0,NA,NA
"415",12,NA,1,"native",1,1,0,NA,NA
"416",12,NA,1,"second",1,4,1,NA,NA
"417",12,NA,1,"second",1,4,1,NA,NA
"418",12,NA,1,"second",1,2,0,NA,NA
"419",12,NA,1,"second",1,5,0,NA,NA
"420",12,NA,1,"second",1,2,0,NA,NA
"421",12,NA,1,"native",1,5,1,NA,NA
"422",12,NA,1,"native",1,6,1,NA,NA
"423",12,NA,1,"native",1,4,0,NA,NA
"424",12,NA,1,"native",1,2,0,NA,NA
"425",12,NA,1,"native",1,2,0,NA,NA
"426",12,NA,1,"second",1,3,1,NA,NA
"427",12,NA,1,"second",1,4,1,NA,NA
"428",12,NA,1,"second",1,3,1,NA,NA
"429",12,NA,1,"second",1,1,0,NA,NA
"430",12,NA,1,"second",1,3,0,NA,NA
"431",12,NA,1,"native",1,6,1,NA,NA
"432",12,NA,1,"native",1,2,1,NA,NA
"433",12,NA,1,"native",1,5,1,NA,NA
"434",12,NA,1,"native",1,4,0,NA,NA
"435",12,NA,1,"native",1,3,0,NA,NA
"436",12,NA,1,"second",1,1,1,NA,NA
"437",12,NA,1,"second",1,2,1,NA,NA
"438",12,NA,1,"second",1,4,0,NA,NA
"439",12,NA,1,"second",1,3,0,NA,NA
"440",12,NA,1,"second",1,4,0,NA,NA
"441",13,NA,1,"native",1,6,1,NA,NA
"442",13,NA,1,"native",1,4,1,NA,NA
"443",13,NA,1,"native",1,1,0,NA,NA
"444",13,NA,1,"native",1,6,0,NA,NA
"445",13,NA,1,"native",1,1,0,NA,NA
"446",13,NA,1,"second",1,4,1,NA,NA
"447",13,NA,1,"second",1,5,1,NA,NA
"448",13,NA,1,"second",1,2,1,NA,NA
"449",13,NA,1,"second",1,1,0,NA,NA
"450",13,NA,1,"second",1,5,0,NA,NA
"451",13,NA,1,"native",1,6,1,NA,NA
"452",13,NA,1,"native",1,1,1,NA,NA
"453",13,NA,1,"native",1,6,1,NA,NA
"454",13,NA,1,"native",1,1,0,NA,NA
"455",13,NA,1,"native",1,1,0,NA,NA
"456",13,NA,1,"second",1,6,1,NA,NA
"457",13,NA,1,"second",1,5,1,NA,NA
"458",13,NA,1,"second",1,6,0,NA,NA
"459",13,NA,1,"second",1,4,0,NA,NA
"460",13,NA,1,"second",1,5,0,NA,NA
"461",13,NA,1,"native",1,6,1,NA,NA
"462",13,NA,1,"native",1,6,1,NA,NA
"463",13,NA,1,"native",1,6,0,NA,NA
"464",13,NA,1,"native",1,6,0,NA,NA
"465",13,NA,1,"native",1,6,0,NA,NA
"466",13,NA,1,"second",1,2,1,NA,NA
"467",13,NA,1,"second",1,1,1,NA,NA
"468",13,NA,1,"second",1,1,1,NA,NA
"469",13,NA,1,"second",1,4,0,NA,NA
"470",13,NA,1,"second",1,1,0,NA,NA
"471",13,NA,1,"native",1,6,1,NA,NA
"472",13,NA,1,"native",1,6,1,NA,NA
"473",13,NA,1,"native",1,1,1,NA,NA
"474",13,NA,1,"native",1,6,0,NA,NA
"475",13,NA,1,"native",1,5,0,NA,NA
"476",13,NA,1,"second",1,2,1,NA,NA
"477",13,NA,1,"second",1,3,1,NA,NA
"478",13,NA,1,"second",1,5,0,NA,NA
"479",13,NA,1,"second",1,4,0,NA,NA
"480",13,NA,1,"second",1,4,0,NA,NA
"481",14,NA,1,"native",1,6,1,NA,NA
"482",14,NA,1,"native",1,1,1,NA,NA
"483",14,NA,1,"native",1,1,0,NA,NA
"484",14,NA,1,"native",1,5,0,NA,NA
"485",14,NA,1,"native",1,5,0,NA,NA
"486",14,NA,1,"second",1,5,1,NA,NA
"487",14,NA,1,"second",1,6,1,NA,NA
"488",14,NA,1,"second",1,6,1,NA,NA
"489",14,NA,1,"second",1,3,0,NA,NA
"490",14,NA,1,"second",1,2,0,NA,NA
"491",14,NA,1,"native",1,6,1,NA,NA
"492",14,NA,1,"native",1,4,1,NA,NA
"493",14,NA,1,"native",1,6,1,NA,NA
"494",14,NA,1,"native",1,6,0,NA,NA
"495",14,NA,1,"native",1,4,0,NA,NA
"496",14,NA,1,"second",1,1,1,NA,NA
"497",14,NA,1,"second",1,4,1,NA,NA
"498",14,NA,1,"second",1,4,0,NA,NA
"499",14,NA,1,"second",1,5,0,NA,NA
"500",14,NA,1,"second",1,6,0,NA,NA
"501",14,NA,1,"native",1,5,1,NA,NA
"502",14,NA,1,"native",1,2,1,NA,NA
"503",14,NA,1,"native",1,2,0,NA,NA
"504",14,NA,1,"native",1,1,0,NA,NA
"505",14,NA,1,"native",1,1,0,NA,NA
"506",14,NA,1,"second",1,4,1,NA,NA
"507",14,NA,1,"second",1,2,1,NA,NA
"508",14,NA,1,"second",1,2,1,NA,NA
"509",14,NA,1,"second",1,1,0,NA,NA
"510",14,NA,1,"second",1,6,0,NA,NA
"511",14,NA,1,"native",1,6,1,NA,NA
"512",14,NA,1,"native",1,3,1,NA,NA
"513",14,NA,1,"native",1,6,1,NA,NA
"514",14,NA,1,"native",1,4,0,NA,NA
"515",14,NA,1,"native",1,4,0,NA,NA
"516",14,NA,1,"second",1,1,1,NA,NA
"517",14,NA,1,"second",1,1,1,NA,NA
"518",14,NA,1,"second",1,4,0,NA,NA
"519",14,NA,1,"second",1,6,0,NA,NA
"520",14,NA,1,"second",1,5,0,NA,NA
"521",15,NA,1,"native",1,6,1,NA,NA
"522",15,NA,1,"native",1,5,1,NA,NA
"523",15,NA,1,"native",1,1,0,NA,NA
"524",15,NA,1,"native",1,5,0,NA,NA
"525",15,NA,1,"native",1,5,0,NA,NA
"526",15,NA,1,"second",1,6,1,NA,NA
"527",15,NA,1,"second",1,6,1,NA,NA
"528",15,NA,1,"second",1,6,1,NA,NA
"529",15,NA,1,"second",1,6,0,NA,NA
"530",15,NA,1,"second",1,4,0,NA,NA
"531",15,NA,1,"native",1,5,1,NA,NA
"532",15,NA,1,"native",1,6,1,NA,NA
"533",15,NA,1,"native",1,6,1,NA,NA
"534",15,NA,1,"native",1,5,0,NA,NA
"535",15,NA,1,"native",1,5,0,NA,NA
"536",15,NA,1,"second",1,6,1,NA,NA
"537",15,NA,1,"second",1,6,1,NA,NA
"538",15,NA,1,"second",1,4,0,NA,NA
"539",15,NA,1,"second",1,5,0,NA,NA
"540",15,NA,1,"second",1,6,0,NA,NA
"541",15,NA,1,"native",1,6,1,NA,NA
"542",15,NA,1,"native",1,6,1,NA,NA
"543",15,NA,1,"native",1,5,0,NA,NA
"544",15,NA,1,"native",1,5,0,NA,NA
"545",15,NA,1,"native",1,5,0,NA,NA
"546",15,NA,1,"second",1,6,1,NA,NA
"547",15,NA,1,"second",1,6,1,NA,NA
"548",15,NA,1,"second",1,6,1,NA,NA
"549",15,NA,1,"second",1,4,0,NA,NA
"550",15,NA,1,"second",1,4,0,NA,NA
"551",15,NA,1,"native",1,6,1,NA,NA
"552",15,NA,1,"native",1,6,1,NA,NA
"553",15,NA,1,"native",1,6,1,NA,NA
"554",15,NA,1,"native",1,4,0,NA,NA
"555",15,NA,1,"native",1,4,0,NA,NA
"556",15,NA,1,"second",1,6,1,NA,NA
"557",15,NA,1,"second",1,6,1,NA,NA
"558",15,NA,1,"second",1,5,0,NA,NA
"559",15,NA,1,"second",1,4,0,NA,NA
"560",15,NA,1,"second",1,5,0,NA,NA
"561",16,NA,1,"native",1,3,1,NA,NA
"562",16,NA,1,"native",1,4,1,NA,NA
"563",16,NA,1,"native",1,3,0,NA,NA
"564",16,NA,1,"native",1,4,0,NA,NA
"565",16,NA,1,"native",1,3,0,NA,NA
"566",16,NA,1,"second",1,6,1,NA,NA
"567",16,NA,1,"second",1,5,1,NA,NA
"568",16,NA,1,"second",1,2,1,NA,NA
"569",16,NA,1,"second",1,3,0,NA,NA
"570",16,NA,1,"second",1,3,0,NA,NA
"571",16,NA,1,"native",1,5,1,NA,NA
"572",16,NA,1,"native",1,4,1,NA,NA
"573",16,NA,1,"native",1,4,1,NA,NA
"574",16,NA,1,"native",1,4,0,NA,NA
"575",16,NA,1,"native",1,1,0,NA,NA
"576",16,NA,1,"second",1,2,1,NA,NA
"577",16,NA,1,"second",1,4,1,NA,NA
"578",16,NA,1,"second",1,5,0,NA,NA
"579",16,NA,1,"second",1,3,0,NA,NA
"580",16,NA,1,"second",1,3,0,NA,NA
"581",16,NA,1,"native",1,5,1,NA,NA
"582",16,NA,1,"native",1,6,1,NA,NA
"583",16,NA,1,"native",1,1,0,NA,NA
"584",16,NA,1,"native",1,4,0,NA,NA
"585",16,NA,1,"native",1,4,0,NA,NA
"586",16,NA,1,"second",1,5,1,NA,NA
"587",16,NA,1,"second",1,3,1,NA,NA
"588",16,NA,1,"second",1,5,1,NA,NA
"589",16,NA,1,"second",1,1,0,NA,NA
"590",16,NA,1,"second",1,3,0,NA,NA
"591",16,NA,1,"native",1,6,1,NA,NA
"592",16,NA,1,"native",1,4,1,NA,NA
"593",16,NA,1,"native",1,5,1,NA,NA
"594",16,NA,1,"native",1,5,0,NA,NA
"595",16,NA,1,"native",1,3,0,NA,NA
"596",16,NA,1,"second",1,1,1,NA,NA
"597",16,NA,1,"second",1,6,1,NA,NA
"598",16,NA,1,"second",1,3,0,NA,NA
"599",16,NA,1,"second",1,4,0,NA,NA
"600",16,NA,1,"second",1,4,0,NA,NA
"601",17,NA,1,"native",1,4,1,NA,NA
"602",17,NA,1,"native",1,5,1,NA,NA
"603",17,NA,1,"native",1,1,0,NA,NA
"604",17,NA,1,"native",1,4,0,NA,NA
"605",17,NA,1,"native",1,4,0,NA,NA
"606",17,NA,1,"second",1,3,1,NA,NA
"607",17,NA,1,"second",1,6,1,NA,NA
"608",17,NA,1,"second",1,2,1,NA,NA
"609",17,NA,1,"second",1,2,0,NA,NA
"610",17,NA,1,"second",1,3,0,NA,NA
"611",17,NA,1,"native",1,1,1,NA,NA
"612",17,NA,1,"native",1,6,1,NA,NA
"613",17,NA,1,"native",1,3,1,NA,NA
"614",17,NA,1,"native",1,1,0,NA,NA
"615",17,NA,1,"native",1,2,0,NA,NA
"616",17,NA,1,"second",1,1,1,NA,NA
"617",17,NA,1,"second",1,3,1,NA,NA
"618",17,NA,1,"second",1,3,0,NA,NA
"619",17,NA,1,"second",1,5,0,NA,NA
"620",17,NA,1,"second",1,6,0,NA,NA
"621",17,NA,1,"native",1,4,1,NA,NA
"622",17,NA,1,"native",1,4,1,NA,NA
"623",17,NA,1,"native",1,1,0,NA,NA
"624",17,NA,1,"native",1,2,0,NA,NA
"625",17,NA,1,"native",1,1,0,NA,NA
"626",17,NA,1,"second",1,6,1,NA,NA
"627",17,NA,1,"second",1,4,1,NA,NA
"628",17,NA,1,"second",1,6,1,NA,NA
"629",17,NA,1,"second",1,1,0,NA,NA
"630",17,NA,1,"second",1,5,0,NA,NA
"631",17,NA,1,"native",1,3,1,NA,NA
"632",17,NA,1,"native",1,5,1,NA,NA
"633",17,NA,1,"native",1,4,1,NA,NA
"634",17,NA,1,"native",1,4,0,NA,NA
"635",17,NA,1,"native",1,4,0,NA,NA
"636",17,NA,1,"second",1,1,1,NA,NA
"637",17,NA,1,"second",1,4,1,NA,NA
"638",17,NA,1,"second",1,5,0,NA,NA
"639",17,NA,1,"second",1,3,0,NA,NA
"640",17,NA,1,"second",1,3,0,NA,NA
"641",18,NA,1,"native",1,5,1,NA,NA
"642",18,NA,1,"native",1,5,1,NA,NA
"643",18,NA,1,"native",1,1,0,NA,NA
"644",18,NA,1,"native",1,4,0,NA,NA
"645",18,NA,1,"native",1,3,0,NA,NA
"646",18,NA,1,"second",1,4,1,NA,NA
"647",18,NA,1,"second",1,4,1,NA,NA
"648",18,NA,1,"second",1,5,1,NA,NA
"649",18,NA,1,"second",1,3,0,NA,NA
"650",18,NA,1,"second",1,5,0,NA,NA
"651",18,NA,1,"native",1,6,1,NA,NA
"652",18,NA,1,"native",1,4,1,NA,NA
"653",18,NA,1,"native",1,5,1,NA,NA
"654",18,NA,1,"native",1,4,0,NA,NA
"655",18,NA,1,"native",1,1,0,NA,NA
"656",18,NA,1,"second",1,4,1,NA,NA
"657",18,NA,1,"second",1,5,1,NA,NA
"658",18,NA,1,"second",1,5,0,NA,NA
"659",18,NA,1,"second",1,4,0,NA,NA
"660",18,NA,1,"second",1,5,0,NA,NA
"661",18,NA,1,"native",1,4,1,NA,NA
"662",18,NA,1,"native",1,5,1,NA,NA
"663",18,NA,1,"native",1,4,0,NA,NA
"664",18,NA,1,"native",1,3,0,NA,NA
"665",18,NA,1,"native",1,4,0,NA,NA
"666",18,NA,1,"second",1,5,1,NA,NA
"667",18,NA,1,"second",1,4,1,NA,NA
"668",18,NA,1,"second",1,3,1,NA,NA
"669",18,NA,1,"second",1,4,0,NA,NA
"670",18,NA,1,"second",1,5,0,NA,NA
"671",18,NA,1,"native",1,5,1,NA,NA
"672",18,NA,1,"native",1,4,1,NA,NA
"673",18,NA,1,"native",1,4,1,NA,NA
"674",18,NA,1,"native",1,3,0,NA,NA
"675",18,NA,1,"native",1,4,0,NA,NA
"676",18,NA,1,"second",1,4,1,NA,NA
"677",18,NA,1,"second",1,3,1,NA,NA
"678",18,NA,1,"second",1,5,0,NA,NA
"679",18,NA,1,"second",1,4,0,NA,NA
"680",18,NA,1,"second",1,4,0,NA,NA
"681",19,"a1_1",1,"second",1,1,0,NA,NA
"682",19,"a3_3",1,"second",1,5,0,NA,NA
"683",19,"b1_1",1,"second",1,1,1,NA,NA
"684",19,"b1_2",1,"second",1,4,1,NA,NA
"685",19,"b3_3",1,"second",1,6,1,NA,NA
"686",19,"a2_1",1,"native",1,5,0,NA,NA
"687",19,"a2_4",1,"native",1,3,0,NA,NA
"688",19,"a4_4",1,"native",1,4,0,NA,NA
"689",19,"b2_1",1,"native",1,6,1,NA,NA
"690",19,"b4_4",1,"native",1,4,1,NA,NA
"691",19,"a1_2",1,"second",1,3,0,NA,NA
"692",19,"a3_4",1,"second",1,5,0,NA,NA
"693",19,"a3_5",1,"second",1,3,0,NA,NA
"694",19,"b1_3",1,"second",1,4,1,NA,NA
"695",19,"b3_4",1,"second",1,3,1,NA,NA
"696",19,"a2_2",1,"native",1,5,0,NA,NA
"697",19,"a4_5",1,"native",1,4,0,NA,NA
"698",19,"b2_2",1,"native",1,6,1,NA,NA
"699",19,"b2_3",1,"native",1,2,1,NA,NA
"700",19,"b4_1",1,"native",1,5,1,NA,NA
"701",19,"a1_4",1,"second",1,5,0,NA,NA
"702",19,"a3_1",1,"second",1,4,0,NA,NA
"703",19,"b1_4",1,"second",1,6,1,NA,NA
"704",19,"b3_1",1,"second",1,6,1,NA,NA
"705",19,"b3_2",1,"second",1,6,1,NA,NA
"706",19,"a2_3",1,"native",1,6,0,NA,NA
"707",19,"a4_1",1,"native",1,1,0,NA,NA
"708",19,"a4_2",1,"native",1,3,0,NA,NA
"709",19,"b2_4",1,"native",1,6,1,NA,NA
"710",19,"b4_2",1,"native",1,6,1,NA,NA
"711",19,"a1_5",1,"second",1,6,0,NA,NA
"712",19,"a1_3",1,"second",1,4,0,NA,NA
"713",19,"a3_2",1,"second",1,4,0,NA,NA
"714",19,"b1_5",1,"second",1,6,1,NA,NA
"715",19,"b3_5",1,"second",1,6,1,NA,NA
"716",19,"a2_5",1,"native",1,1,0,NA,NA
"717",19,"a4_3",1,"native",1,2,0,NA,NA
"718",19,"b2_5",1,"native",1,6,1,NA,NA
"719",19,"b4_3",1,"native",1,6,1,NA,NA
"720",19,"b4_5",1,"native",1,6,1,NA,NA
"721",20,NA,1,"native",1,6,1,NA,NA
"722",20,NA,1,"native",1,2,1,NA,NA
"723",20,NA,1,"native",1,1,0,NA,NA
"724",20,NA,1,"native",1,3,0,NA,NA
"725",20,NA,1,"native",1,2,0,NA,NA
"726",20,NA,1,"second",1,6,1,NA,NA
"727",20,NA,1,"second",1,6,1,NA,NA
"728",20,NA,1,"second",1,2,1,NA,NA
"729",20,NA,1,"second",1,3,0,NA,NA
"730",20,NA,1,"second",1,6,0,NA,NA
"731",20,NA,1,"native",1,1,1,NA,NA
"732",20,NA,1,"native",1,6,1,NA,NA
"733",20,NA,1,"native",1,3,1,NA,NA
"734",20,NA,1,"native",1,2,0,NA,NA
"735",20,NA,1,"native",1,1,0,NA,NA
"736",20,NA,1,"second",1,1,1,NA,NA
"737",20,NA,1,"second",1,6,1,NA,NA
"738",20,NA,1,"second",1,4,0,NA,NA
"739",20,NA,1,"second",1,4,0,NA,NA
"740",20,NA,1,"second",1,4,0,NA,NA
"741",20,NA,1,"native",1,4,1,NA,NA
"742",20,NA,1,"native",1,6,1,NA,NA
"743",20,NA,1,"native",1,3,0,NA,NA
"744",20,NA,1,"native",1,2,0,NA,NA
"745",20,NA,1,"native",1,4,0,NA,NA
"746",20,NA,1,"second",1,6,1,NA,NA
"747",20,NA,1,"second",1,6,1,NA,NA
"748",20,NA,1,"second",1,6,1,NA,NA
"749",20,NA,1,"second",1,2,0,NA,NA
"750",20,NA,1,"second",1,5,0,NA,NA
"751",20,NA,1,"native",1,6,1,NA,NA
"752",20,NA,1,"native",1,6,1,NA,NA
"753",20,NA,1,"native",1,6,1,NA,NA
"754",20,NA,1,"native",1,2,0,NA,NA
"755",20,NA,1,"native",1,3,0,NA,NA
"756",20,NA,1,"second",1,2,1,NA,NA
"757",20,NA,1,"second",1,5,1,NA,NA
"758",20,NA,1,"second",1,3,0,NA,NA
"759",20,NA,1,"second",1,4,0,NA,NA
"760",20,NA,1,"second",1,2,0,NA,NA
"761",21,NA,1,"native",1,6,0,NA,NA
"762",21,NA,1,"native",1,5,0,NA,NA
"763",21,NA,1,"native",1,2,1,NA,NA
"764",21,NA,1,"native",1,4,1,NA,NA
"765",21,NA,1,"native",1,3,1,NA,NA
"766",21,NA,1,"second",1,4,0,NA,NA
"767",21,NA,1,"second",1,4,0,NA,NA
"768",21,NA,1,"second",1,1,0,NA,NA
"769",21,NA,1,"second",1,3,1,NA,NA
"770",21,NA,1,"second",1,4,1,NA,NA
"771",21,NA,1,"native",1,1,0,NA,NA
"772",21,NA,1,"native",1,2,0,NA,NA
"773",21,NA,1,"native",1,5,0,NA,NA
"774",21,NA,1,"native",1,6,1,NA,NA
"775",21,NA,1,"native",1,4,1,NA,NA
"776",21,NA,1,"second",1,3,0,NA,NA
"777",21,NA,1,"second",1,3,0,NA,NA
"778",21,NA,1,"second",1,1,1,NA,NA
"779",21,NA,1,"second",1,6,1,NA,NA
"780",21,NA,1,"second",1,4,1,NA,NA
"781",21,NA,1,"native",1,1,0,NA,NA
"782",21,NA,1,"native",1,4,0,NA,NA
"783",21,NA,1,"native",1,4,1,NA,NA
"784",21,NA,1,"native",1,1,1,NA,NA
"785",21,NA,1,"native",1,4,1,NA,NA
"786",21,NA,1,"second",1,5,0,NA,NA
"787",21,NA,1,"second",1,4,0,NA,NA
"788",21,NA,1,"second",1,4,0,NA,NA
"789",21,NA,1,"second",1,6,1,NA,NA
"790",21,NA,1,"second",1,3,1,NA,NA
"791",21,NA,1,"native",1,6,0,NA,NA
"792",21,NA,1,"native",1,1,0,NA,NA
"793",21,NA,1,"native",1,6,0,NA,NA
"794",21,NA,1,"native",1,3,1,NA,NA
"795",21,NA,1,"native",1,5,1,NA,NA
"796",21,NA,1,"second",1,1,0,NA,NA
"797",21,NA,1,"second",1,3,0,NA,NA
"798",21,NA,1,"second",1,3,1,NA,NA
"799",21,NA,1,"second",1,2,1,NA,NA
"800",21,NA,1,"second",1,6,1,NA,NA
"801",22,"a1_1",1,"second",1,4,0,NA,NA
"802",22,"a3_3",1,"second",1,4,0,NA,NA
"803",22,"b1_1",1,"second",1,2,1,NA,NA
"804",22,"b1_2",1,"second",1,4,1,NA,NA
"805",22,"b3_3",1,"second",1,3,1,NA,NA
"806",22,"a2_1",1,"native",1,4,0,NA,NA
"807",22,"a2_4",1,"native",1,4,0,NA,NA
"808",22,"a4_4",1,"native",1,3,0,NA,NA
"809",22,"b2_1",1,"native",1,3,1,NA,NA
"810",22,"b4_4",1,"native",1,3,1,NA,NA
"811",22,"a1_2",1,"second",1,3,0,NA,NA
"812",22,"a3_4",1,"second",1,3,0,NA,NA
"813",22,"a3_5",1,"second",1,5,0,NA,NA
"814",22,"b1_3",1,"second",1,4,1,NA,NA
"815",22,"b3_4",1,"second",1,1,1,NA,NA
"816",22,"a2_2",1,"native",1,4,0,NA,NA
"817",22,"a4_5",1,"native",1,3,0,NA,NA
"818",22,"b2_2",1,"native",1,3,1,NA,NA
"819",22,"b2_3",1,"native",1,3,1,NA,NA
"820",22,"b4_1",1,"native",1,4,1,NA,NA
"821",22,"a1_4",1,"second",1,4,0,NA,NA
"822",22,"a3_1",1,"second",1,3,0,NA,NA
"823",22,"b1_4",1,"second",1,4,1,NA,NA
"824",22,"b3_1",1,"second",1,4,1,NA,NA
"825",22,"b3_2",1,"second",1,4,1,NA,NA
"826",22,"a2_3",1,"native",1,5,0,NA,NA
"827",22,"a4_1",1,"native",1,3,0,NA,NA
"828",22,"a4_2",1,"native",1,4,0,NA,NA
"829",22,"b2_4",1,"native",1,4,1,NA,NA
"830",22,"b4_2",1,"native",1,4,1,NA,NA
"831",22,"a1_5",1,"second",1,4,0,NA,NA
"832",22,"a1_3",1,"second",1,3,0,NA,NA
"833",22,"a3_2",1,"second",1,4,0,NA,NA
"834",22,"b1_5",1,"second",1,4,1,NA,NA
"835",22,"b3_5",1,"second",1,4,1,NA,NA
"836",22,"a2_5",1,"native",1,4,0,NA,NA
"837",22,"a4_3",1,"native",1,3,0,NA,NA
"838",22,"b2_5",1,"native",1,2,1,NA,NA
"839",22,"b4_3",1,"native",1,3,1,NA,NA
"840",22,"b4_5",1,"native",1,4,1,NA,NA
"841",23,"a1_1",1,"second",1,6,1,NA,NA
"842",23,"a3_3",1,"second",1,3,1,NA,NA
"843",23,"b1_1",1,"second",1,3,0,NA,NA
"844",23,"b1_2",1,"second",1,5,0,NA,NA
"845",23,"b3_3",1,"second",1,4,0,NA,NA
"846",23,"a2_1",1,"native",1,4,1,NA,NA
"847",23,"a2_4",1,"native",1,4,1,NA,NA
"848",23,"a4_4",1,"native",1,5,1,NA,NA
"849",23,"b2_1",1,"native",1,4,0,NA,NA
"850",23,"b4_4",1,"native",1,2,0,NA,NA
"851",23,"a1_2",1,"second",1,6,1,NA,NA
"852",23,"a3_4",1,"second",1,4,1,NA,NA
"853",23,"a3_5",1,"second",1,4,1,NA,NA
"854",23,"b1_3",1,"second",1,5,0,NA,NA
"855",23,"b3_4",1,"second",1,1,0,NA,NA
"856",23,"a2_2",1,"native",1,2,1,NA,NA
"857",23,"a4_5",1,"native",1,4,1,NA,NA
"858",23,"b2_2",1,"native",1,2,0,NA,NA
"859",23,"b2_3",1,"native",1,4,0,NA,NA
"860",23,"b4_1",1,"native",1,6,0,NA,NA
"861",23,"a1_4",1,"second",1,4,1,NA,NA
"862",23,"a3_1",1,"second",1,6,1,NA,NA
"863",23,"b1_4",1,"second",1,4,0,NA,NA
"864",23,"b3_1",1,"second",1,3,0,NA,NA
"865",23,"b3_2",1,"second",1,4,0,NA,NA
"866",23,"a2_3",1,"native",1,2,1,NA,NA
"867",23,"a4_1",1,"native",1,4,1,NA,NA
"868",23,"a4_2",1,"native",1,4,1,NA,NA
"869",23,"b2_4",1,"native",1,1,0,NA,NA
"870",23,"b4_2",1,"native",1,4,0,NA,NA
"871",23,"a1_5",1,"second",1,5,1,NA,NA
"872",23,"a1_3",1,"second",1,4,1,NA,NA
"873",23,"a3_2",1,"second",1,5,1,NA,NA
"874",23,"b1_5",1,"second",1,3,0,NA,NA
"875",23,"b3_5",1,"second",1,3,0,NA,NA
"876",23,"a2_5",1,"native",1,1,1,NA,NA
"877",23,"a4_3",1,"native",1,6,1,NA,NA
"878",23,"b2_5",1,"native",1,5,0,NA,NA
"879",23,"b4_3",1,"native",1,3,0,NA,NA
"880",23,"b4_5",1,"native",1,5,0,NA,NA
"881",24,"a1_1",1,"second",1,4,0,NA,NA
"882",24,"a3_3",1,"second",1,3,0,NA,NA
"883",24,"b1_1",1,"second",1,1,1,NA,NA
"884",24,"b1_2",1,"second",1,4,1,NA,NA
"885",24,"b3_3",1,"second",1,4,1,NA,NA
"886",24,"a2_1",1,"native",1,4,0,NA,NA
"887",24,"a2_4",1,"native",1,4,0,NA,NA
"888",24,"a4_4",1,"native",1,3,0,NA,NA
"889",24,"b2_1",1,"native",1,5,1,NA,NA
"890",24,"b4_4",1,"native",1,4,1,NA,NA
"891",24,"a1_2",1,"second",1,3,0,NA,NA
"892",24,"a3_4",1,"second",1,4,0,NA,NA
"893",24,"a3_5",1,"second",1,4,0,NA,NA
"894",24,"b1_3",1,"second",1,3,1,NA,NA
"895",24,"b3_4",1,"second",1,2,1,NA,NA
"896",24,"a2_2",1,"native",1,4,0,NA,NA
"897",24,"a4_5",1,"native",1,3,0,NA,NA
"898",24,"b2_2",1,"native",1,2,1,NA,NA
"899",24,"b2_3",1,"native",1,3,1,NA,NA
"900",24,"b4_1",1,"native",1,5,1,NA,NA
"901",24,"a1_4",1,"second",1,4,0,NA,NA
"902",24,"a3_1",1,"second",1,3,0,NA,NA
"903",24,"b1_4",1,"second",1,3,1,NA,NA
"904",24,"b3_1",1,"second",1,4,1,NA,NA
"905",24,"b3_2",1,"second",1,4,1,NA,NA
"906",24,"a2_3",1,"native",1,5,0,NA,NA
"907",24,"a4_1",1,"native",1,5,0,NA,NA
"908",24,"a4_2",1,"native",1,3,0,NA,NA
"909",24,"b2_4",1,"native",1,4,1,NA,NA
"910",24,"b4_2",1,"native",1,4,1,NA,NA
"911",24,"a1_5",1,"second",1,5,0,NA,NA
"912",24,"a1_3",1,"second",1,4,0,NA,NA
"913",24,"a3_2",1,"second",1,4,0,NA,NA
"914",24,"b1_5",1,"second",1,5,1,NA,NA
"915",24,"b3_5",1,"second",1,5,1,NA,NA
"916",24,"a2_5",1,"native",1,4,0,NA,NA
"917",24,"a4_3",1,"native",1,4,0,NA,NA
"918",24,"b2_5",1,"native",1,4,1,NA,NA
"919",24,"b4_3",1,"native",1,4,1,NA,NA
"920",24,"b4_5",1,"native",1,4,1,NA,NA
"921",25,"a1_1",1,"second",1,3,0,NA,NA
"922",25,"a3_3",1,"second",1,3,0,NA,NA
"923",25,"b1_1",1,"second",1,4,1,NA,NA
"924",25,"b1_2",1,"second",1,3,1,NA,NA
"925",25,"b3_3",1,"second",1,5,1,NA,NA
"926",25,"a2_1",1,"native",1,6,0,NA,NA
"927",25,"a2_4",1,"native",1,4,0,NA,NA
"928",25,"a4_4",1,"native",1,1,0,NA,NA
"929",25,"b2_1",1,"native",1,1,1,NA,NA
"930",25,"b4_4",1,"native",1,2,1,NA,NA
"931",25,"a1_2",1,"second",1,1,0,NA,NA
"932",25,"a3_4",1,"second",1,1,0,NA,NA
"933",25,"a3_5",1,"second",1,4,0,NA,NA
"934",25,"b1_3",1,"second",1,4,1,NA,NA
"935",25,"b3_4",1,"second",1,1,1,NA,NA
"936",25,"a2_2",1,"native",1,1,0,NA,NA
"937",25,"a4_5",1,"native",1,4,0,NA,NA
"938",25,"b2_2",1,"native",1,4,1,NA,NA
"939",25,"b2_3",1,"native",1,3,1,NA,NA
"940",25,"b4_1",1,"native",1,5,1,NA,NA
"941",25,"a1_4",1,"second",1,4,0,NA,NA
"942",25,"a3_1",1,"second",1,5,0,NA,NA
"943",25,"b1_4",1,"second",1,5,1,NA,NA
"944",25,"b3_1",1,"second",1,3,1,NA,NA
"945",25,"b3_2",1,"second",1,6,1,NA,NA
"946",25,"a2_3",1,"native",1,5,0,NA,NA
"947",25,"a4_1",1,"native",1,4,0,NA,NA
"948",25,"a4_2",1,"native",1,3,0,NA,NA
"949",25,"b2_4",1,"native",1,2,1,NA,NA
"950",25,"b4_2",1,"native",1,5,1,NA,NA
"951",25,"a1_5",1,"second",1,6,0,NA,NA
"952",25,"a1_3",1,"second",1,4,0,NA,NA
"953",25,"a3_2",1,"second",1,3,0,NA,NA
"954",25,"b1_5",1,"second",1,4,1,NA,NA
"955",25,"b3_5",1,"second",1,4,1,NA,NA
"956",25,"a2_5",1,"native",1,1,0,NA,NA
"957",25,"a4_3",1,"native",1,2,0,NA,NA
"958",25,"b2_5",1,"native",1,4,1,NA,NA
"959",25,"b4_3",1,"native",1,6,1,NA,NA
"960",25,"b4_5",1,"native",1,3,1,NA,NA
"961",26,NA,1,"native",1,6,1,NA,NA
"962",26,NA,1,"native",1,4,1,NA,NA
"963",26,NA,1,"native",1,1,0,NA,NA
"964",26,NA,1,"native",1,5,0,NA,NA
"965",26,NA,1,"native",1,5,0,NA,NA
"966",26,NA,1,"second",1,6,1,NA,NA
"967",26,NA,1,"second",1,5,1,NA,NA
"968",26,NA,1,"second",1,1,1,NA,NA
"969",26,NA,1,"second",1,4,0,NA,NA
"970",26,NA,1,"second",1,1,0,NA,NA
"971",26,NA,1,"native",1,5,1,NA,NA
"972",26,NA,1,"native",1,4,1,NA,NA
"973",26,NA,1,"native",1,1,1,NA,NA
"974",26,NA,1,"native",1,3,0,NA,NA
"975",26,NA,1,"native",1,1,0,NA,NA
"976",26,NA,1,"second",1,1,1,NA,NA
"977",26,NA,1,"second",1,6,1,NA,NA
"978",26,NA,1,"second",1,6,0,NA,NA
"979",26,NA,1,"second",1,1,0,NA,NA
"980",26,NA,1,"second",1,1,0,NA,NA
"981",26,NA,1,"native",1,5,1,NA,NA
"982",26,NA,1,"native",1,6,1,NA,NA
"983",26,NA,1,"native",1,1,0,NA,NA
"984",26,NA,1,"native",1,5,0,NA,NA
"985",26,NA,1,"native",1,6,0,NA,NA
"986",26,NA,1,"second",1,5,1,NA,NA
"987",26,NA,1,"second",1,1,1,NA,NA
"988",26,NA,1,"second",1,3,1,NA,NA
"989",26,NA,1,"second",1,2,0,NA,NA
"990",26,NA,1,"second",1,6,0,NA,NA
"991",26,NA,1,"native",1,5,1,NA,NA
"992",26,NA,1,"native",1,6,1,NA,NA
"993",26,NA,1,"native",1,5,1,NA,NA
"994",26,NA,1,"native",1,1,0,NA,NA
"995",26,NA,1,"native",1,4,0,NA,NA
"996",26,NA,1,"second",1,2,1,NA,NA
"997",26,NA,1,"second",1,4,1,NA,NA
"998",26,NA,1,"second",1,3,0,NA,NA
"999",26,NA,1,"second",1,5,0,NA,NA
"1000",26,NA,1,"second",1,5,0,NA,NA
"1001",28,"a1_1",1,"second",1,4,0,NA,NA
"1002",28,"a3_3",1,"second",1,4,0,NA,NA
"1003",28,"b1_1",1,"second",1,2,1,NA,NA
"1004",28,"b1_2",1,"second",1,5,1,NA,NA
"1005",28,"b3_3",1,"second",1,5,1,NA,NA
"1006",28,"a2_1",1,"native",1,6,0,NA,NA
"1007",28,"a2_4",1,"native",1,3,0,NA,NA
"1008",28,"a4_4",1,"native",1,2,0,NA,NA
"1009",28,"b2_1",1,"native",1,4,1,NA,NA
"1010",28,"b4_4",1,"native",1,5,1,NA,NA
"1011",28,"a1_2",1,"second",1,6,0,NA,NA
"1012",28,"a3_4",1,"second",1,2,0,NA,NA
"1013",28,"a3_5",1,"second",1,5,0,NA,NA
"1014",28,"b1_3",1,"second",1,5,1,NA,NA
"1015",28,"b3_4",1,"second",1,1,1,NA,NA
"1016",28,"a2_2",1,"native",1,2,0,NA,NA
"1017",28,"a4_5",1,"native",1,3,0,NA,NA
"1018",28,"b2_2",1,"native",1,4,1,NA,NA
"1019",28,"b2_3",1,"native",1,5,1,NA,NA
"1020",28,"b4_1",1,"native",1,5,1,NA,NA
"1021",28,"a1_4",1,"second",1,4,0,NA,NA
"1022",28,"a3_1",1,"second",1,5,0,NA,NA
"1023",28,"b1_4",1,"second",1,4,1,NA,NA
"1024",28,"b3_1",1,"second",1,3,1,NA,NA
"1025",28,"b3_2",1,"second",1,6,1,NA,NA
"1026",28,"a2_3",1,"native",1,4,0,NA,NA
"1027",28,"a4_1",1,"native",1,2,0,NA,NA
"1028",28,"a4_2",1,"native",1,2,0,NA,NA
"1029",28,"b2_4",1,"native",1,6,1,NA,NA
"1030",28,"b4_2",1,"native",1,6,1,NA,NA
"1031",28,"a1_5",1,"second",1,6,0,NA,NA
"1032",28,"a1_3",1,"second",1,4,0,NA,NA
"1033",28,"a3_2",1,"second",1,3,0,NA,NA
"1034",28,"b1_5",1,"second",1,5,1,NA,NA
"1035",28,"b3_5",1,"second",1,2,1,NA,NA
"1036",28,"a2_5",1,"native",1,1,0,NA,NA
"1037",28,"a4_3",1,"native",1,1,0,NA,NA
"1038",28,"b2_5",1,"native",1,6,1,NA,NA
"1039",28,"b4_3",1,"native",1,5,1,NA,NA
"1040",28,"b4_5",1,"native",1,6,1,NA,NA
"1041",29,"a1_1",1,"second",1,5,1,NA,NA
"1042",29,"a3_3",1,"second",1,5,1,NA,NA
"1043",29,"b1_1",1,"second",1,2,0,NA,NA
"1044",29,"b1_2",1,"second",1,5,0,NA,NA
"1045",29,"b3_3",1,"second",1,4,0,NA,NA
"1046",29,"a2_1",1,"native",1,2,1,NA,NA
"1047",29,"a2_4",1,"native",1,3,1,NA,NA
"1048",29,"a4_4",1,"native",1,2,1,NA,NA
"1049",29,"b2_1",1,"native",1,3,0,NA,NA
"1050",29,"b4_4",1,"native",1,4,0,NA,NA
"1051",29,"a1_2",1,"second",1,6,1,NA,NA
"1052",29,"a3_4",1,"second",1,4,1,NA,NA
"1053",29,"a3_5",1,"second",1,4,1,NA,NA
"1054",29,"b1_3",1,"second",1,4,0,NA,NA
"1055",29,"b3_4",1,"second",1,1,0,NA,NA
"1056",29,"a2_2",1,"native",1,3,1,NA,NA
"1057",29,"a4_5",1,"native",1,4,1,NA,NA
"1058",29,"b2_2",1,"native",1,2,0,NA,NA
"1059",29,"b2_3",1,"native",1,4,0,NA,NA
"1060",29,"b4_1",1,"native",1,2,0,NA,NA
"1061",29,"a1_4",1,"second",1,5,1,NA,NA
"1062",29,"a3_1",1,"second",1,4,1,NA,NA
"1063",29,"b1_4",1,"second",1,3,0,NA,NA
"1064",29,"b3_1",1,"second",1,3,0,NA,NA
"1065",29,"b3_2",1,"second",1,4,0,NA,NA
"1066",29,"a2_3",1,"native",1,4,1,NA,NA
"1067",29,"a4_1",1,"native",1,4,1,NA,NA
"1068",29,"a4_2",1,"native",1,1,1,NA,NA
"1069",29,"b2_4",1,"native",1,1,0,NA,NA
"1070",29,"b4_2",1,"native",1,5,0,NA,NA
"1071",29,"a1_5",1,"second",1,5,1,NA,NA
"1072",29,"a1_3",1,"second",1,4,1,NA,NA
"1073",29,"a3_2",1,"second",1,4,1,NA,NA
"1074",29,"b1_5",1,"second",1,3,0,NA,NA
"1075",29,"b3_5",1,"second",1,3,0,NA,NA
"1076",29,"a2_5",1,"native",1,1,1,NA,NA
"1077",29,"a4_3",1,"native",1,3,1,NA,NA
"1078",29,"b2_5",1,"native",1,4,0,NA,NA
"1079",29,"b4_3",1,"native",1,4,0,NA,NA
"1080",29,"b4_5",1,"native",1,3,0,NA,NA
"1081",30,NA,1,"native",1,4,0,NA,NA
"1082",30,NA,1,"native",1,1,0,NA,NA
"1083",30,NA,1,"native",1,2,1,NA,NA
"1084",30,NA,1,"native",1,4,1,NA,NA
"1085",30,NA,1,"native",1,5,1,NA,NA
"1086",30,NA,1,"second",1,5,0,NA,NA
"1087",30,NA,1,"second",1,4,0,NA,NA
"1088",30,NA,1,"second",1,2,0,NA,NA
"1089",30,NA,1,"second",1,5,1,NA,NA
"1090",30,NA,1,"second",1,2,1,NA,NA
"1091",30,NA,1,"native",1,2,0,NA,NA
"1092",30,NA,1,"native",1,4,0,NA,NA
"1093",30,NA,1,"native",1,5,0,NA,NA
"1094",30,NA,1,"native",1,2,1,NA,NA
"1095",30,NA,1,"native",1,1,1,NA,NA
"1096",30,NA,1,"second",1,3,0,NA,NA
"1097",30,NA,1,"second",1,4,0,NA,NA
"1098",30,NA,1,"second",1,4,1,NA,NA
"1099",30,NA,1,"second",1,5,1,NA,NA
"1100",30,NA,1,"second",1,5,1,NA,NA
"1101",30,NA,1,"native",1,3,0,NA,NA
"1102",30,NA,1,"native",1,4,0,NA,NA
"1103",30,NA,1,"native",1,3,1,NA,NA
"1104",30,NA,1,"native",1,2,1,NA,NA
"1105",30,NA,1,"native",1,5,1,NA,NA
"1106",30,NA,1,"second",1,5,0,NA,NA
"1107",30,NA,1,"second",1,1,0,NA,NA
"1108",30,NA,1,"second",1,4,0,NA,NA
"1109",30,NA,1,"second",1,1,1,NA,NA
"1110",30,NA,1,"second",1,5,1,NA,NA
"1111",30,NA,1,"native",1,5,0,NA,NA
"1112",30,NA,1,"native",1,3,0,NA,NA
"1113",30,NA,1,"native",1,3,0,NA,NA
"1114",30,NA,1,"native",1,2,1,NA,NA
"1115",30,NA,1,"native",1,4,1,NA,NA
"1116",30,NA,1,"second",1,1,0,NA,NA
"1117",30,NA,1,"second",1,1,0,NA,NA
"1118",30,NA,1,"second",1,4,1,NA,NA
"1119",30,NA,1,"second",1,4,1,NA,NA
"1120",30,NA,1,"second",1,4,1,NA,NA
"1121",31,"a1_1",1,"second",1,5,1,NA,NA
"1122",31,"a3_3",1,"second",1,5,1,NA,NA
"1123",31,"b1_1",1,"second",1,2,0,NA,NA
"1124",31,"b1_2",1,"second",1,4,0,NA,NA
"1125",31,"b3_3",1,"second",1,2,0,NA,NA
"1126",31,"a2_1",1,"native",1,4,1,NA,NA
"1127",31,"a2_4",1,"native",1,3,1,NA,NA
"1128",31,"a4_4",1,"native",1,6,1,NA,NA
"1129",31,"b2_1",1,"native",1,4,0,NA,NA
"1130",31,"b4_4",1,"native",1,4,0,NA,NA
"1131",31,"a1_2",1,"second",1,1,1,NA,NA
"1132",31,"a3_4",1,"second",1,5,1,NA,NA
"1133",31,"a3_5",1,"second",1,3,1,NA,NA
"1134",31,"b1_3",1,"second",1,4,0,NA,NA
"1135",31,"b3_4",1,"second",1,2,0,NA,NA
"1136",31,"a2_2",1,"native",1,2,1,NA,NA
"1137",31,"a4_5",1,"native",1,4,1,NA,NA
"1138",31,"b2_2",1,"native",1,6,0,NA,NA
"1139",31,"b2_3",1,"native",1,4,0,NA,NA
"1140",31,"b4_1",1,"native",1,4,0,NA,NA
"1141",31,"a1_4",1,"second",1,4,1,NA,NA
"1142",31,"a3_1",1,"second",1,5,1,NA,NA
"1143",31,"b1_4",1,"second",1,4,0,NA,NA
"1144",31,"b3_1",1,"second",1,5,0,NA,NA
"1145",31,"b3_2",1,"second",1,5,0,NA,NA
"1146",31,"a2_3",1,"native",1,3,1,NA,NA
"1147",31,"a4_1",1,"native",1,5,1,NA,NA
"1148",31,"a4_2",1,"native",1,2,1,NA,NA
"1149",31,"b2_4",1,"native",1,3,0,NA,NA
"1150",31,"b4_2",1,"native",1,3,0,NA,NA
"1151",31,"a1_5",1,"second",1,6,1,NA,NA
"1152",31,"a1_3",1,"second",1,4,1,NA,NA
"1153",31,"a3_2",1,"second",1,3,1,NA,NA
"1154",31,"b1_5",1,"second",1,5,0,NA,NA
"1155",31,"b3_5",1,"second",1,4,0,NA,NA
"1156",31,"a2_5",1,"native",1,5,1,NA,NA
"1157",31,"a4_3",1,"native",1,3,1,NA,NA
"1158",31,"b2_5",1,"native",1,4,0,NA,NA
"1159",31,"b4_3",1,"native",1,3,0,NA,NA
"1160",31,"b4_5",1,"native",1,5,0,NA,NA
"1161",32,NA,1,"native",1,6,0,NA,NA
"1162",32,NA,1,"native",1,4,0,NA,NA
"1163",32,NA,1,"native",1,5,1,NA,NA
"1164",32,NA,1,"native",1,3,1,NA,NA
"1165",32,NA,1,"native",1,2,1,NA,NA
"1166",32,NA,1,"second",1,1,0,NA,NA
"1167",32,NA,1,"second",1,5,0,NA,NA
"1168",32,NA,1,"second",1,1,0,NA,NA
"1169",32,NA,1,"second",1,2,1,NA,NA
"1170",32,NA,1,"second",1,3,1,NA,NA
"1171",32,NA,1,"native",1,4,0,NA,NA
"1172",32,NA,1,"native",1,2,0,NA,NA
"1173",32,NA,1,"native",1,2,0,NA,NA
"1174",32,NA,1,"native",1,4,1,NA,NA
"1175",32,NA,1,"native",1,1,1,NA,NA
"1176",32,NA,1,"second",1,2,0,NA,NA
"1177",32,NA,1,"second",1,2,0,NA,NA
"1178",32,NA,1,"second",1,2,1,NA,NA
"1179",32,NA,1,"second",1,5,1,NA,NA
"1180",32,NA,1,"second",1,4,1,NA,NA
"1181",32,NA,1,"native",1,5,0,NA,NA
"1182",32,NA,1,"native",1,4,0,NA,NA
"1183",32,NA,1,"native",1,5,1,NA,NA
"1184",32,NA,1,"native",1,3,1,NA,NA
"1185",32,NA,1,"native",1,5,1,NA,NA
"1186",32,NA,1,"second",1,1,0,NA,NA
"1187",32,NA,1,"second",1,3,0,NA,NA
"1188",32,NA,1,"second",1,6,0,NA,NA
"1189",32,NA,1,"second",1,2,1,NA,NA
"1190",32,NA,1,"second",1,4,1,NA,NA
"1191",32,NA,1,"native",1,4,0,NA,NA
"1192",32,NA,1,"native",1,3,0,NA,NA
"1193",32,NA,1,"native",1,3,0,NA,NA
"1194",32,NA,1,"native",1,5,1,NA,NA
"1195",32,NA,1,"native",1,5,1,NA,NA
"1196",32,NA,1,"second",1,4,0,NA,NA
"1197",32,NA,1,"second",1,6,0,NA,NA
"1198",32,NA,1,"second",1,5,1,NA,NA
"1199",32,NA,1,"second",1,5,1,NA,NA
"1200",32,NA,1,"second",1,3,1,NA,NA
"1201",34,"a1_1",1,"second",1,6,1,NA,NA
"1202",34,"a3_3",1,"second",1,3,1,NA,NA
"1203",34,"b1_1",1,"second",1,2,0,NA,NA
"1204",34,"b1_2",1,"second",1,5,0,NA,NA
"1205",34,"b3_3",1,"second",1,4,0,NA,NA
"1206",34,"a2_1",1,"native",1,6,1,NA,NA
"1207",34,"a2_4",1,"native",1,6,1,NA,NA
"1208",34,"a4_4",1,"native",1,5,1,NA,NA
"1209",34,"b2_1",1,"native",1,1,0,NA,NA
"1210",34,"b4_4",1,"native",1,5,0,NA,NA
"1211",34,"a1_2",1,"second",1,2,1,NA,NA
"1212",34,"a3_4",1,"second",1,5,1,NA,NA
"1213",34,"a3_5",1,"second",1,5,1,NA,NA
"1214",34,"b1_3",1,"second",1,5,0,NA,NA
"1215",34,"b3_4",1,"second",1,1,0,NA,NA
"1216",34,"a2_2",1,"native",1,4,1,NA,NA
"1217",34,"a4_5",1,"native",1,4,1,NA,NA
"1218",34,"b2_2",1,"native",1,4,0,NA,NA
"1219",34,"b2_3",1,"native",1,5,0,NA,NA
"1220",34,"b4_1",1,"native",1,6,0,NA,NA
"1221",34,"a1_4",1,"second",1,5,1,NA,NA
"1222",34,"a3_1",1,"second",1,6,1,NA,NA
"1223",34,"b1_4",1,"second",1,4,0,NA,NA
"1224",34,"b3_1",1,"second",1,6,0,NA,NA
"1225",34,"b3_2",1,"second",1,5,0,NA,NA
"1226",34,"a2_3",1,"native",1,5,1,NA,NA
"1227",34,"a4_1",1,"native",1,4,1,NA,NA
"1228",34,"a4_2",1,"native",1,2,1,NA,NA
"1229",34,"b2_4",1,"native",1,2,0,NA,NA
"1230",34,"b4_2",1,"native",1,5,0,NA,NA
"1231",34,"a1_5",1,"second",1,6,1,NA,NA
"1232",34,"a1_3",1,"second",1,6,1,NA,NA
"1233",34,"a3_2",1,"second",1,6,1,NA,NA
"1234",34,"b1_5",1,"second",1,3,0,NA,NA
"1235",34,"b3_5",1,"second",1,5,0,NA,NA
"1236",34,"a2_5",1,"native",1,5,1,NA,NA
"1237",34,"a4_3",1,"native",1,1,1,NA,NA
"1238",34,"b2_5",1,"native",1,4,0,NA,NA
"1239",34,"b4_3",1,"native",1,4,0,NA,NA
"1240",34,"b4_5",1,"native",1,3,0,NA,NA
"1241",36,"a1_1",1,"second",1,5,0,NA,NA
"1242",36,"a3_3",1,"second",1,1,0,NA,NA
"1243",36,"b1_1",1,"second",1,2,1,NA,NA
"1244",36,"b1_2",1,"second",1,4,1,NA,NA
"1245",36,"b3_3",1,"second",1,4,1,NA,NA
"1246",36,"a2_1",1,"native",1,5,0,NA,NA
"1247",36,"a2_4",1,"native",1,5,0,NA,NA
"1248",36,"a4_4",1,"native",1,1,0,NA,NA
"1249",36,"b2_1",1,"native",1,4,1,NA,NA
"1250",36,"b4_4",1,"native",1,2,1,NA,NA
"1251",36,"a1_2",1,"second",1,5,0,NA,NA
"1252",36,"a3_4",1,"second",1,3,0,NA,NA
"1253",36,"a3_5",1,"second",1,4,0,NA,NA
"1254",36,"b1_3",1,"second",1,4,1,NA,NA
"1255",36,"b3_4",1,"second",1,1,1,NA,NA
"1256",36,"a2_2",1,"native",1,1,0,NA,NA
"1257",36,"a4_5",1,"native",1,3,0,NA,NA
"1258",36,"b2_2",1,"native",1,2,1,NA,NA
"1259",36,"b2_3",1,"native",1,5,1,NA,NA
"1260",36,"b4_1",1,"native",1,5,1,NA,NA
"1261",36,"a1_4",1,"second",1,3,0,NA,NA
"1262",36,"a3_1",1,"second",1,4,0,NA,NA
"1263",36,"b1_4",1,"second",1,3,1,NA,NA
"1264",36,"b3_1",1,"second",1,4,1,NA,NA
"1265",36,"b3_2",1,"second",1,4,1,NA,NA
"1266",36,"a2_3",1,"native",1,4,0,NA,NA
"1267",36,"a4_1",1,"native",1,4,0,NA,NA
"1268",36,"a4_2",1,"native",1,2,0,NA,NA
"1269",36,"b2_4",1,"native",1,1,1,NA,NA
"1270",36,"b4_2",1,"native",1,5,1,NA,NA
"1271",36,"a1_5",1,"second",1,2,0,NA,NA
"1272",36,"a1_3",1,"second",1,5,0,NA,NA
"1273",36,"a3_2",1,"second",1,5,0,NA,NA
"1274",36,"b1_5",1,"second",1,4,1,NA,NA
"1275",36,"b3_5",1,"second",1,2,1,NA,NA
"1276",36,"a2_5",1,"native",1,4,0,NA,NA
"1277",36,"a4_3",1,"native",1,2,0,NA,NA
"1278",36,"b2_5",1,"native",1,4,1,NA,NA
"1279",36,"b4_3",1,"native",1,3,1,NA,NA
"1280",36,"b4_5",1,"native",1,4,1,NA,NA
"1281",37,NA,1,"native",1,5,0,NA,NA
"1282",37,NA,1,"native",1,3,0,NA,NA
"1283",37,NA,1,"native",1,3,1,NA,NA
"1284",37,NA,1,"native",1,5,1,NA,NA
"1285",37,NA,1,"native",1,4,1,NA,NA
"1286",37,NA,1,"second",1,2,0,NA,NA
"1287",37,NA,1,"second",1,2,0,NA,NA
"1288",37,NA,1,"second",1,2,0,NA,NA
"1289",37,NA,1,"second",1,4,1,NA,NA
"1290",37,NA,1,"second",1,3,1,NA,NA
"1291",37,NA,1,"native",1,1,0,NA,NA
"1292",37,NA,1,"native",1,6,0,NA,NA
"1293",37,NA,1,"native",1,4,0,NA,NA
"1294",37,NA,1,"native",1,5,1,NA,NA
"1295",37,NA,1,"native",1,5,1,NA,NA
"1296",37,NA,1,"second",1,4,0,NA,NA
"1297",37,NA,1,"second",1,2,0,NA,NA
"1298",37,NA,1,"second",1,5,1,NA,NA
"1299",37,NA,1,"second",1,4,1,NA,NA
"1300",37,NA,1,"second",1,3,1,NA,NA
"1301",37,NA,1,"native",1,3,0,NA,NA
"1302",37,NA,1,"native",1,6,0,NA,NA
"1303",37,NA,1,"native",1,2,1,NA,NA
"1304",37,NA,1,"native",1,4,1,NA,NA
"1305",37,NA,1,"native",1,5,1,NA,NA
"1306",37,NA,1,"second",1,3,0,NA,NA
"1307",37,NA,1,"second",1,5,0,NA,NA
"1308",37,NA,1,"second",1,4,0,NA,NA
"1309",37,NA,1,"second",1,2,1,NA,NA
"1310",37,NA,1,"second",1,3,1,NA,NA
"1311",37,NA,1,"native",1,2,0,NA,NA
"1312",37,NA,1,"native",1,4,0,NA,NA
"1313",37,NA,1,"native",1,2,0,NA,NA
"1314",37,NA,1,"native",1,3,1,NA,NA
"1315",37,NA,1,"native",1,4,1,NA,NA
"1316",37,NA,1,"second",1,1,0,NA,NA
"1317",37,NA,1,"second",1,1,0,NA,NA
"1318",37,NA,1,"second",1,6,1,NA,NA
"1319",37,NA,1,"second",1,3,1,NA,NA
"1320",37,NA,1,"second",1,5,1,NA,NA
"1321",38,"a1_1",1,"second",1,6,0,NA,NA
"1322",38,"a3_3",1,"second",1,4,0,NA,NA
"1323",38,"b1_1",1,"second",1,5,1,NA,NA
"1324",38,"b1_2",1,"second",1,4,1,NA,NA
"1325",38,"b3_3",1,"second",1,4,1,NA,NA
"1326",38,"a2_1",1,"native",1,6,0,NA,NA
"1327",38,"a2_4",1,"native",1,5,0,NA,NA
"1328",38,"a4_4",1,"native",1,1,0,NA,NA
"1329",38,"b2_1",1,"native",1,3,1,NA,NA
"1330",38,"b4_4",1,"native",1,5,1,NA,NA
"1331",38,"a1_2",1,"second",1,2,0,NA,NA
"1332",38,"a3_4",1,"second",1,2,0,NA,NA
"1333",38,"a3_5",1,"second",1,4,0,NA,NA
"1334",38,"b1_3",1,"second",1,5,1,NA,NA
"1335",38,"b3_4",1,"second",1,1,1,NA,NA
"1336",38,"a2_2",1,"native",1,4,0,NA,NA
"1337",38,"a4_5",1,"native",1,3,0,NA,NA
"1338",38,"b2_2",1,"native",1,6,1,NA,NA
"1339",38,"b2_3",1,"native",1,2,1,NA,NA
"1340",38,"b4_1",1,"native",1,6,1,NA,NA
"1341",38,"a1_4",1,"second",1,3,0,NA,NA
"1342",38,"a3_1",1,"second",1,5,0,NA,NA
"1343",38,"b1_4",1,"second",1,4,1,NA,NA
"1344",38,"b3_1",1,"second",1,4,1,NA,NA
"1345",38,"b3_2",1,"second",1,6,1,NA,NA
"1346",38,"a2_3",1,"native",1,5,0,NA,NA
"1347",38,"a4_1",1,"native",1,1,0,NA,NA
"1348",38,"a4_2",1,"native",1,3,0,NA,NA
"1349",38,"b2_4",1,"native",1,1,1,NA,NA
"1350",38,"b4_2",1,"native",1,4,1,NA,NA
"1351",38,"a1_5",1,"second",1,6,0,NA,NA
"1352",38,"a1_3",1,"second",1,6,0,NA,NA
"1353",38,"a3_2",1,"second",1,4,0,NA,NA
"1354",38,"b1_5",1,"second",1,4,1,NA,NA
"1355",38,"b3_5",1,"second",1,3,1,NA,NA
"1356",38,"a2_5",1,"native",1,1,0,NA,NA
"1357",38,"a4_3",1,"native",1,1,0,NA,NA
"1358",38,"b2_5",1,"native",1,1,1,NA,NA
"1359",38,"b4_3",1,"native",1,4,1,NA,NA
"1360",38,"b4_5",1,"native",1,3,1,NA,NA
"1361",39,NA,1,"native",1,5,1,NA,NA
"1362",39,NA,1,"native",1,3,1,NA,NA
"1363",39,NA,1,"native",1,2,0,NA,NA
"1364",39,NA,1,"native",1,5,0,NA,NA
"1365",39,NA,1,"native",1,3,0,NA,NA
"1366",39,NA,1,"second",1,3,1,NA,NA
"1367",39,NA,1,"second",1,5,1,NA,NA
"1368",39,NA,1,"second",1,6,1,NA,NA
"1369",39,NA,1,"second",1,3,0,NA,NA
"1370",39,NA,1,"second",1,1,0,NA,NA
"1371",39,NA,1,"native",1,2,1,NA,NA
"1372",39,NA,1,"native",1,5,1,NA,NA
"1373",39,NA,1,"native",1,5,1,NA,NA
"1374",39,NA,1,"native",1,4,0,NA,NA
"1375",39,NA,1,"native",1,5,0,NA,NA
"1376",39,NA,1,"second",1,3,1,NA,NA
"1377",39,NA,1,"second",1,4,1,NA,NA
"1378",39,NA,1,"second",1,5,0,NA,NA
"1379",39,NA,1,"second",1,5,0,NA,NA
"1380",39,NA,1,"second",1,2,0,NA,NA
"1381",39,NA,1,"native",1,4,1,NA,NA
"1382",39,NA,1,"native",1,6,1,NA,NA
"1383",39,NA,1,"native",1,4,0,NA,NA
"1384",39,NA,1,"native",1,5,0,NA,NA
"1385",39,NA,1,"native",1,4,0,NA,NA
"1386",39,NA,1,"second",1,5,1,NA,NA
"1387",39,NA,1,"second",1,3,1,NA,NA
"1388",39,NA,1,"second",1,4,1,NA,NA
"1389",39,NA,1,"second",1,4,0,NA,NA
"1390",39,NA,1,"second",1,2,0,NA,NA
"1391",39,NA,1,"native",1,5,1,NA,NA
"1392",39,NA,1,"native",1,5,1,NA,NA
"1393",39,NA,1,"native",1,6,1,NA,NA
"1394",39,NA,1,"native",1,3,0,NA,NA
"1395",39,NA,1,"native",1,4,0,NA,NA
"1396",39,NA,1,"second",1,1,1,NA,NA
"1397",39,NA,1,"second",1,4,1,NA,NA
"1398",39,NA,1,"second",1,4,0,NA,NA
"1399",39,NA,1,"second",1,4,0,NA,NA
"1400",39,NA,1,"second",1,3,0,NA,NA
"1401",40,"a1_1",1,"second",1,6,0,NA,NA
"1402",40,"a3_3",1,"second",1,3,0,NA,NA
"1403",40,"b1_1",1,"second",1,5,1,NA,NA
"1404",40,"b1_2",1,"second",1,1,1,NA,NA
"1405",40,"b3_3",1,"second",1,4,1,NA,NA
"1406",40,"a2_1",1,"native",1,6,0,NA,NA
"1407",40,"a2_4",1,"native",1,4,0,NA,NA
"1408",40,"a4_4",1,"native",1,3,0,NA,NA
"1409",40,"b2_1",1,"native",1,3,1,NA,NA
"1410",40,"b4_4",1,"native",1,6,1,NA,NA
"1411",40,"a1_2",1,"second",1,6,0,NA,NA
"1412",40,"a3_4",1,"second",1,3,0,NA,NA
"1413",40,"a3_5",1,"second",1,4,0,NA,NA
"1414",40,"b1_3",1,"second",1,4,1,NA,NA
"1415",40,"b3_4",1,"second",1,5,1,NA,NA
"1416",40,"a2_2",1,"native",1,1,0,NA,NA
"1417",40,"a4_5",1,"native",1,4,0,NA,NA
"1418",40,"b2_2",1,"native",1,6,1,NA,NA
"1419",40,"b2_3",1,"native",1,3,1,NA,NA
"1420",40,"b4_1",1,"native",1,6,1,NA,NA
"1421",40,"a1_4",1,"second",1,5,0,NA,NA
"1422",40,"a3_1",1,"second",1,6,0,NA,NA
"1423",40,"b1_4",1,"second",1,1,1,NA,NA
"1424",40,"b3_1",1,"second",1,4,1,NA,NA
"1425",40,"b3_2",1,"second",1,6,1,NA,NA
"1426",40,"a2_3",1,"native",1,5,0,NA,NA
"1427",40,"a4_1",1,"native",1,3,0,NA,NA
"1428",40,"a4_2",1,"native",1,1,0,NA,NA
"1429",40,"b2_4",1,"native",1,1,1,NA,NA
"1430",40,"b4_2",1,"native",1,3,1,NA,NA
"1431",40,"a1_5",1,"second",1,3,0,NA,NA
"1432",40,"a1_3",1,"second",1,4,0,NA,NA
"1433",40,"a3_2",1,"second",1,4,0,NA,NA
"1434",40,"b1_5",1,"second",1,3,1,NA,NA
"1435",40,"b3_5",1,"second",1,5,1,NA,NA
"1436",40,"a2_5",1,"native",1,1,0,NA,NA
"1437",40,"a4_3",1,"native",1,1,0,NA,NA
"1438",40,"b2_5",1,"native",1,3,1,NA,NA
"1439",40,"b4_3",1,"native",1,4,1,NA,NA
"1440",40,"b4_5",1,"native",1,1,1,NA,NA
"1441",41,NA,1,"native",1,5,1,NA,NA
"1442",41,NA,1,"native",1,4,1,NA,NA
"1443",41,NA,1,"native",1,1,0,NA,NA
"1444",41,NA,1,"native",1,4,0,NA,NA
"1445",41,NA,1,"native",1,1,0,NA,NA
"1446",41,NA,1,"second",1,2,1,NA,NA
"1447",41,NA,1,"second",1,5,1,NA,NA
"1448",41,NA,1,"second",1,4,1,NA,NA
"1449",41,NA,1,"second",1,3,0,NA,NA
"1450",41,NA,1,"second",1,2,0,NA,NA
"1451",41,NA,1,"native",1,4,1,NA,NA
"1452",41,NA,1,"native",1,3,1,NA,NA
"1453",41,NA,1,"native",1,3,1,NA,NA
"1454",41,NA,1,"native",1,5,0,NA,NA
"1455",41,NA,1,"native",1,1,0,NA,NA
"1456",41,NA,1,"second",1,4,1,NA,NA
"1457",41,NA,1,"second",1,3,1,NA,NA
"1458",41,NA,1,"second",1,5,0,NA,NA
"1459",41,NA,1,"second",1,4,0,NA,NA
"1460",41,NA,1,"second",1,1,0,NA,NA
"1461",41,NA,1,"native",1,5,1,NA,NA
"1462",41,NA,1,"native",1,2,1,NA,NA
"1463",41,NA,1,"native",1,4,0,NA,NA
"1464",41,NA,1,"native",1,4,0,NA,NA
"1465",41,NA,1,"native",1,5,0,NA,NA
"1466",41,NA,1,"second",1,5,1,NA,NA
"1467",41,NA,1,"second",1,4,1,NA,NA
"1468",41,NA,1,"second",1,5,1,NA,NA
"1469",41,NA,1,"second",1,2,0,NA,NA
"1470",41,NA,1,"second",1,5,0,NA,NA
"1471",41,NA,1,"native",1,4,1,NA,NA
"1472",41,NA,1,"native",1,4,1,NA,NA
"1473",41,NA,1,"native",1,4,1,NA,NA
"1474",41,NA,1,"native",1,2,0,NA,NA
"1475",41,NA,1,"native",1,2,0,NA,NA
"1476",41,NA,1,"second",1,4,1,NA,NA
"1477",41,NA,1,"second",1,1,1,NA,NA
"1478",41,NA,1,"second",1,1,0,NA,NA
"1479",41,NA,1,"second",1,4,0,NA,NA
"1480",41,NA,1,"second",1,5,0,NA,NA
"1481",42,NA,1,"native",1,4,1,NA,NA
"1482",42,NA,1,"native",1,4,1,NA,NA
"1483",42,NA,1,"native",1,3,0,NA,NA
"1484",42,NA,1,"native",1,4,0,NA,NA
"1485",42,NA,1,"native",1,4,0,NA,NA
"1486",42,NA,1,"second",1,5,1,NA,NA
"1487",42,NA,1,"second",1,4,1,NA,NA
"1488",42,NA,1,"second",1,2,1,NA,NA
"1489",42,NA,1,"second",1,3,0,NA,NA
"1490",42,NA,1,"second",1,3,0,NA,NA
"1491",42,NA,1,"native",1,5,1,NA,NA
"1492",42,NA,1,"native",1,3,1,NA,NA
"1493",42,NA,1,"native",1,4,1,NA,NA
"1494",42,NA,1,"native",1,4,0,NA,NA
"1495",42,NA,1,"native",1,1,0,NA,NA
"1496",42,NA,1,"second",1,4,1,NA,NA
"1497",42,NA,1,"second",1,4,1,NA,NA
"1498",42,NA,1,"second",1,3,0,NA,NA
"1499",42,NA,1,"second",1,5,0,NA,NA
"1500",42,NA,1,"second",1,2,0,NA,NA
"1501",42,NA,1,"native",1,4,1,NA,NA
"1502",42,NA,1,"native",1,5,1,NA,NA
"1503",42,NA,1,"native",1,3,0,NA,NA
"1504",42,NA,1,"native",1,5,0,NA,NA
"1505",42,NA,1,"native",1,4,0,NA,NA
"1506",42,NA,1,"second",1,4,1,NA,NA
"1507",42,NA,1,"second",1,4,1,NA,NA
"1508",42,NA,1,"second",1,5,1,NA,NA
"1509",42,NA,1,"second",1,2,0,NA,NA
"1510",42,NA,1,"second",1,4,0,NA,NA
"1511",42,NA,1,"native",1,5,1,NA,NA
"1512",42,NA,1,"native",1,5,1,NA,NA
"1513",42,NA,1,"native",1,5,1,NA,NA
"1514",42,NA,1,"native",1,4,0,NA,NA
"1515",42,NA,1,"native",1,3,0,NA,NA
"1516",42,NA,1,"second",1,1,1,NA,NA
"1517",42,NA,1,"second",1,1,1,NA,NA
"1518",42,NA,1,"second",1,4,0,NA,NA
"1519",42,NA,1,"second",1,1,0,NA,NA
"1520",42,NA,1,"second",1,4,0,NA,NA
"1521",43,NA,1,"native",1,5,1,NA,NA
"1522",43,NA,1,"native",1,2,1,NA,NA
"1523",43,NA,1,"native",1,4,0,NA,NA
"1524",43,NA,1,"native",1,5,0,NA,NA
"1525",43,NA,1,"native",1,2,0,NA,NA
"1526",43,NA,1,"second",1,5,1,NA,NA
"1527",43,NA,1,"second",1,6,1,NA,NA
"1528",43,NA,1,"second",1,5,1,NA,NA
"1529",43,NA,1,"second",1,4,0,NA,NA
"1530",43,NA,1,"second",1,5,0,NA,NA
"1531",43,NA,1,"native",1,5,1,NA,NA
"1532",43,NA,1,"native",1,4,1,NA,NA
"1533",43,NA,1,"native",1,5,1,NA,NA
"1534",43,NA,1,"native",1,5,0,NA,NA
"1535",43,NA,1,"native",1,1,0,NA,NA
"1536",43,NA,1,"second",1,1,1,NA,NA
"1537",43,NA,1,"second",1,5,1,NA,NA
"1538",43,NA,1,"second",1,5,0,NA,NA
"1539",43,NA,1,"second",1,5,0,NA,NA
"1540",43,NA,1,"second",1,5,0,NA,NA
"1541",43,NA,1,"native",1,5,1,NA,NA
"1542",43,NA,1,"native",1,4,1,NA,NA
"1543",43,NA,1,"native",1,4,0,NA,NA
"1544",43,NA,1,"native",1,6,0,NA,NA
"1545",43,NA,1,"native",1,4,0,NA,NA
"1546",43,NA,1,"second",1,4,1,NA,NA
"1547",43,NA,1,"second",1,4,1,NA,NA
"1548",43,NA,1,"second",1,3,1,NA,NA
"1549",43,NA,1,"second",1,1,0,NA,NA
"1550",43,NA,1,"second",1,4,0,NA,NA
"1551",43,NA,1,"native",1,6,1,NA,NA
"1552",43,NA,1,"native",1,5,1,NA,NA
"1553",43,NA,1,"native",1,6,1,NA,NA
"1554",43,NA,1,"native",1,3,0,NA,NA
"1555",43,NA,1,"native",1,4,0,NA,NA
"1556",43,NA,1,"second",1,3,1,NA,NA
"1557",43,NA,1,"second",1,3,1,NA,NA
"1558",43,NA,1,"second",1,5,0,NA,NA
"1559",43,NA,1,"second",1,4,0,NA,NA
"1560",43,NA,1,"second",1,5,0,NA,NA
"1561",44,NA,1,"native",1,5,1,NA,NA
"1562",44,NA,1,"native",1,3,1,NA,NA
"1563",44,NA,1,"native",1,2,0,NA,NA
"1564",44,NA,1,"native",1,3,0,NA,NA
"1565",44,NA,1,"native",1,3,0,NA,NA
"1566",44,NA,1,"second",1,4,1,NA,NA
"1567",44,NA,1,"second",1,3,1,NA,NA
"1568",44,NA,1,"second",1,4,1,NA,NA
"1569",44,NA,1,"second",1,3,0,NA,NA
"1570",44,NA,1,"second",1,5,0,NA,NA
"1571",44,NA,1,"native",1,2,1,NA,NA
"1572",44,NA,1,"native",1,4,1,NA,NA
"1573",44,NA,1,"native",1,5,1,NA,NA
"1574",44,NA,1,"native",1,4,0,NA,NA
"1575",44,NA,1,"native",1,1,0,NA,NA
"1576",44,NA,1,"second",1,1,1,NA,NA
"1577",44,NA,1,"second",1,5,1,NA,NA
"1578",44,NA,1,"second",1,2,0,NA,NA
"1579",44,NA,1,"second",1,4,0,NA,NA
"1580",44,NA,1,"second",1,5,0,NA,NA
"1581",44,NA,1,"native",1,5,1,NA,NA
"1582",44,NA,1,"native",1,6,1,NA,NA
"1583",44,NA,1,"native",1,2,0,NA,NA
"1584",44,NA,1,"native",1,4,0,NA,NA
"1585",44,NA,1,"native",1,4,0,NA,NA
"1586",44,NA,1,"second",1,5,1,NA,NA
"1587",44,NA,1,"second",1,2,1,NA,NA
"1588",44,NA,1,"second",1,6,1,NA,NA
"1589",44,NA,1,"second",1,4,0,NA,NA
"1590",44,NA,1,"second",1,4,0,NA,NA
"1591",44,NA,1,"native",1,2,1,NA,NA
"1592",44,NA,1,"native",1,3,1,NA,NA
"1593",44,NA,1,"native",1,5,1,NA,NA
"1594",44,NA,1,"native",1,2,0,NA,NA
"1595",44,NA,1,"native",1,4,0,NA,NA
"1596",44,NA,1,"second",1,5,1,NA,NA
"1597",44,NA,1,"second",1,2,1,NA,NA
"1598",44,NA,1,"second",1,4,0,NA,NA
"1599",44,NA,1,"second",1,4,0,NA,NA
"1600",44,NA,1,"second",1,6,0,NA,NA
"1601",45,NA,1,"native",1,4,1,NA,NA
"1602",45,NA,1,"native",1,4,1,NA,NA
"1603",45,NA,1,"native",1,2,0,NA,NA
"1604",45,NA,1,"native",1,3,0,NA,NA
"1605",45,NA,1,"native",1,4,0,NA,NA
"1606",45,NA,1,"second",1,2,1,NA,NA
"1607",45,NA,1,"second",1,4,1,NA,NA
"1608",45,NA,1,"second",1,4,1,NA,NA
"1609",45,NA,1,"second",1,3,0,NA,NA
"1610",45,NA,1,"second",1,2,0,NA,NA
"1611",45,NA,1,"native",1,5,1,NA,NA
"1612",45,NA,1,"native",1,4,1,NA,NA
"1613",45,NA,1,"native",1,4,1,NA,NA
"1614",45,NA,1,"native",1,3,0,NA,NA
"1615",45,NA,1,"native",1,1,0,NA,NA
"1616",45,NA,1,"second",1,3,1,NA,NA
"1617",45,NA,1,"second",1,4,1,NA,NA
"1618",45,NA,1,"second",1,4,0,NA,NA
"1619",45,NA,1,"second",1,3,0,NA,NA
"1620",45,NA,1,"second",1,2,0,NA,NA
"1621",45,NA,1,"native",1,3,1,NA,NA
"1622",45,NA,1,"native",1,5,1,NA,NA
"1623",45,NA,1,"native",1,1,0,NA,NA
"1624",45,NA,1,"native",1,6,0,NA,NA
"1625",45,NA,1,"native",1,4,0,NA,NA
"1626",45,NA,1,"second",1,5,1,NA,NA
"1627",45,NA,1,"second",1,3,1,NA,NA
"1628",45,NA,1,"second",1,4,1,NA,NA
"1629",45,NA,1,"second",1,5,0,NA,NA
"1630",45,NA,1,"second",1,3,0,NA,NA
"1631",45,NA,1,"native",1,4,1,NA,NA
"1632",45,NA,1,"native",1,5,1,NA,NA
"1633",45,NA,1,"native",1,4,1,NA,NA
"1634",45,NA,1,"native",1,4,0,NA,NA
"1635",45,NA,1,"native",1,3,0,NA,NA
"1636",45,NA,1,"second",1,1,1,NA,NA
"1637",45,NA,1,"second",1,3,1,NA,NA
"1638",45,NA,1,"second",1,2,0,NA,NA
"1639",45,NA,1,"second",1,3,0,NA,NA
"1640",45,NA,1,"second",1,4,0,NA,NA
"1641",46,NA,1,"native",1,6,1,NA,NA
"1642",46,NA,1,"native",1,6,1,NA,NA
"1643",46,NA,1,"native",1,2,0,NA,NA
"1644",46,NA,1,"native",1,6,0,NA,NA
"1645",46,NA,1,"native",1,1,0,NA,NA
"1646",46,NA,1,"second",1,6,1,NA,NA
"1647",46,NA,1,"second",1,4,1,NA,NA
"1648",46,NA,1,"second",1,1,1,NA,NA
"1649",46,NA,1,"second",1,2,0,NA,NA
"1650",46,NA,1,"second",1,5,0,NA,NA
"1651",46,NA,1,"native",1,6,1,NA,NA
"1652",46,NA,1,"native",1,6,1,NA,NA
"1653",46,NA,1,"native",1,4,1,NA,NA
"1654",46,NA,1,"native",1,5,0,NA,NA
"1655",46,NA,1,"native",1,1,0,NA,NA
"1656",46,NA,1,"second",1,3,1,NA,NA
"1657",46,NA,1,"second",1,6,1,NA,NA
"1658",46,NA,1,"second",1,6,0,NA,NA
"1659",46,NA,1,"second",1,6,0,NA,NA
"1660",46,NA,1,"second",1,1,0,NA,NA
"1661",46,NA,1,"native",1,4,1,NA,NA
"1662",46,NA,1,"native",1,6,1,NA,NA
"1663",46,NA,1,"native",1,2,0,NA,NA
"1664",46,NA,1,"native",1,6,0,NA,NA
"1665",46,NA,1,"native",1,6,0,NA,NA
"1666",46,NA,1,"second",1,6,1,NA,NA
"1667",46,NA,1,"second",1,5,1,NA,NA
"1668",46,NA,1,"second",1,4,1,NA,NA
"1669",46,NA,1,"second",1,1,0,NA,NA
"1670",46,NA,1,"second",1,1,0,NA,NA
"1671",46,NA,1,"native",1,6,1,NA,NA
"1672",46,NA,1,"native",1,5,1,NA,NA
"1673",46,NA,1,"native",1,6,1,NA,NA
"1674",46,NA,1,"native",1,3,0,NA,NA
"1675",46,NA,1,"native",1,1,0,NA,NA
"1676",46,NA,1,"second",1,1,1,NA,NA
"1677",46,NA,1,"second",1,1,1,NA,NA
"1678",46,NA,1,"second",1,1,0,NA,NA
"1679",46,NA,1,"second",1,6,0,NA,NA
"1680",46,NA,1,"second",1,6,0,NA,NA
"1681",47,"a1_1",1,"second",1,5,1,NA,NA
"1682",47,"a3_3",1,"second",1,2,1,NA,NA
"1683",47,"b1_1",1,"second",1,1,0,NA,NA
"1684",47,"b1_2",1,"second",1,5,0,NA,NA
"1685",47,"b3_3",1,"second",1,1,0,NA,NA
"1686",47,"a2_1",1,"native",1,3,1,NA,NA
"1687",47,"a2_4",1,"native",1,5,1,NA,NA
"1688",47,"a4_4",1,"native",1,1,1,NA,NA
"1689",47,"b2_1",1,"native",1,3,0,NA,NA
"1690",47,"b4_4",1,"native",1,3,0,NA,NA
"1691",47,"a1_2",1,"second",1,2,1,NA,NA
"1692",47,"a3_4",1,"second",1,3,1,NA,NA
"1693",47,"a3_5",1,"second",1,4,1,NA,NA
"1694",47,"b1_3",1,"second",1,5,0,NA,NA
"1695",47,"b3_4",1,"second",1,3,0,NA,NA
"1696",47,"a2_2",1,"native",1,1,1,NA,NA
"1697",47,"a4_5",1,"native",1,4,1,NA,NA
"1698",47,"b2_2",1,"native",1,3,0,NA,NA
"1699",47,"b2_3",1,"native",1,5,0,NA,NA
"1700",47,"b4_1",1,"native",1,5,0,NA,NA
"1701",47,"a1_4",1,"second",1,4,1,NA,NA
"1702",47,"a3_1",1,"second",1,6,1,NA,NA
"1703",47,"b1_4",1,"second",1,4,0,NA,NA
"1704",47,"b3_1",1,"second",1,6,0,NA,NA
"1705",47,"b3_2",1,"second",1,2,0,NA,NA
"1706",47,"a2_3",1,"native",1,2,1,NA,NA
"1707",47,"a4_1",1,"native",1,4,1,NA,NA
"1708",47,"a4_2",1,"native",1,2,1,NA,NA
"1709",47,"b2_4",1,"native",1,2,0,NA,NA
"1710",47,"b4_2",1,"native",1,4,0,NA,NA
"1711",47,"a1_5",1,"second",1,3,1,NA,NA
"1712",47,"a1_3",1,"second",1,4,1,NA,NA
"1713",47,"a3_2",1,"second",1,4,1,NA,NA
"1714",47,"b1_5",1,"second",1,4,0,NA,NA
"1715",47,"b3_5",1,"second",1,4,0,NA,NA
"1716",47,"a2_5",1,"native",1,1,1,NA,NA
"1717",47,"a4_3",1,"native",1,1,1,NA,NA
"1718",47,"b2_5",1,"native",1,3,0,NA,NA
"1719",47,"b4_3",1,"native",1,4,0,NA,NA
"1720",47,"b4_5",1,"native",1,5,0,NA,NA
"1721",48,NA,1,"native",1,6,0,NA,NA
"1722",48,NA,1,"native",1,6,0,NA,NA
"1723",48,NA,1,"native",1,3,1,NA,NA
"1724",48,NA,1,"native",1,4,1,NA,NA
"1725",48,NA,1,"native",1,6,1,NA,NA
"1726",48,NA,1,"second",1,5,0,NA,NA
"1727",48,NA,1,"second",1,5,0,NA,NA
"1728",48,NA,1,"second",1,2,0,NA,NA
"1729",48,NA,1,"second",1,3,1,NA,NA
"1730",48,NA,1,"second",1,1,1,NA,NA
"1731",48,NA,1,"native",1,6,0,NA,NA
"1732",48,NA,1,"native",1,5,0,NA,NA
"1733",48,NA,1,"native",1,4,0,NA,NA
"1734",48,NA,1,"native",1,2,1,NA,NA
"1735",48,NA,1,"native",1,1,1,NA,NA
"1736",48,NA,1,"second",1,6,0,NA,NA
"1737",48,NA,1,"second",1,4,0,NA,NA
"1738",48,NA,1,"second",1,4,1,NA,NA
"1739",48,NA,1,"second",1,5,1,NA,NA
"1740",48,NA,1,"second",1,1,1,NA,NA
"1741",48,NA,1,"native",1,5,0,NA,NA
"1742",48,NA,1,"native",1,4,0,NA,NA
"1743",48,NA,1,"native",1,4,1,NA,NA
"1744",48,NA,1,"native",1,1,1,NA,NA
"1745",48,NA,1,"native",1,6,1,NA,NA
"1746",48,NA,1,"second",1,5,0,NA,NA
"1747",48,NA,1,"second",1,5,0,NA,NA
"1748",48,NA,1,"second",1,2,0,NA,NA
"1749",48,NA,1,"second",1,3,1,NA,NA
"1750",48,NA,1,"second",1,6,1,NA,NA
"1751",48,NA,1,"native",1,4,0,NA,NA
"1752",48,NA,1,"native",1,3,0,NA,NA
"1753",48,NA,1,"native",1,5,0,NA,NA
"1754",48,NA,1,"native",1,5,1,NA,NA
"1755",48,NA,1,"native",1,4,1,NA,NA
"1756",48,NA,1,"second",1,3,0,NA,NA
"1757",48,NA,1,"second",1,3,0,NA,NA
"1758",48,NA,1,"second",1,5,1,NA,NA
"1759",48,NA,1,"second",1,5,1,NA,NA
"1760",48,NA,1,"second",1,5,1,NA,NA
"1761",49,NA,1,"native",1,5,0,NA,NA
"1762",49,NA,1,"native",1,3,0,NA,NA
"1763",49,NA,1,"native",1,2,1,NA,NA
"1764",49,NA,1,"native",1,4,1,NA,NA
"1765",49,NA,1,"native",1,4,1,NA,NA
"1766",49,NA,1,"second",1,4,0,NA,NA
"1767",49,NA,1,"second",1,3,0,NA,NA
"1768",49,NA,1,"second",1,1,0,NA,NA
"1769",49,NA,1,"second",1,3,1,NA,NA
"1770",49,NA,1,"second",1,3,1,NA,NA
"1771",49,NA,1,"native",1,4,0,NA,NA
"1772",49,NA,1,"native",1,4,0,NA,NA
"1773",49,NA,1,"native",1,4,0,NA,NA
"1774",49,NA,1,"native",1,3,1,NA,NA
"1775",49,NA,1,"native",1,1,1,NA,NA
"1776",49,NA,1,"second",1,2,0,NA,NA
"1777",49,NA,1,"second",1,4,0,NA,NA
"1778",49,NA,1,"second",1,5,1,NA,NA
"1779",49,NA,1,"second",1,5,1,NA,NA
"1780",49,NA,1,"second",1,5,1,NA,NA
"1781",49,NA,1,"native",1,4,0,NA,NA
"1782",49,NA,1,"native",1,4,0,NA,NA
"1783",49,NA,1,"native",1,3,1,NA,NA
"1784",49,NA,1,"native",1,2,1,NA,NA
"1785",49,NA,1,"native",1,4,1,NA,NA
"1786",49,NA,1,"second",1,3,0,NA,NA
"1787",49,NA,1,"second",1,4,0,NA,NA
"1788",49,NA,1,"second",1,4,0,NA,NA
"1789",49,NA,1,"second",1,1,1,NA,NA
"1790",49,NA,1,"second",1,5,1,NA,NA
"1791",49,NA,1,"native",1,5,0,NA,NA
"1792",49,NA,1,"native",1,4,0,NA,NA
"1793",49,NA,1,"native",1,5,0,NA,NA
"1794",49,NA,1,"native",1,4,1,NA,NA
"1795",49,NA,1,"native",1,4,1,NA,NA
"1796",49,NA,1,"second",1,3,0,NA,NA
"1797",49,NA,1,"second",1,2,0,NA,NA
"1798",49,NA,1,"second",1,4,1,NA,NA
"1799",49,NA,1,"second",1,3,1,NA,NA
"1800",49,NA,1,"second",1,4,1,NA,NA
"1801",50,"a1_1",1,"second",1,5,1,NA,NA
"1802",50,"a3_3",1,"second",1,4,1,NA,NA
"1803",50,"b1_1",1,"second",1,2,0,NA,NA
"1804",50,"b1_2",1,"second",1,4,0,NA,NA
"1805",50,"b3_3",1,"second",1,4,0,NA,NA
"1806",50,"a2_1",1,"native",1,4,1,NA,NA
"1807",50,"a2_4",1,"native",1,4,1,NA,NA
"1808",50,"a4_4",1,"native",1,3,1,NA,NA
"1809",50,"b2_1",1,"native",1,3,0,NA,NA
"1810",50,"b4_4",1,"native",1,3,0,NA,NA
"1811",50,"a1_2",1,"second",1,6,1,NA,NA
"1812",50,"a3_4",1,"second",1,3,1,NA,NA
"1813",50,"a3_5",1,"second",1,4,1,NA,NA
"1814",50,"b1_3",1,"second",1,4,0,NA,NA
"1815",50,"b3_4",1,"second",1,4,0,NA,NA
"1816",50,"a2_2",1,"native",1,2,1,NA,NA
"1817",50,"a4_5",1,"native",1,3,1,NA,NA
"1818",50,"b2_2",1,"native",1,4,0,NA,NA
"1819",50,"b2_3",1,"native",1,4,0,NA,NA
"1820",50,"b4_1",1,"native",1,3,0,NA,NA
"1821",50,"a1_4",1,"second",1,4,1,NA,NA
"1822",50,"a3_1",1,"second",1,5,1,NA,NA
"1823",50,"b1_4",1,"second",1,3,0,NA,NA
"1824",50,"b3_1",1,"second",1,5,0,NA,NA
"1825",50,"b3_2",1,"second",1,3,0,NA,NA
"1826",50,"a2_3",1,"native",1,4,1,NA,NA
"1827",50,"a4_1",1,"native",1,4,1,NA,NA
"1828",50,"a4_2",1,"native",1,3,1,NA,NA
"1829",50,"b2_4",1,"native",1,4,0,NA,NA
"1830",50,"b4_2",1,"native",1,6,0,NA,NA
"1831",50,"a1_5",1,"second",1,4,1,NA,NA
"1832",50,"a1_3",1,"second",1,4,1,NA,NA
"1833",50,"a3_2",1,"second",1,4,1,NA,NA
"1834",50,"b1_5",1,"second",1,4,0,NA,NA
"1835",50,"b3_5",1,"second",1,3,0,NA,NA
"1836",50,"a2_5",1,"native",1,1,1,NA,NA
"1837",50,"a4_3",1,"native",1,2,1,NA,NA
"1838",50,"b2_5",1,"native",1,5,0,NA,NA
"1839",50,"b4_3",1,"native",1,3,0,NA,NA
"1840",50,"b4_5",1,"native",1,5,0,NA,NA
"1841",51,"a1_1",1,"second",1,6,0,NA,NA
"1842",51,"a3_3",1,"second",1,3,0,NA,NA
"1843",51,"b1_1",1,"second",1,1,1,NA,NA
"1844",51,"b1_2",1,"second",1,1,1,NA,NA
"1845",51,"b3_3",1,"second",1,1,1,NA,NA
"1846",51,"a2_1",1,"native",1,5,0,NA,NA
"1847",51,"a2_4",1,"native",1,6,0,NA,NA
"1848",51,"a4_4",1,"native",1,3,0,NA,NA
"1849",51,"b2_1",1,"native",1,3,1,NA,NA
"1850",51,"b4_4",1,"native",1,4,1,NA,NA
"1851",51,"a1_2",1,"second",1,2,0,NA,NA
"1852",51,"a3_4",1,"second",1,3,0,NA,NA
"1853",51,"a3_5",1,"second",1,3,0,NA,NA
"1854",51,"b1_3",1,"second",1,4,1,NA,NA
"1855",51,"b3_4",1,"second",1,1,1,NA,NA
"1856",51,"a2_2",1,"native",1,3,0,NA,NA
"1857",51,"a4_5",1,"native",1,6,0,NA,NA
"1858",51,"b2_2",1,"native",1,2,1,NA,NA
"1859",51,"b2_3",1,"native",1,3,1,NA,NA
"1860",51,"b4_1",1,"native",1,4,1,NA,NA
"1861",51,"a1_4",1,"second",1,2,0,NA,NA
"1862",51,"a3_1",1,"second",1,2,0,NA,NA
"1863",51,"b1_4",1,"second",1,2,1,NA,NA
"1864",51,"b3_1",1,"second",1,2,1,NA,NA
"1865",51,"b3_2",1,"second",1,1,1,NA,NA
"1866",51,"a2_3",1,"native",1,6,0,NA,NA
"1867",51,"a4_1",1,"native",1,1,0,NA,NA
"1868",51,"a4_2",1,"native",1,1,0,NA,NA
"1869",51,"b2_4",1,"native",1,1,1,NA,NA
"1870",51,"b4_2",1,"native",1,6,1,NA,NA
"1871",51,"a1_5",1,"second",1,4,0,NA,NA
"1872",51,"a1_3",1,"second",1,6,0,NA,NA
"1873",51,"a3_2",1,"second",1,3,0,NA,NA
"1874",51,"b1_5",1,"second",1,6,1,NA,NA
"1875",51,"b3_5",1,"second",1,4,1,NA,NA
"1876",51,"a2_5",1,"native",1,6,0,NA,NA
"1877",51,"a4_3",1,"native",1,1,0,NA,NA
"1878",51,"b2_5",1,"native",1,2,1,NA,NA
"1879",51,"b4_3",1,"native",1,2,1,NA,NA
"1880",51,"b4_5",1,"native",1,1,1,NA,NA
"1881",52,NA,1,"native",1,6,0,NA,NA
"1882",52,NA,1,"native",1,4,0,NA,NA
"1883",52,NA,1,"native",1,2,1,NA,NA
"1884",52,NA,1,"native",1,3,1,NA,NA
"1885",52,NA,1,"native",1,4,1,NA,NA
"1886",52,NA,1,"second",1,3,0,NA,NA
"1887",52,NA,1,"second",1,1,0,NA,NA
"1888",52,NA,1,"second",1,1,0,NA,NA
"1889",52,NA,1,"second",1,3,1,NA,NA
"1890",52,NA,1,"second",1,4,1,NA,NA
"1891",52,NA,1,"native",1,5,0,NA,NA
"1892",52,NA,1,"native",1,1,0,NA,NA
"1893",52,NA,1,"native",1,3,0,NA,NA
"1894",52,NA,1,"native",1,5,1,NA,NA
"1895",52,NA,1,"native",1,1,1,NA,NA
"1896",52,NA,1,"second",1,5,0,NA,NA
"1897",52,NA,1,"second",1,3,0,NA,NA
"1898",52,NA,1,"second",1,4,1,NA,NA
"1899",52,NA,1,"second",1,5,1,NA,NA
"1900",52,NA,1,"second",1,5,1,NA,NA
"1901",52,NA,1,"native",1,2,0,NA,NA
"1902",52,NA,1,"native",1,4,0,NA,NA
"1903",52,NA,1,"native",1,1,1,NA,NA
"1904",52,NA,1,"native",1,2,1,NA,NA
"1905",52,NA,1,"native",1,5,1,NA,NA
"1906",52,NA,1,"second",1,5,0,NA,NA
"1907",52,NA,1,"second",1,5,0,NA,NA
"1908",52,NA,1,"second",1,1,0,NA,NA
"1909",52,NA,1,"second",1,2,1,NA,NA
"1910",52,NA,1,"second",1,6,1,NA,NA
"1911",52,NA,1,"native",1,6,0,NA,NA
"1912",52,NA,1,"native",1,5,0,NA,NA
"1913",52,NA,1,"native",1,4,0,NA,NA
"1914",52,NA,1,"native",1,3,1,NA,NA
"1915",52,NA,1,"native",1,4,1,NA,NA
"1916",52,NA,1,"second",1,1,0,NA,NA
"1917",52,NA,1,"second",1,2,0,NA,NA
"1918",52,NA,1,"second",1,4,1,NA,NA
"1919",52,NA,1,"second",1,3,1,NA,NA
"1920",52,NA,1,"second",1,5,1,NA,NA
"1921",53,"a1_1",1,"second",1,6,1,NA,NA
"1922",53,"a3_3",1,"second",1,3,1,NA,NA
"1923",53,"b1_1",1,"second",1,3,0,NA,NA
"1924",53,"b1_2",1,"second",1,4,0,NA,NA
"1925",53,"b3_3",1,"second",1,3,0,NA,NA
"1926",53,"a2_1",1,"native",1,2,1,NA,NA
"1927",53,"a2_4",1,"native",1,5,1,NA,NA
"1928",53,"a4_4",1,"native",1,3,1,NA,NA
"1929",53,"b2_1",1,"native",1,3,0,NA,NA
"1930",53,"b4_4",1,"native",1,4,0,NA,NA
"1931",53,"a1_2",1,"second",1,6,1,NA,NA
"1932",53,"a3_4",1,"second",1,4,1,NA,NA
"1933",53,"a3_5",1,"second",1,3,1,NA,NA
"1934",53,"b1_3",1,"second",1,3,0,NA,NA
"1935",53,"b3_4",1,"second",1,4,0,NA,NA
"1936",53,"a2_2",1,"native",1,1,1,NA,NA
"1937",53,"a4_5",1,"native",1,4,1,NA,NA
"1938",53,"b2_2",1,"native",1,3,0,NA,NA
"1939",53,"b2_3",1,"native",1,3,0,NA,NA
"1940",53,"b4_1",1,"native",1,4,0,NA,NA
"1941",53,"a1_4",1,"second",1,5,1,NA,NA
"1942",53,"a3_1",1,"second",1,4,1,NA,NA
"1943",53,"b1_4",1,"second",1,3,0,NA,NA
"1944",53,"b3_1",1,"second",1,4,0,NA,NA
"1945",53,"b3_2",1,"second",1,4,0,NA,NA
"1946",53,"a2_3",1,"native",1,4,1,NA,NA
"1947",53,"a4_1",1,"native",1,3,1,NA,NA
"1948",53,"a4_2",1,"native",1,3,1,NA,NA
"1949",53,"b2_4",1,"native",1,3,0,NA,NA
"1950",53,"b4_2",1,"native",1,5,0,NA,NA
"1951",53,"a1_5",1,"second",1,5,1,NA,NA
"1952",53,"a1_3",1,"second",1,6,1,NA,NA
"1953",53,"a3_2",1,"second",1,3,1,NA,NA
"1954",53,"b1_5",1,"second",1,3,0,NA,NA
"1955",53,"b3_5",1,"second",1,3,0,NA,NA
"1956",53,"a2_5",1,"native",1,3,1,NA,NA
"1957",53,"a4_3",1,"native",1,3,1,NA,NA
"1958",53,"b2_5",1,"native",1,4,0,NA,NA
"1959",53,"b4_3",1,"native",1,6,0,NA,NA
"1960",53,"b4_5",1,"native",1,3,0,NA,NA
"1961",54,"a1_1",1,"second",1,5,1,NA,NA
"1962",54,"a3_3",1,"second",1,4,1,NA,NA
"1963",54,"b1_1",1,"second",1,4,0,NA,NA
"1964",54,"b1_2",1,"second",1,4,0,NA,NA
"1965",54,"b3_3",1,"second",1,4,0,NA,NA
"1966",54,"a2_1",1,"native",1,4,1,NA,NA
"1967",54,"a2_4",1,"native",1,2,1,NA,NA
"1968",54,"a4_4",1,"native",1,2,1,NA,NA
"1969",54,"b2_1",1,"native",1,3,0,NA,NA
"1970",54,"b4_4",1,"native",1,3,0,NA,NA
"1971",54,"a1_2",1,"second",1,2,1,NA,NA
"1972",54,"a3_4",1,"second",1,4,1,NA,NA
"1973",54,"a3_5",1,"second",1,5,1,NA,NA
"1974",54,"b1_3",1,"second",1,2,0,NA,NA
"1975",54,"b3_4",1,"second",1,3,0,NA,NA
"1976",54,"a2_2",1,"native",1,2,1,NA,NA
"1977",54,"a4_5",1,"native",1,4,1,NA,NA
"1978",54,"b2_2",1,"native",1,4,0,NA,NA
"1979",54,"b2_3",1,"native",1,4,0,NA,NA
"1980",54,"b4_1",1,"native",1,5,0,NA,NA
"1981",54,"a1_4",1,"second",1,4,1,NA,NA
"1982",54,"a3_1",1,"second",1,4,1,NA,NA
"1983",54,"b1_4",1,"second",1,4,0,NA,NA
"1984",54,"b3_1",1,"second",1,3,0,NA,NA
"1985",54,"b3_2",1,"second",1,4,0,NA,NA
"1986",54,"a2_3",1,"native",1,5,1,NA,NA
"1987",54,"a4_1",1,"native",1,4,1,NA,NA
"1988",54,"a4_2",1,"native",1,3,1,NA,NA
"1989",54,"b2_4",1,"native",1,1,0,NA,NA
"1990",54,"b4_2",1,"native",1,5,0,NA,NA
"1991",54,"a1_5",1,"second",1,5,1,NA,NA
"1992",54,"a1_3",1,"second",1,3,1,NA,NA
"1993",54,"a3_2",1,"second",1,4,1,NA,NA
"1994",54,"b1_5",1,"second",1,4,0,NA,NA
"1995",54,"b3_5",1,"second",1,2,0,NA,NA
"1996",54,"a2_5",1,"native",1,3,1,NA,NA
"1997",54,"a4_3",1,"native",1,2,1,NA,NA
"1998",54,"b2_5",1,"native",1,4,0,NA,NA
"1999",54,"b4_3",1,"native",1,4,0,NA,NA
"2000",54,"b4_5",1,"native",1,4,0,NA,NA
"2001",55,"a1_1",1,"second",1,5,0,NA,NA
"2002",55,"a3_3",1,"second",1,5,0,NA,NA
"2003",55,"b1_1",1,"second",1,2,1,NA,NA
"2004",55,"b1_2",1,"second",1,4,1,NA,NA
"2005",55,"b3_3",1,"second",1,5,1,NA,NA
"2006",55,"a2_1",1,"native",1,6,0,NA,NA
"2007",55,"a2_4",1,"native",1,3,0,NA,NA
"2008",55,"a4_4",1,"native",1,6,0,NA,NA
"2009",55,"b2_1",1,"native",1,3,1,NA,NA
"2010",55,"b4_4",1,"native",1,4,1,NA,NA
"2011",55,"a1_2",1,"second",1,1,0,NA,NA
"2012",55,"a3_4",1,"second",1,3,0,NA,NA
"2013",55,"a3_5",1,"second",1,5,0,NA,NA
"2014",55,"b1_3",1,"second",1,3,1,NA,NA
"2015",55,"b3_4",1,"second",1,1,1,NA,NA
"2016",55,"a2_2",1,"native",1,1,0,NA,NA
"2017",55,"a4_5",1,"native",1,3,0,NA,NA
"2018",55,"b2_2",1,"native",1,1,1,NA,NA
"2019",55,"b2_3",1,"native",1,6,1,NA,NA
"2020",55,"b4_1",1,"native",1,3,1,NA,NA
"2021",55,"a1_4",1,"second",1,4,0,NA,NA
"2022",55,"a3_1",1,"second",1,6,0,NA,NA
"2023",55,"b1_4",1,"second",1,4,1,NA,NA
"2024",55,"b3_1",1,"second",1,3,1,NA,NA
"2025",55,"b3_2",1,"second",1,2,1,NA,NA
"2026",55,"a2_3",1,"native",1,3,0,NA,NA
"2027",55,"a4_1",1,"native",1,3,0,NA,NA
"2028",55,"a4_2",1,"native",1,4,0,NA,NA
"2029",55,"b2_4",1,"native",1,1,1,NA,NA
"2030",55,"b4_2",1,"native",1,1,1,NA,NA
"2031",55,"a1_5",1,"second",1,5,0,NA,NA
"2032",55,"a1_3",1,"second",1,3,0,NA,NA
"2033",55,"a3_2",1,"second",1,1,0,NA,NA
"2034",55,"b1_5",1,"second",1,2,1,NA,NA
"2035",55,"b3_5",1,"second",1,3,1,NA,NA
"2036",55,"a2_5",1,"native",1,5,0,NA,NA
"2037",55,"a4_3",1,"native",1,2,0,NA,NA
"2038",55,"b2_5",1,"native",1,5,1,NA,NA
"2039",55,"b4_3",1,"native",1,3,1,NA,NA
"2040",55,"b4_5",1,"native",1,3,1,NA,NA
"2041",56,"a1_1",1,"second",1,2,0,NA,NA
"2042",56,"a3_3",1,"second",1,1,0,NA,NA
"2043",56,"b1_1",1,"second",1,1,1,NA,NA
"2044",56,"b1_2",1,"second",1,4,1,NA,NA
"2045",56,"b3_3",1,"second",1,5,1,NA,NA
"2046",56,"a2_1",1,"native",1,4,0,NA,NA
"2047",56,"a2_4",1,"native",1,6,0,NA,NA
"2048",56,"a4_4",1,"native",1,6,0,NA,NA
"2049",56,"b2_1",1,"native",1,2,1,NA,NA
"2050",56,"b4_4",1,"native",1,4,1,NA,NA
"2051",56,"a1_2",1,"second",1,1,0,NA,NA
"2052",56,"a3_4",1,"second",1,2,0,NA,NA
"2053",56,"a3_5",1,"second",1,2,0,NA,NA
"2054",56,"b1_3",1,"second",1,5,1,NA,NA
"2055",56,"b3_4",1,"second",1,1,1,NA,NA
"2056",56,"a2_2",1,"native",1,6,0,NA,NA
"2057",56,"a4_5",1,"native",1,4,0,NA,NA
"2058",56,"b2_2",1,"native",1,6,1,NA,NA
"2059",56,"b2_3",1,"native",1,3,1,NA,NA
"2060",56,"b4_1",1,"native",1,6,1,NA,NA
"2061",56,"a1_4",1,"second",1,6,0,NA,NA
"2062",56,"a3_1",1,"second",1,6,0,NA,NA
"2063",56,"b1_4",1,"second",1,4,1,NA,NA
"2064",56,"b3_1",1,"second",1,4,1,NA,NA
"2065",56,"b3_2",1,"second",1,6,1,NA,NA
"2066",56,"a2_3",1,"native",1,6,0,NA,NA
"2067",56,"a4_1",1,"native",1,3,0,NA,NA
"2068",56,"a4_2",1,"native",1,3,0,NA,NA
"2069",56,"b2_4",1,"native",1,4,1,NA,NA
"2070",56,"b4_2",1,"native",1,4,1,NA,NA
"2071",56,"a1_5",1,"second",1,6,0,NA,NA
"2072",56,"a1_3",1,"second",1,4,0,NA,NA
"2073",56,"a3_2",1,"second",1,4,0,NA,NA
"2074",56,"b1_5",1,"second",1,5,1,NA,NA
"2075",56,"b3_5",1,"second",1,6,1,NA,NA
"2076",56,"a2_5",1,"native",1,6,0,NA,NA
"2077",56,"a4_3",1,"native",1,1,0,NA,NA
"2078",56,"b2_5",1,"native",1,4,1,NA,NA
"2079",56,"b4_3",1,"native",1,3,1,NA,NA
"2080",56,"b4_5",1,"native",1,4,1,NA,NA
"2081",57,"a1_1",1,"second",1,5,1,NA,NA
"2082",57,"a3_3",1,"second",1,4,1,NA,NA
"2083",57,"b1_1",1,"second",1,3,0,NA,NA
"2084",57,"b1_2",1,"second",1,4,0,NA,NA
"2085",57,"b3_3",1,"second",1,5,0,NA,NA
"2086",57,"a2_1",1,"native",1,5,1,NA,NA
"2087",57,"a2_4",1,"native",1,5,1,NA,NA
"2088",57,"a4_4",1,"native",1,3,1,NA,NA
"2089",57,"b2_1",1,"native",1,3,0,NA,NA
"2090",57,"b4_4",1,"native",1,4,0,NA,NA
"2091",57,"a1_2",1,"second",1,3,1,NA,NA
"2092",57,"a3_4",1,"second",1,2,1,NA,NA
"2093",57,"a3_5",1,"second",1,5,1,NA,NA
"2094",57,"b1_3",1,"second",1,3,0,NA,NA
"2095",57,"b3_4",1,"second",1,4,0,NA,NA
"2096",57,"a2_2",1,"native",1,2,1,NA,NA
"2097",57,"a4_5",1,"native",1,3,1,NA,NA
"2098",57,"b2_2",1,"native",1,2,0,NA,NA
"2099",57,"b2_3",1,"native",1,5,0,NA,NA
"2100",57,"b4_1",1,"native",1,3,0,NA,NA
"2101",57,"a1_4",1,"second",1,6,1,NA,NA
"2102",57,"a3_1",1,"second",1,5,1,NA,NA
"2103",57,"b1_4",1,"second",1,3,0,NA,NA
"2104",57,"b3_1",1,"second",1,3,0,NA,NA
"2105",57,"b3_2",1,"second",1,4,0,NA,NA
"2106",57,"a2_3",1,"native",1,6,1,NA,NA
"2107",57,"a4_1",1,"native",1,2,1,NA,NA
"2108",57,"a4_2",1,"native",1,2,1,NA,NA
"2109",57,"b2_4",1,"native",1,5,0,NA,NA
"2110",57,"b4_2",1,"native",1,5,0,NA,NA
"2111",57,"a1_5",1,"second",1,3,1,NA,NA
"2112",57,"a1_3",1,"second",1,5,1,NA,NA
"2113",57,"a3_2",1,"second",1,4,1,NA,NA
"2114",57,"b1_5",1,"second",1,2,0,NA,NA
"2115",57,"b3_5",1,"second",1,4,0,NA,NA
"2116",57,"a2_5",1,"native",1,5,1,NA,NA
"2117",57,"a4_3",1,"native",1,3,1,NA,NA
"2118",57,"b2_5",1,"native",1,4,0,NA,NA
"2119",57,"b4_3",1,"native",1,5,0,NA,NA
"2120",57,"b4_5",1,"native",1,5,0,NA,NA
"2121",58,"a1_1",1,"second",1,4,1,NA,NA
"2122",58,"a3_3",1,"second",1,1,1,NA,NA
"2123",58,"b1_1",1,"second",1,1,0,NA,NA
"2124",58,"b1_2",1,"second",1,3,0,NA,NA
"2125",58,"b3_3",1,"second",1,4,0,NA,NA
"2126",58,"a2_1",1,"native",1,4,1,NA,NA
"2127",58,"a2_4",1,"native",1,4,1,NA,NA
"2128",58,"a4_4",1,"native",1,1,1,NA,NA
"2129",58,"b2_1",1,"native",1,3,0,NA,NA
"2130",58,"b4_4",1,"native",1,3,0,NA,NA
"2131",58,"a1_2",1,"second",1,1,1,NA,NA
"2132",58,"a3_4",1,"second",1,3,1,NA,NA
"2133",58,"a3_5",1,"second",1,3,1,NA,NA
"2134",58,"b1_3",1,"second",1,3,0,NA,NA
"2135",58,"b3_4",1,"second",1,3,0,NA,NA
"2136",58,"a2_2",1,"native",1,2,1,NA,NA
"2137",58,"a4_5",1,"native",1,3,1,NA,NA
"2138",58,"b2_2",1,"native",1,3,0,NA,NA
"2139",58,"b2_3",1,"native",1,4,0,NA,NA
"2140",58,"b4_1",1,"native",1,4,0,NA,NA
"2141",58,"a1_4",1,"second",1,3,1,NA,NA
"2142",58,"a3_1",1,"second",1,5,1,NA,NA
"2143",58,"b1_4",1,"second",1,6,0,NA,NA
"2144",58,"b3_1",1,"second",1,3,0,NA,NA
"2145",58,"b3_2",1,"second",1,3,0,NA,NA
"2146",58,"a2_3",1,"native",1,4,1,NA,NA
"2147",58,"a4_1",1,"native",1,3,1,NA,NA
"2148",58,"a4_2",1,"native",1,3,1,NA,NA
"2149",58,"b2_4",1,"native",1,3,0,NA,NA
"2150",58,"b4_2",1,"native",1,3,0,NA,NA
"2151",58,"a1_5",1,"second",1,3,1,NA,NA
"2152",58,"a1_3",1,"second",1,3,1,NA,NA
"2153",58,"a3_2",1,"second",1,2,1,NA,NA
"2154",58,"b1_5",1,"second",1,5,0,NA,NA
"2155",58,"b3_5",1,"second",1,4,0,NA,NA
"2156",58,"a2_5",1,"native",1,1,1,NA,NA
"2157",58,"a4_3",1,"native",1,3,1,NA,NA
"2158",58,"b2_5",1,"native",1,3,0,NA,NA
"2159",58,"b4_3",1,"native",1,3,0,NA,NA
"2160",58,"b4_5",1,"native",1,3,0,NA,NA
"2161",59,"a1_1",1,"second",1,6,0,NA,NA
"2162",59,"a3_3",1,"second",1,3,0,NA,NA
"2163",59,"b1_1",1,"second",1,1,1,NA,NA
"2164",59,"b1_2",1,"second",1,5,1,NA,NA
"2165",59,"b3_3",1,"second",1,4,1,NA,NA
"2166",59,"a2_1",1,"native",1,6,0,NA,NA
"2167",59,"a2_4",1,"native",1,5,0,NA,NA
"2168",59,"a4_4",1,"native",1,2,0,NA,NA
"2169",59,"b2_1",1,"native",1,4,1,NA,NA
"2170",59,"b4_4",1,"native",1,1,1,NA,NA
"2171",59,"a1_2",1,"second",1,5,0,NA,NA
"2172",59,"a3_4",1,"second",1,3,0,NA,NA
"2173",59,"a3_5",1,"second",1,5,0,NA,NA
"2174",59,"b1_3",1,"second",1,6,1,NA,NA
"2175",59,"b3_4",1,"second",1,4,1,NA,NA
"2176",59,"a2_2",1,"native",1,4,0,NA,NA
"2177",59,"a4_5",1,"native",1,3,0,NA,NA
"2178",59,"b2_2",1,"native",1,3,1,NA,NA
"2179",59,"b2_3",1,"native",1,1,1,NA,NA
"2180",59,"b4_1",1,"native",1,5,1,NA,NA
"2181",59,"a1_4",1,"second",1,4,0,NA,NA
"2182",59,"a3_1",1,"second",1,5,0,NA,NA
"2183",59,"b1_4",1,"second",1,4,1,NA,NA
"2184",59,"b3_1",1,"second",1,3,1,NA,NA
"2185",59,"b3_2",1,"second",1,6,1,NA,NA
"2186",59,"a2_3",1,"native",1,5,0,NA,NA
"2187",59,"a4_1",1,"native",1,3,0,NA,NA
"2188",59,"a4_2",1,"native",1,2,0,NA,NA
"2189",59,"b2_4",1,"native",1,1,1,NA,NA
"2190",59,"b4_2",1,"native",1,1,1,NA,NA
"2191",59,"a1_5",1,"second",1,6,0,NA,NA
"2192",59,"a1_3",1,"second",1,6,0,NA,NA
"2193",59,"a3_2",1,"second",1,6,0,NA,NA
"2194",59,"b1_5",1,"second",1,2,1,NA,NA
"2195",59,"b3_5",1,"second",1,4,1,NA,NA
"2196",59,"a2_5",1,"native",1,1,0,NA,NA
"2197",59,"a4_3",1,"native",1,1,0,NA,NA
"2198",59,"b2_5",1,"native",1,4,1,NA,NA
"2199",59,"b4_3",1,"native",1,4,1,NA,NA
"2200",59,"b4_5",1,"native",1,5,1,NA,NA
"2201",61,NA,1,"native",1,5,0,NA,NA
"2202",61,NA,1,"native",1,4,0,NA,NA
"2203",61,NA,1,"native",1,2,1,NA,NA
"2204",61,NA,1,"native",1,2,1,NA,NA
"2205",61,NA,1,"native",1,5,1,NA,NA
"2206",61,NA,1,"second",1,4,0,NA,NA
"2207",61,NA,1,"second",1,3,0,NA,NA
"2208",61,NA,1,"second",1,2,0,NA,NA
"2209",61,NA,1,"second",1,1,1,NA,NA
"2210",61,NA,1,"second",1,4,1,NA,NA
"2211",61,NA,1,"native",1,2,0,NA,NA
"2212",61,NA,1,"native",1,4,0,NA,NA
"2213",61,NA,1,"native",1,4,0,NA,NA
"2214",61,NA,1,"native",1,5,1,NA,NA
"2215",61,NA,1,"native",1,2,1,NA,NA
"2216",61,NA,1,"second",1,2,0,NA,NA
"2217",61,NA,1,"second",1,4,0,NA,NA
"2218",61,NA,1,"second",1,5,1,NA,NA
"2219",61,NA,1,"second",1,4,1,NA,NA
"2220",61,NA,1,"second",1,2,1,NA,NA
"2221",61,NA,1,"native",1,5,0,NA,NA
"2222",61,NA,1,"native",1,5,0,NA,NA
"2223",61,NA,1,"native",1,5,1,NA,NA
"2224",61,NA,1,"native",1,6,1,NA,NA
"2225",61,NA,1,"native",1,4,1,NA,NA
"2226",61,NA,1,"second",1,4,0,NA,NA
"2227",61,NA,1,"second",1,4,0,NA,NA
"2228",61,NA,1,"second",1,4,0,NA,NA
"2229",61,NA,1,"second",1,1,1,NA,NA
"2230",61,NA,1,"second",1,4,1,NA,NA
"2231",61,NA,1,"native",1,3,0,NA,NA
"2232",61,NA,1,"native",1,2,0,NA,NA
"2233",61,NA,1,"native",1,6,0,NA,NA
"2234",61,NA,1,"native",1,3,1,NA,NA
"2235",61,NA,1,"native",1,5,1,NA,NA
"2236",61,NA,1,"second",1,1,0,NA,NA
"2237",61,NA,1,"second",1,3,0,NA,NA
"2238",61,NA,1,"second",1,3,1,NA,NA
"2239",61,NA,1,"second",1,4,1,NA,NA
"2240",61,NA,1,"second",1,5,1,NA,NA
"2241",62,NA,1,"native",1,4,0,NA,NA
"2242",62,NA,1,"native",1,2,0,NA,NA
"2243",62,NA,1,"native",1,2,1,NA,NA
"2244",62,NA,1,"native",1,4,1,NA,NA
"2245",62,NA,1,"native",1,4,1,NA,NA
"2246",62,NA,1,"second",1,4,0,NA,NA
"2247",62,NA,1,"second",1,3,0,NA,NA
"2248",62,NA,1,"second",1,3,0,NA,NA
"2249",62,NA,1,"second",1,4,1,NA,NA
"2250",62,NA,1,"second",1,3,1,NA,NA
"2251",62,NA,1,"native",1,4,0,NA,NA
"2252",62,NA,1,"native",1,3,0,NA,NA
"2253",62,NA,1,"native",1,4,0,NA,NA
"2254",62,NA,1,"native",1,4,1,NA,NA
"2255",62,NA,1,"native",1,2,1,NA,NA
"2256",62,NA,1,"second",1,4,0,NA,NA
"2257",62,NA,1,"second",1,4,0,NA,NA
"2258",62,NA,1,"second",1,4,1,NA,NA
"2259",62,NA,1,"second",1,3,1,NA,NA
"2260",62,NA,1,"second",1,4,1,NA,NA
"2261",62,NA,1,"native",1,5,0,NA,NA
"2262",62,NA,1,"native",1,2,0,NA,NA
"2263",62,NA,1,"native",1,3,1,NA,NA
"2264",62,NA,1,"native",1,3,1,NA,NA
"2265",62,NA,1,"native",1,4,1,NA,NA
"2266",62,NA,1,"second",1,3,0,NA,NA
"2267",62,NA,1,"second",1,4,0,NA,NA
"2268",62,NA,1,"second",1,4,0,NA,NA
"2269",62,NA,1,"second",1,4,1,NA,NA
"2270",62,NA,1,"second",1,4,1,NA,NA
"2271",62,NA,1,"native",1,4,0,NA,NA
"2272",62,NA,1,"native",1,4,0,NA,NA
"2273",62,NA,1,"native",1,3,0,NA,NA
"2274",62,NA,1,"native",1,4,1,NA,NA
"2275",62,NA,1,"native",1,4,1,NA,NA
"2276",62,NA,1,"second",1,4,0,NA,NA
"2277",62,NA,1,"second",1,4,0,NA,NA
"2278",62,NA,1,"second",1,4,1,NA,NA
"2279",62,NA,1,"second",1,4,1,NA,NA
"2280",62,NA,1,"second",1,3,1,NA,NA
"2281",63,NA,1,"native",1,2,1,NA,NA
"2282",63,NA,1,"native",1,3,1,NA,NA
"2283",63,NA,1,"native",1,3,0,NA,NA
"2284",63,NA,1,"native",1,4,0,NA,NA
"2285",63,NA,1,"native",1,4,0,NA,NA
"2286",63,NA,1,"second",1,3,1,NA,NA
"2287",63,NA,1,"second",1,3,1,NA,NA
"2288",63,NA,1,"second",1,3,1,NA,NA
"2289",63,NA,1,"second",1,3,0,NA,NA
"2290",63,NA,1,"second",1,4,0,NA,NA
"2291",63,NA,1,"native",1,3,1,NA,NA
"2292",63,NA,1,"native",1,3,1,NA,NA
"2293",63,NA,1,"native",1,4,1,NA,NA
"2294",63,NA,1,"native",1,5,0,NA,NA
"2295",63,NA,1,"native",1,2,0,NA,NA
"2296",63,NA,1,"second",1,3,1,NA,NA
"2297",63,NA,1,"second",1,5,1,NA,NA
"2298",63,NA,1,"second",1,4,0,NA,NA
"2299",63,NA,1,"second",1,3,0,NA,NA
"2300",63,NA,1,"second",1,4,0,NA,NA
"2301",63,NA,1,"native",1,5,1,NA,NA
"2302",63,NA,1,"native",1,5,1,NA,NA
"2303",63,NA,1,"native",1,3,0,NA,NA
"2304",63,NA,1,"native",1,4,0,NA,NA
"2305",63,NA,1,"native",1,3,0,NA,NA
"2306",63,NA,1,"second",1,4,1,NA,NA
"2307",63,NA,1,"second",1,4,1,NA,NA
"2308",63,NA,1,"second",1,5,1,NA,NA
"2309",63,NA,1,"second",1,3,0,NA,NA
"2310",63,NA,1,"second",1,3,0,NA,NA
"2311",63,NA,1,"native",1,2,1,NA,NA
"2312",63,NA,1,"native",1,4,1,NA,NA
"2313",63,NA,1,"native",1,4,1,NA,NA
"2314",63,NA,1,"native",1,5,0,NA,NA
"2315",63,NA,1,"native",1,2,0,NA,NA
"2316",63,NA,1,"second",1,1,1,NA,NA
"2317",63,NA,1,"second",1,2,1,NA,NA
"2318",63,NA,1,"second",1,5,0,NA,NA
"2319",63,NA,1,"second",1,3,0,NA,NA
"2320",63,NA,1,"second",1,3,0,NA,NA
"2321",64,"a1_1",1,"second",1,4,0,NA,NA
"2322",64,"a3_3",1,"second",1,4,0,NA,NA
"2323",64,"b1_1",1,"second",1,5,1,NA,NA
"2324",64,"b1_2",1,"second",1,4,1,NA,NA
"2325",64,"b3_3",1,"second",1,4,1,NA,NA
"2326",64,"a2_1",1,"native",1,4,0,NA,NA
"2327",64,"a2_4",1,"native",1,5,0,NA,NA
"2328",64,"a4_4",1,"native",1,4,0,NA,NA
"2329",64,"b2_1",1,"native",1,3,1,NA,NA
"2330",64,"b4_4",1,"native",1,5,1,NA,NA
"2331",64,"a1_2",1,"second",1,4,0,NA,NA
"2332",64,"a3_4",1,"second",1,4,0,NA,NA
"2333",64,"a3_5",1,"second",1,4,0,NA,NA
"2334",64,"b1_3",1,"second",1,4,1,NA,NA
"2335",64,"b3_4",1,"second",1,4,1,NA,NA
"2336",64,"a2_2",1,"native",1,4,0,NA,NA
"2337",64,"a4_5",1,"native",1,4,0,NA,NA
"2338",64,"b2_2",1,"native",1,4,1,NA,NA
"2339",64,"b2_3",1,"native",1,5,1,NA,NA
"2340",64,"b4_1",1,"native",1,5,1,NA,NA
"2341",64,"a1_4",1,"second",1,5,0,NA,NA
"2342",64,"a3_1",1,"second",1,5,0,NA,NA
"2343",64,"b1_4",1,"second",1,5,1,NA,NA
"2344",64,"b3_1",1,"second",1,4,1,NA,NA
"2345",64,"b3_2",1,"second",1,5,1,NA,NA
"2346",64,"a2_3",1,"native",1,4,0,NA,NA
"2347",64,"a4_1",1,"native",1,4,0,NA,NA
"2348",64,"a4_2",1,"native",1,4,0,NA,NA
"2349",64,"b2_4",1,"native",1,4,1,NA,NA
"2350",64,"b4_2",1,"native",1,4,1,NA,NA
"2351",64,"a1_5",1,"second",1,4,0,NA,NA
"2352",64,"a1_3",1,"second",1,4,0,NA,NA
"2353",64,"a3_2",1,"second",1,4,0,NA,NA
"2354",64,"b1_5",1,"second",1,4,1,NA,NA
"2355",64,"b3_5",1,"second",1,4,1,NA,NA
"2356",64,"a2_5",1,"native",1,4,0,NA,NA
"2357",64,"a4_3",1,"native",1,4,0,NA,NA
"2358",64,"b2_5",1,"native",1,4,1,NA,NA
"2359",64,"b4_3",1,"native",1,4,1,NA,NA
"2360",64,"b4_5",1,"native",1,4,1,NA,NA
"2361",65,NA,1,"native",1,2,0,NA,NA
"2362",65,NA,1,"native",1,4,0,NA,NA
"2363",65,NA,1,"native",1,2,1,NA,NA
"2364",65,NA,1,"native",1,5,1,NA,NA
"2365",65,NA,1,"native",1,5,1,NA,NA
"2366",65,NA,1,"second",1,4,0,NA,NA
"2367",65,NA,1,"second",1,6,0,NA,NA
"2368",65,NA,1,"second",1,3,0,NA,NA
"2369",65,NA,1,"second",1,3,1,NA,NA
"2370",65,NA,1,"second",1,2,1,NA,NA
"2371",65,NA,1,"native",1,5,0,NA,NA
"2372",65,NA,1,"native",1,5,0,NA,NA
"2373",65,NA,1,"native",1,3,0,NA,NA
"2374",65,NA,1,"native",1,2,1,NA,NA
"2375",65,NA,1,"native",1,3,1,NA,NA
"2376",65,NA,1,"second",1,2,0,NA,NA
"2377",65,NA,1,"second",1,5,0,NA,NA
"2378",65,NA,1,"second",1,5,1,NA,NA
"2379",65,NA,1,"second",1,5,1,NA,NA
"2380",65,NA,1,"second",1,5,1,NA,NA
"2381",65,NA,1,"native",1,3,0,NA,NA
"2382",65,NA,1,"native",1,3,0,NA,NA
"2383",65,NA,1,"native",1,5,1,NA,NA
"2384",65,NA,1,"native",1,2,1,NA,NA
"2385",65,NA,1,"native",1,5,1,NA,NA
"2386",65,NA,1,"second",1,2,0,NA,NA
"2387",65,NA,1,"second",1,2,0,NA,NA
"2388",65,NA,1,"second",1,4,0,NA,NA
"2389",65,NA,1,"second",1,3,1,NA,NA
"2390",65,NA,1,"second",1,3,1,NA,NA
"2391",65,NA,1,"native",1,5,0,NA,NA
"2392",65,NA,1,"native",1,2,0,NA,NA
"2393",65,NA,1,"native",1,4,0,NA,NA
"2394",65,NA,1,"native",1,4,1,NA,NA
"2395",65,NA,1,"native",1,5,1,NA,NA
"2396",65,NA,1,"second",1,5,0,NA,NA
"2397",65,NA,1,"second",1,1,0,NA,NA
"2398",65,NA,1,"second",1,5,1,NA,NA
"2399",65,NA,1,"second",1,4,1,NA,NA
"2400",65,NA,1,"second",1,4,1,NA,NA
"2401",66,NA,1,"native",1,6,0,NA,NA
"2402",66,NA,1,"native",1,4,0,NA,NA
"2403",66,NA,1,"native",1,4,1,NA,NA
"2404",66,NA,1,"native",1,5,1,NA,NA
"2405",66,NA,1,"native",1,1,1,NA,NA
"2406",66,NA,1,"second",1,3,0,NA,NA
"2407",66,NA,1,"second",1,3,0,NA,NA
"2408",66,NA,1,"second",1,2,0,NA,NA
"2409",66,NA,1,"second",1,5,1,NA,NA
"2410",66,NA,1,"second",1,4,1,NA,NA
"2411",66,NA,1,"native",1,2,0,NA,NA
"2412",66,NA,1,"native",1,2,0,NA,NA
"2413",66,NA,1,"native",1,3,0,NA,NA
"2414",66,NA,1,"native",1,5,1,NA,NA
"2415",66,NA,1,"native",1,1,1,NA,NA
"2416",66,NA,1,"second",1,6,0,NA,NA
"2417",66,NA,1,"second",1,4,0,NA,NA
"2418",66,NA,1,"second",1,3,1,NA,NA
"2419",66,NA,1,"second",1,6,1,NA,NA
"2420",66,NA,1,"second",1,4,1,NA,NA
"2421",66,NA,1,"native",1,4,0,NA,NA
"2422",66,NA,1,"native",1,4,0,NA,NA
"2423",66,NA,1,"native",1,4,1,NA,NA
"2424",66,NA,1,"native",1,5,1,NA,NA
"2425",66,NA,1,"native",1,5,1,NA,NA
"2426",66,NA,1,"second",1,3,0,NA,NA
"2427",66,NA,1,"second",1,4,0,NA,NA
"2428",66,NA,1,"second",1,3,0,NA,NA
"2429",66,NA,1,"second",1,1,1,NA,NA
"2430",66,NA,1,"second",1,4,1,NA,NA
"2431",66,NA,1,"native",1,5,0,NA,NA
"2432",66,NA,1,"native",1,5,0,NA,NA
"2433",66,NA,1,"native",1,3,0,NA,NA
"2434",66,NA,1,"native",1,5,1,NA,NA
"2435",66,NA,1,"native",1,5,1,NA,NA
"2436",66,NA,1,"second",1,5,0,NA,NA
"2437",66,NA,1,"second",1,2,0,NA,NA
"2438",66,NA,1,"second",1,4,1,NA,NA
"2439",66,NA,1,"second",1,5,1,NA,NA
"2440",66,NA,1,"second",1,6,1,NA,NA
"2441",67,NA,1,"native",1,5,0,NA,NA
"2442",67,NA,1,"native",1,3,0,NA,NA
"2443",67,NA,1,"native",1,2,1,NA,NA
"2444",67,NA,1,"native",1,6,1,NA,NA
"2445",67,NA,1,"native",1,5,1,NA,NA
"2446",67,NA,1,"second",1,4,0,NA,NA
"2447",67,NA,1,"second",1,5,0,NA,NA
"2448",67,NA,1,"second",1,5,0,NA,NA
"2449",67,NA,1,"second",1,1,1,NA,NA
"2450",67,NA,1,"second",1,5,1,NA,NA
"2451",67,NA,1,"native",1,1,0,NA,NA
"2452",67,NA,1,"native",1,1,0,NA,NA
"2453",67,NA,1,"native",1,5,0,NA,NA
"2454",67,NA,1,"native",1,5,1,NA,NA
"2455",67,NA,1,"native",1,5,1,NA,NA
"2456",67,NA,1,"second",1,1,0,NA,NA
"2457",67,NA,1,"second",1,4,0,NA,NA
"2458",67,NA,1,"second",1,2,1,NA,NA
"2459",67,NA,1,"second",1,5,1,NA,NA
"2460",67,NA,1,"second",1,5,1,NA,NA
"2461",67,NA,1,"native",1,4,0,NA,NA
"2462",67,NA,1,"native",1,5,0,NA,NA
"2463",67,NA,1,"native",1,6,1,NA,NA
"2464",67,NA,1,"native",1,2,1,NA,NA
"2465",67,NA,1,"native",1,3,1,NA,NA
"2466",67,NA,1,"second",1,5,0,NA,NA
"2467",67,NA,1,"second",1,4,0,NA,NA
"2468",67,NA,1,"second",1,5,0,NA,NA
"2469",67,NA,1,"second",1,4,1,NA,NA
"2470",67,NA,1,"second",1,5,1,NA,NA
"2471",67,NA,1,"native",1,6,0,NA,NA
"2472",67,NA,1,"native",1,5,0,NA,NA
"2473",67,NA,1,"native",1,6,0,NA,NA
"2474",67,NA,1,"native",1,5,1,NA,NA
"2475",67,NA,1,"native",1,4,1,NA,NA
"2476",67,NA,1,"second",1,1,0,NA,NA
"2477",67,NA,1,"second",1,4,0,NA,NA
"2478",67,NA,1,"second",1,4,1,NA,NA
"2479",67,NA,1,"second",1,3,1,NA,NA
"2480",67,NA,1,"second",1,6,1,NA,NA
"2481",68,NA,1,"native",1,6,0,NA,NA
"2482",68,NA,1,"native",1,5,0,NA,NA
"2483",68,NA,1,"native",1,2,1,NA,NA
"2484",68,NA,1,"native",1,6,1,NA,NA
"2485",68,NA,1,"native",1,3,1,NA,NA
"2486",68,NA,1,"second",1,6,0,NA,NA
"2487",68,NA,1,"second",1,6,0,NA,NA
"2488",68,NA,1,"second",1,1,0,NA,NA
"2489",68,NA,1,"second",1,1,1,NA,NA
"2490",68,NA,1,"second",1,1,1,NA,NA
"2491",68,NA,1,"native",1,1,0,NA,NA
"2492",68,NA,1,"native",1,1,0,NA,NA
"2493",68,NA,1,"native",1,6,0,NA,NA
"2494",68,NA,1,"native",1,6,1,NA,NA
"2495",68,NA,1,"native",1,1,1,NA,NA
"2496",68,NA,1,"second",1,1,0,NA,NA
"2497",68,NA,1,"second",1,6,0,NA,NA
"2498",68,NA,1,"second",1,6,1,NA,NA
"2499",68,NA,1,"second",1,6,1,NA,NA
"2500",68,NA,1,"second",1,6,1,NA,NA
"2501",68,NA,1,"native",1,6,0,NA,NA
"2502",68,NA,1,"native",1,3,0,NA,NA
"2503",68,NA,1,"native",1,6,1,NA,NA
"2504",68,NA,1,"native",1,6,1,NA,NA
"2505",68,NA,1,"native",1,6,1,NA,NA
"2506",68,NA,1,"second",1,6,0,NA,NA
"2507",68,NA,1,"second",1,1,0,NA,NA
"2508",68,NA,1,"second",1,6,0,NA,NA
"2509",68,NA,1,"second",1,1,1,NA,NA
"2510",68,NA,1,"second",1,6,1,NA,NA
"2511",68,NA,1,"native",1,6,0,NA,NA
"2512",68,NA,1,"native",1,6,0,NA,NA
"2513",68,NA,1,"native",1,4,0,NA,NA
"2514",68,NA,1,"native",1,6,1,NA,NA
"2515",68,NA,1,"native",1,6,1,NA,NA
"2516",68,NA,1,"second",1,6,0,NA,NA
"2517",68,NA,1,"second",1,1,0,NA,NA
"2518",68,NA,1,"second",1,6,1,NA,NA
"2519",68,NA,1,"second",1,6,1,NA,NA
"2520",68,NA,1,"second",1,3,1,NA,NA
"2521",69,NA,1,"native",1,5,1,NA,NA
"2522",69,NA,1,"native",1,3,1,NA,NA
"2523",69,NA,1,"native",1,3,0,NA,NA
"2524",69,NA,1,"native",1,1,0,NA,NA
"2525",69,NA,1,"native",1,3,0,NA,NA
"2526",69,NA,1,"second",1,3,1,NA,NA
"2527",69,NA,1,"second",1,3,1,NA,NA
"2528",69,NA,1,"second",1,1,1,NA,NA
"2529",69,NA,1,"second",1,3,0,NA,NA
"2530",69,NA,1,"second",1,3,0,NA,NA
"2531",69,NA,1,"native",1,2,1,NA,NA
"2532",69,NA,1,"native",1,2,1,NA,NA
"2533",69,NA,1,"native",1,3,1,NA,NA
"2534",69,NA,1,"native",1,3,0,NA,NA
"2535",69,NA,1,"native",1,2,0,NA,NA
"2536",69,NA,1,"second",1,2,1,NA,NA
"2537",69,NA,1,"second",1,3,1,NA,NA
"2538",69,NA,1,"second",1,3,0,NA,NA
"2539",69,NA,1,"second",1,3,0,NA,NA
"2540",69,NA,1,"second",1,3,0,NA,NA
"2541",69,NA,1,"native",1,3,1,NA,NA
"2542",69,NA,1,"native",1,3,1,NA,NA
"2543",69,NA,1,"native",1,2,0,NA,NA
"2544",69,NA,1,"native",1,3,0,NA,NA
"2545",69,NA,1,"native",1,3,0,NA,NA
"2546",69,NA,1,"second",1,3,1,NA,NA
"2547",69,NA,1,"second",1,3,1,NA,NA
"2548",69,NA,1,"second",1,3,1,NA,NA
"2549",69,NA,1,"second",1,3,0,NA,NA
"2550",69,NA,1,"second",1,3,0,NA,NA
"2551",69,NA,1,"native",1,3,1,NA,NA
"2552",69,NA,1,"native",1,3,1,NA,NA
"2553",69,NA,1,"native",1,3,1,NA,NA
"2554",69,NA,1,"native",1,3,0,NA,NA
"2555",69,NA,1,"native",1,3,0,NA,NA
"2556",69,NA,1,"second",1,1,1,NA,NA
"2557",69,NA,1,"second",1,3,1,NA,NA
"2558",69,NA,1,"second",1,2,0,NA,NA
"2559",69,NA,1,"second",1,3,0,NA,NA
"2560",69,NA,1,"second",1,2,0,NA,NA
"2561",70,"a1_1",1,"second",1,3,0,NA,NA
"2562",70,"a3_3",1,"second",1,1,0,NA,NA
"2563",70,"b1_1",1,"second",1,1,1,NA,NA
"2564",70,"b1_2",1,"second",1,4,1,NA,NA
"2565",70,"b3_3",1,"second",1,4,1,NA,NA
"2566",70,"a2_1",1,"native",1,4,0,NA,NA
"2567",70,"a2_4",1,"native",1,4,0,NA,NA
"2568",70,"a4_4",1,"native",1,1,0,NA,NA
"2569",70,"b2_1",1,"native",1,3,1,NA,NA
"2570",70,"b4_4",1,"native",1,3,1,NA,NA
"2571",70,"a1_2",1,"second",1,3,0,NA,NA
"2572",70,"a3_4",1,"second",1,3,0,NA,NA
"2573",70,"a3_5",1,"second",1,5,0,NA,NA
"2574",70,"b1_3",1,"second",1,2,1,NA,NA
"2575",70,"b3_4",1,"second",1,3,1,NA,NA
"2576",70,"a2_2",1,"native",1,1,0,NA,NA
"2577",70,"a4_5",1,"native",1,4,0,NA,NA
"2578",70,"b2_2",1,"native",1,6,1,NA,NA
"2579",70,"b2_3",1,"native",1,4,1,NA,NA
"2580",70,"b4_1",1,"native",1,1,1,NA,NA
"2581",70,"a1_4",1,"second",1,5,0,NA,NA
"2582",70,"a3_1",1,"second",1,5,0,NA,NA
"2583",70,"b1_4",1,"second",1,4,1,NA,NA
"2584",70,"b3_1",1,"second",1,4,1,NA,NA
"2585",70,"b3_2",1,"second",1,6,1,NA,NA
"2586",70,"a2_3",1,"native",1,4,0,NA,NA
"2587",70,"a4_1",1,"native",1,3,0,NA,NA
"2588",70,"a4_2",1,"native",1,3,0,NA,NA
"2589",70,"b2_4",1,"native",1,1,1,NA,NA
"2590",70,"b4_2",1,"native",1,4,1,NA,NA
"2591",70,"a1_5",1,"second",1,5,0,NA,NA
"2592",70,"a1_3",1,"second",1,5,0,NA,NA
"2593",70,"a3_2",1,"second",1,4,0,NA,NA
"2594",70,"b1_5",1,"second",1,6,1,NA,NA
"2595",70,"b3_5",1,"second",1,5,1,NA,NA
"2596",70,"a2_5",1,"native",1,1,0,NA,NA
"2597",70,"a4_3",1,"native",1,1,0,NA,NA
"2598",70,"b2_5",1,"native",1,1,1,NA,NA
"2599",70,"b4_3",1,"native",1,4,1,NA,NA
"2600",70,"b4_5",1,"native",1,3,1,NA,NA
"2601",71,"a1_1",1,"second",1,5,0,NA,NA
"2602",71,"a3_3",1,"second",1,4,0,NA,NA
"2603",71,"b1_1",1,"second",1,5,1,NA,NA
"2604",71,"b1_2",1,"second",1,4,1,NA,NA
"2605",71,"b3_3",1,"second",1,3,1,NA,NA
"2606",71,"a2_1",1,"native",1,4,0,NA,NA
"2607",71,"a2_4",1,"native",1,4,0,NA,NA
"2608",71,"a4_4",1,"native",1,3,0,NA,NA
"2609",71,"b2_1",1,"native",1,4,1,NA,NA
"2610",71,"b4_4",1,"native",1,4,1,NA,NA
"2611",71,"a1_2",1,"second",1,2,0,NA,NA
"2612",71,"a3_4",1,"second",1,2,0,NA,NA
"2613",71,"a3_5",1,"second",1,3,0,NA,NA
"2614",71,"b1_3",1,"second",1,4,1,NA,NA
"2615",71,"b3_4",1,"second",1,3,1,NA,NA
"2616",71,"a2_2",1,"native",1,2,0,NA,NA
"2617",71,"a4_5",1,"native",1,4,0,NA,NA
"2618",71,"b2_2",1,"native",1,3,1,NA,NA
"2619",71,"b2_3",1,"native",1,5,1,NA,NA
"2620",71,"b4_1",1,"native",1,5,1,NA,NA
"2621",71,"a1_4",1,"second",1,3,0,NA,NA
"2622",71,"a3_1",1,"second",1,2,0,NA,NA
"2623",71,"b1_4",1,"second",1,4,1,NA,NA
"2624",71,"b3_1",1,"second",1,4,1,NA,NA
"2625",71,"b3_2",1,"second",1,5,1,NA,NA
"2626",71,"a2_3",1,"native",1,4,0,NA,NA
"2627",71,"a4_1",1,"native",1,4,0,NA,NA
"2628",71,"a4_2",1,"native",1,4,0,NA,NA
"2629",71,"b2_4",1,"native",1,2,1,NA,NA
"2630",71,"b4_2",1,"native",1,3,1,NA,NA
"2631",71,"a1_5",1,"second",1,6,0,NA,NA
"2632",71,"a1_3",1,"second",1,5,0,NA,NA
"2633",71,"a3_2",1,"second",1,4,0,NA,NA
"2634",71,"b1_5",1,"second",1,5,1,NA,NA
"2635",71,"b3_5",1,"second",1,4,1,NA,NA
"2636",71,"a2_5",1,"native",1,4,0,NA,NA
"2637",71,"a4_3",1,"native",1,2,0,NA,NA
"2638",71,"b2_5",1,"native",1,4,1,NA,NA
"2639",71,"b4_3",1,"native",1,4,1,NA,NA
"2640",71,"b4_5",1,"native",1,5,1,NA,NA
"2641",72,NA,1,"native",1,4,0,NA,NA
"2642",72,NA,1,"native",1,3,0,NA,NA
"2643",72,NA,1,"native",1,2,1,NA,NA
"2644",72,NA,1,"native",1,4,1,NA,NA
"2645",72,NA,1,"native",1,4,1,NA,NA
"2646",72,NA,1,"second",1,5,0,NA,NA
"2647",72,NA,1,"second",1,6,0,NA,NA
"2648",72,NA,1,"second",1,5,0,NA,NA
"2649",72,NA,1,"second",1,3,1,NA,NA
"2650",72,NA,1,"second",1,4,1,NA,NA
"2651",72,NA,1,"native",1,1,0,NA,NA
"2652",72,NA,1,"native",1,2,0,NA,NA
"2653",72,NA,1,"native",1,3,0,NA,NA
"2654",72,NA,1,"native",1,5,1,NA,NA
"2655",72,NA,1,"native",1,1,1,NA,NA
"2656",72,NA,1,"second",1,2,0,NA,NA
"2657",72,NA,1,"second",1,3,0,NA,NA
"2658",72,NA,1,"second",1,5,1,NA,NA
"2659",72,NA,1,"second",1,2,1,NA,NA
"2660",72,NA,1,"second",1,6,1,NA,NA
"2661",72,NA,1,"native",1,2,0,NA,NA
"2662",72,NA,1,"native",1,5,0,NA,NA
"2663",72,NA,1,"native",1,2,1,NA,NA
"2664",72,NA,1,"native",1,4,1,NA,NA
"2665",72,NA,1,"native",1,5,1,NA,NA
"2666",72,NA,1,"second",1,6,0,NA,NA
"2667",72,NA,1,"second",1,4,0,NA,NA
"2668",72,NA,1,"second",1,5,0,NA,NA
"2669",72,NA,1,"second",1,1,1,NA,NA
"2670",72,NA,1,"second",1,3,1,NA,NA
"2671",72,NA,1,"native",1,4,0,NA,NA
