"","subject","statement_identifier","procedure_identifier","within_identifier","between_identifier","response","repeated","rt","trial"
"1",1,"11",1,1,1,3,1,NA,NA
"2",1,"12",1,1,1,4,1,NA,NA
"3",1,"13",1,1,1,3,1,NA,NA
"4",1,"14",1,1,1,6,1,NA,NA
"5",1,"15",1,1,1,6,1,NA,NA
"6",1,"16",1,1,1,3,1,NA,NA
"7",1,"17",1,1,1,6,1,NA,NA
"8",1,"18",1,1,1,2,1,NA,NA
"9",1,"19",1,1,1,3,1,NA,NA
"10",1,"110",1,1,1,6,1,NA,NA
"11",1,"111",1,1,1,3,1,NA,NA
"12",1,"112",1,1,1,5,1,NA,NA
"13",1,"113",1,1,1,3,1,NA,NA
"14",1,"114",1,1,1,4,1,NA,NA
"15",1,"115",1,1,1,4,1,NA,NA
"16",1,"116",1,1,1,4,1,NA,NA
"17",1,"117",1,1,1,4,1,NA,NA
"18",1,"118",1,1,1,4,1,NA,NA
"19",1,"119",1,1,1,5,1,NA,NA
"20",1,"120",1,1,1,3,1,NA,NA
"21",1,"121",1,1,1,3,0,NA,NA
"22",1,"122",1,1,1,4,0,NA,NA
"23",1,"123",1,1,1,3,0,NA,NA
"24",1,"124",1,1,1,3,0,NA,NA
"25",1,"125",1,1,1,5,0,NA,NA
"26",1,"126",1,1,1,6,0,NA,NA
"27",1,"127",1,1,1,1,0,NA,NA
"28",1,"128",1,1,1,4,0,NA,NA
"29",1,"129",1,1,1,4,0,NA,NA
"30",1,"130",1,1,1,3,0,NA,NA
"31",1,"131",1,1,1,3,0,NA,NA
"32",1,"132",1,1,1,3,0,NA,NA
"33",1,"133",1,1,1,3,0,NA,NA
"34",1,"134",1,1,1,2,0,NA,NA
"35",1,"135",1,1,1,5,0,NA,NA
"36",1,"136",1,1,1,3,0,NA,NA
"37",1,"137",1,1,1,4,0,NA,NA
"38",1,"138",1,1,1,4,0,NA,NA
"39",1,"139",1,1,1,2,0,NA,NA
"40",1,"140",1,1,1,1,0,NA,NA
"41",2,"11",1,1,1,4,1,NA,NA
"42",2,"12",1,1,1,6,1,NA,NA
"43",2,"13",1,1,1,2,1,NA,NA
"44",2,"14",1,1,1,4,1,NA,NA
"45",2,"15",1,1,1,6,1,NA,NA
"46",2,"16",1,1,1,3,1,NA,NA
"47",2,"17",1,1,1,6,1,NA,NA
"48",2,"18",1,1,1,2,1,NA,NA
"49",2,"19",1,1,1,4,1,NA,NA
"50",2,"110",1,1,1,6,1,NA,NA
"51",2,"111",1,1,1,6,1,NA,NA
"52",2,"112",1,1,1,5,1,NA,NA
"53",2,"113",1,1,1,5,1,NA,NA
"54",2,"114",1,1,1,3,1,NA,NA
"55",2,"115",1,1,1,5,1,NA,NA
"56",2,"116",1,1,1,6,1,NA,NA
"57",2,"117",1,1,1,5,1,NA,NA
"58",2,"118",1,1,1,3,1,NA,NA
"59",2,"119",1,1,1,4,1,NA,NA
"60",2,"120",1,1,1,2,1,NA,NA
"61",2,"121",1,1,1,5,0,NA,NA
"62",2,"122",1,1,1,6,0,NA,NA
"63",2,"123",1,1,1,5,0,NA,NA
"64",2,"124",1,1,1,3,0,NA,NA
"65",2,"125",1,1,1,1,0,NA,NA
"66",2,"126",1,1,1,5,0,NA,NA
"67",2,"127",1,1,1,4,0,NA,NA
"68",2,"128",1,1,1,4,0,NA,NA
"69",2,"129",1,1,1,6,0,NA,NA
"70",2,"130",1,1,1,3,0,NA,NA
"71",2,"131",1,1,1,3,0,NA,NA
"72",2,"132",1,1,1,6,0,NA,NA
"73",2,"133",1,1,1,3,0,NA,NA
"74",2,"134",1,1,1,5,0,NA,NA
"75",2,"135",1,1,1,4,0,NA,NA
"76",2,"136",1,1,1,6,0,NA,NA
"77",2,"137",1,1,1,5,0,NA,NA
"78",2,"138",1,1,1,4,0,NA,NA
"79",2,"139",1,1,1,5,0,NA,NA
"80",2,"140",1,1,1,3,0,NA,NA
"81",3,"11",1,1,1,4,0,NA,NA
"82",3,"12",1,1,1,6,0,NA,NA
"83",3,"13",1,1,1,5,0,NA,NA
"84",3,"14",1,1,1,5,0,NA,NA
"85",3,"15",1,1,1,5,0,NA,NA
"86",3,"16",1,1,1,4,0,NA,NA
"87",3,"17",1,1,1,6,0,NA,NA
"88",3,"18",1,1,1,2,0,NA,NA
"89",3,"19",1,1,1,4,0,NA,NA
"90",3,"110",1,1,1,6,0,NA,NA
"91",3,"111",1,1,1,2,0,NA,NA
"92",3,"112",1,1,1,4,0,NA,NA
"93",3,"113",1,1,1,4,0,NA,NA
"94",3,"114",1,1,1,3,0,NA,NA
"95",3,"115",1,1,1,5,0,NA,NA
"96",3,"116",1,1,1,5,0,NA,NA
"97",3,"117",1,1,1,4,0,NA,NA
"98",3,"118",1,1,1,5,0,NA,NA
"99",3,"119",1,1,1,5,0,NA,NA
"100",3,"120",1,1,1,3,0,NA,NA
"101",3,"121",1,1,1,6,1,NA,NA
"102",3,"122",1,1,1,6,1,NA,NA
"103",3,"123",1,1,1,5,1,NA,NA
"104",3,"124",1,1,1,6,1,NA,NA
"105",3,"125",1,1,1,5,1,NA,NA
"106",3,"126",1,1,1,6,1,NA,NA
"107",3,"127",1,1,1,6,1,NA,NA
"108",3,"128",1,1,1,6,1,NA,NA
"109",3,"129",1,1,1,6,1,NA,NA
"110",3,"130",1,1,1,6,1,NA,NA
"111",3,"131",1,1,1,6,1,NA,NA
"112",3,"132",1,1,1,6,1,NA,NA
"113",3,"133",1,1,1,5,1,NA,NA
"114",3,"134",1,1,1,6,1,NA,NA
"115",3,"135",1,1,1,6,1,NA,NA
"116",3,"136",1,1,1,6,1,NA,NA
"117",3,"137",1,1,1,6,1,NA,NA
"118",3,"138",1,1,1,6,1,NA,NA
"119",3,"139",1,1,1,6,1,NA,NA
"120",3,"140",1,1,1,6,1,NA,NA
"121",4,"11",1,1,1,4,0,NA,NA
"122",4,"12",1,1,1,6,0,NA,NA
"123",4,"13",1,1,1,6,0,NA,NA
"124",4,"14",1,1,1,5,0,NA,NA
"125",4,"15",1,1,1,6,0,NA,NA
"126",4,"16",1,1,1,3,0,NA,NA
"127",4,"17",1,1,1,6,0,NA,NA
"128",4,"18",1,1,1,2,0,NA,NA
"129",4,"19",1,1,1,2,0,NA,NA
"130",4,"110",1,1,1,6,0,NA,NA
"131",4,"111",1,1,1,6,0,NA,NA
"132",4,"112",1,1,1,6,0,NA,NA
"133",4,"113",1,1,1,1,0,NA,NA
"134",4,"114",1,1,1,1,0,NA,NA
"135",4,"115",1,1,1,5,0,NA,NA
"136",4,"116",1,1,1,1,0,NA,NA
"137",4,"117",1,1,1,1,0,NA,NA
"138",4,"118",1,1,1,5,0,NA,NA
"139",4,"119",1,1,1,6,0,NA,NA
"140",4,"120",1,1,1,1,0,NA,NA
"141",4,"121",1,1,1,2,1,NA,NA
"142",4,"122",1,1,1,6,1,NA,NA
"143",4,"123",1,1,1,4,1,NA,NA
"144",4,"124",1,1,1,5,1,NA,NA
"145",4,"125",1,1,1,1,1,NA,NA
"146",4,"126",1,1,1,6,1,NA,NA
"147",4,"127",1,1,1,6,1,NA,NA
"148",4,"128",1,1,1,6,1,NA,NA
"149",4,"129",1,1,1,6,1,NA,NA
"150",4,"130",1,1,1,6,1,NA,NA
"151",4,"131",1,1,1,1,1,NA,NA
"152",4,"132",1,1,1,1,1,NA,NA
"153",4,"133",1,1,1,5,1,NA,NA
"154",4,"134",1,1,1,1,1,NA,NA
"155",4,"135",1,1,1,6,1,NA,NA
"156",4,"136",1,1,1,6,1,NA,NA
"157",4,"137",1,1,1,5,1,NA,NA
"158",4,"138",1,1,1,6,1,NA,NA
"159",4,"139",1,1,1,1,1,NA,NA
"160",4,"140",1,1,1,1,1,NA,NA
"161",5,"11",1,1,1,5,1,NA,NA
"162",5,"12",1,1,1,5,1,NA,NA
"163",5,"13",1,1,1,6,1,NA,NA
"164",5,"14",1,1,1,4,1,NA,NA
"165",5,"15",1,1,1,6,1,NA,NA
"166",5,"16",1,1,1,3,1,NA,NA
"167",5,"17",1,1,1,3,1,NA,NA
"168",5,"18",1,1,1,5,1,NA,NA
"169",5,"19",1,1,1,5,1,NA,NA
"170",5,"110",1,1,1,6,1,NA,NA
"171",5,"111",1,1,1,5,1,NA,NA
"172",5,"112",1,1,1,6,1,NA,NA
"173",5,"113",1,1,1,3,1,NA,NA
"174",5,"114",1,1,1,5,1,NA,NA
"175",5,"115",1,1,1,5,1,NA,NA
"176",5,"116",1,1,1,5,1,NA,NA
"177",5,"117",1,1,1,5,1,NA,NA
"178",5,"118",1,1,1,5,1,NA,NA
"179",5,"119",1,1,1,5,1,NA,NA
"180",5,"120",1,1,1,2,1,NA,NA
"181",5,"121",1,1,1,3,0,NA,NA
"182",5,"122",1,1,1,3,0,NA,NA
"183",5,"123",1,1,1,3,0,NA,NA
"184",5,"124",1,1,1,3,0,NA,NA
"185",5,"125",1,1,1,6,0,NA,NA
"186",5,"126",1,1,1,3,0,NA,NA
"187",5,"127",1,1,1,3,0,NA,NA
"188",5,"128",1,1,1,3,0,NA,NA
"189",5,"129",1,1,1,3,0,NA,NA
"190",5,"130",1,1,1,3,0,NA,NA
"191",5,"131",1,1,1,3,0,NA,NA
"192",5,"132",1,1,1,4,0,NA,NA
"193",5,"133",1,1,1,3,0,NA,NA
"194",5,"134",1,1,1,2,0,NA,NA
"195",5,"135",1,1,1,2,0,NA,NA
"196",5,"136",1,1,1,3,0,NA,NA
"197",5,"137",1,1,1,3,0,NA,NA
"198",5,"138",1,1,1,4,0,NA,NA
"199",5,"139",1,1,1,3,0,NA,NA
"200",5,"140",1,1,1,3,0,NA,NA
"201",6,"11",1,1,1,4,0,NA,NA
"202",6,"12",1,1,1,2,0,NA,NA
"203",6,"13",1,1,1,3,0,NA,NA
"204",6,"14",1,1,1,3,0,NA,NA
"205",6,"15",1,1,1,2,0,NA,NA
"206",6,"16",1,1,1,3,0,NA,NA
"207",6,"17",1,1,1,4,0,NA,NA
"208",6,"18",1,1,1,3,0,NA,NA
"209",6,"19",1,1,1,4,0,NA,NA
"210",6,"110",1,1,1,4,0,NA,NA
"211",6,"111",1,1,1,4,0,NA,NA
"212",6,"112",1,1,1,5,0,NA,NA
"213",6,"113",1,1,1,3,0,NA,NA
"214",6,"114",1,1,1,3,0,NA,NA
"215",6,"115",1,1,1,3,0,NA,NA
"216",6,"116",1,1,1,4,0,NA,NA
"217",6,"117",1,1,1,4,0,NA,NA
"218",6,"118",1,1,1,4,0,NA,NA
"219",6,"119",1,1,1,3,0,NA,NA
"220",6,"120",1,1,1,4,0,NA,NA
"221",6,"121",1,1,1,5,1,NA,NA
"222",6,"122",1,1,1,4,1,NA,NA
"223",6,"123",1,1,1,4,1,NA,NA
"224",6,"124",1,1,1,4,1,NA,NA
"225",6,"125",1,1,1,4,1,NA,NA
"226",6,"126",1,1,1,3,1,NA,NA
"227",6,"127",1,1,1,4,1,NA,NA
"228",6,"128",1,1,1,2,1,NA,NA
"229",6,"129",1,1,1,3,1,NA,NA
"230",6,"130",1,1,1,3,1,NA,NA
"231",6,"131",1,1,1,3,1,NA,NA
"232",6,"132",1,1,1,4,1,NA,NA
"233",6,"133",1,1,1,4,1,NA,NA
"234",6,"134",1,1,1,1,1,NA,NA
"235",6,"135",1,1,1,3,1,NA,NA
"236",6,"136",1,1,1,3,1,NA,NA
"237",6,"137",1,1,1,4,1,NA,NA
"238",6,"138",1,1,1,4,1,NA,NA
"239",6,"139",1,1,1,1,1,NA,NA
"240",6,"140",1,1,1,4,1,NA,NA
"241",7,"11",1,1,1,3,0,NA,NA
"242",7,"12",1,1,1,3,0,NA,NA
"243",7,"13",1,1,1,3,0,NA,NA
"244",7,"14",1,1,1,5,0,NA,NA
"245",7,"15",1,1,1,4,0,NA,NA
"246",7,"16",1,1,1,3,0,NA,NA
"247",7,"17",1,1,1,6,0,NA,NA
"248",7,"18",1,1,1,6,0,NA,NA
"249",7,"19",1,1,1,4,0,NA,NA
"250",7,"110",1,1,1,5,0,NA,NA
"251",7,"111",1,1,1,3,0,NA,NA
"252",7,"112",1,1,1,5,0,NA,NA
"253",7,"113",1,1,1,3,0,NA,NA
"254",7,"114",1,1,1,4,0,NA,NA
"255",7,"115",1,1,1,4,0,NA,NA
"256",7,"116",1,1,1,4,0,NA,NA
"257",7,"117",1,1,1,3,0,NA,NA
"258",7,"118",1,1,1,4,0,NA,NA
"259",7,"119",1,1,1,2,0,NA,NA
"260",7,"120",1,1,1,3,0,NA,NA
"261",7,"121",1,1,1,5,1,NA,NA
"262",7,"122",1,1,1,6,1,NA,NA
"263",7,"123",1,1,1,4,1,NA,NA
"264",7,"124",1,1,1,4,1,NA,NA
"265",7,"125",1,1,1,1,1,NA,NA
"266",7,"126",1,1,1,6,1,NA,NA
"267",7,"127",1,1,1,4,1,NA,NA
"268",7,"128",1,1,1,4,1,NA,NA
"269",7,"129",1,1,1,4,1,NA,NA
"270",7,"130",1,1,1,4,1,NA,NA
"271",7,"131",1,1,1,3,1,NA,NA
"272",7,"132",1,1,1,3,1,NA,NA
"273",7,"133",1,1,1,4,1,NA,NA
"274",7,"134",1,1,1,2,1,NA,NA
"275",7,"135",1,1,1,4,1,NA,NA
"276",7,"136",1,1,1,4,1,NA,NA
"277",7,"137",1,1,1,4,1,NA,NA
"278",7,"138",1,1,1,4,1,NA,NA
"279",7,"139",1,1,1,1,1,NA,NA
"280",7,"140",1,1,1,5,1,NA,NA
"281",8,"11",1,1,1,4,0,NA,NA
"282",8,"12",1,1,1,2,0,NA,NA
"283",8,"13",1,1,1,3,0,NA,NA
"284",8,"14",1,1,1,4,0,NA,NA
"285",8,"15",1,1,1,2,0,NA,NA
"286",8,"16",1,1,1,3,0,NA,NA
"287",8,"17",1,1,1,4,0,NA,NA
"288",8,"18",1,1,1,1,0,NA,NA
"289",8,"19",1,1,1,4,0,NA,NA
"290",8,"110",1,1,1,6,0,NA,NA
"291",8,"111",1,1,1,4,0,NA,NA
"292",8,"112",1,1,1,6,0,NA,NA
"293",8,"113",1,1,1,4,0,NA,NA
"294",8,"114",1,1,1,3,0,NA,NA
"295",8,"115",1,1,1,3,0,NA,NA
"296",8,"116",1,1,1,6,0,NA,NA
"297",8,"117",1,1,1,4,0,NA,NA
"298",8,"118",1,1,1,3,0,NA,NA
"299",8,"119",1,1,1,6,0,NA,NA
"300",8,"120",1,1,1,5,0,NA,NA
"301",8,"121",1,1,1,2,1,NA,NA
"302",8,"122",1,1,1,3,1,NA,NA
"303",8,"123",1,1,1,5,1,NA,NA
"304",8,"124",1,1,1,4,1,NA,NA
"305",8,"125",1,1,1,3,1,NA,NA
"306",8,"126",1,1,1,3,1,NA,NA
"307",8,"127",1,1,1,4,1,NA,NA
"308",8,"128",1,1,1,4,1,NA,NA
"309",8,"129",1,1,1,4,1,NA,NA
"310",8,"130",1,1,1,4,1,NA,NA
"311",8,"131",1,1,1,2,1,NA,NA
"312",8,"132",1,1,1,4,1,NA,NA
"313",8,"133",1,1,1,3,1,NA,NA
"314",8,"134",1,1,1,2,1,NA,NA
"315",8,"135",1,1,1,4,1,NA,NA
"316",8,"136",1,1,1,4,1,NA,NA
"317",8,"137",1,1,1,5,1,NA,NA
"318",8,"138",1,1,1,6,1,NA,NA
"319",8,"139",1,1,1,2,1,NA,NA
"320",8,"140",1,1,1,4,1,NA,NA
"321",9,"11",1,1,1,1,1,NA,NA
"322",9,"12",1,1,1,6,1,NA,NA
"323",9,"13",1,1,1,5,1,NA,NA
"324",9,"14",1,1,1,4,1,NA,NA
"325",9,"15",1,1,1,6,1,NA,NA
"326",9,"16",1,1,1,4,1,NA,NA
"327",9,"17",1,1,1,6,1,NA,NA
"328",9,"18",1,1,1,6,1,NA,NA
"329",9,"19",1,1,1,5,1,NA,NA
"330",9,"110",1,1,1,6,1,NA,NA
"331",9,"111",1,1,1,1,1,NA,NA
"332",9,"112",1,1,1,1,1,NA,NA
"333",9,"113",1,1,1,4,1,NA,NA
"334",9,"114",1,1,1,2,1,NA,NA
"335",9,"115",1,1,1,1,1,NA,NA
"336",9,"116",1,1,1,1,1,NA,NA
"337",9,"117",1,1,1,5,1,NA,NA
"338",9,"118",1,1,1,5,1,NA,NA
"339",9,"119",1,1,1,5,1,NA,NA
"340",9,"120",1,1,1,6,1,NA,NA
"341",9,"121",1,1,1,5,0,NA,NA
"342",9,"122",1,1,1,6,0,NA,NA
"343",9,"123",1,1,1,6,0,NA,NA
"344",9,"124",1,1,1,4,0,NA,NA
"345",9,"125",1,1,1,6,0,NA,NA
"346",9,"126",1,1,1,2,0,NA,NA
"347",9,"127",1,1,1,3,0,NA,NA
"348",9,"128",1,1,1,6,0,NA,NA
"349",9,"129",1,1,1,1,0,NA,NA
"350",9,"130",1,1,1,4,0,NA,NA
"351",9,"131",1,1,1,5,0,NA,NA
"352",9,"132",1,1,1,6,0,NA,NA
"353",9,"133",1,1,1,4,0,NA,NA
"354",9,"134",1,1,1,5,0,NA,NA
"355",9,"135",1,1,1,2,0,NA,NA
"356",9,"136",1,1,1,4,0,NA,NA
"357",9,"137",1,1,1,1,0,NA,NA
"358",9,"138",1,1,1,6,0,NA,NA
"359",9,"139",1,1,1,1,0,NA,NA
"360",9,"140",1,1,1,1,0,NA,NA
"361",10,"11",1,1,1,5,0,NA,NA
"362",10,"12",1,1,1,6,0,NA,NA
"363",10,"13",1,1,1,6,0,NA,NA
"364",10,"14",1,1,1,4,0,NA,NA
"365",10,"15",1,1,1,6,0,NA,NA
"366",10,"16",1,1,1,3,0,NA,NA
"367",10,"17",1,1,1,1,0,NA,NA
"368",10,"18",1,1,1,6,0,NA,NA
"369",10,"19",1,1,1,2,0,NA,NA
"370",10,"110",1,1,1,6,0,NA,NA
"371",10,"111",1,1,1,1,0,NA,NA
"372",10,"112",1,1,1,2,0,NA,NA
"373",10,"113",1,1,1,3,0,NA,NA
"374",10,"114",1,1,1,5,0,NA,NA
"375",10,"115",1,1,1,3,0,NA,NA
"376",10,"116",1,1,1,2,0,NA,NA
"377",10,"117",1,1,1,4,0,NA,NA
"378",10,"118",1,1,1,5,0,NA,NA
"379",10,"119",1,1,1,5,0,NA,NA
"380",10,"120",1,1,1,1,0,NA,NA
"381",10,"121",1,1,1,1,1,NA,NA
"382",10,"122",1,1,1,6,1,NA,NA
"383",10,"123",1,1,1,6,1,NA,NA
"384",10,"124",1,1,1,4,1,NA,NA
"385",10,"125",1,1,1,6,1,NA,NA
"386",10,"126",1,1,1,1,1,NA,NA
"387",10,"127",1,1,1,4,1,NA,NA
"388",10,"128",1,1,1,6,1,NA,NA
"389",10,"129",1,1,1,6,1,NA,NA
"390",10,"130",1,1,1,4,1,NA,NA
"391",10,"131",1,1,1,1,1,NA,NA
"392",10,"132",1,1,1,1,1,NA,NA
"393",10,"133",1,1,1,2,1,NA,NA
"394",10,"134",1,1,1,1,1,NA,NA
"395",10,"135",1,1,1,2,1,NA,NA
"396",10,"136",1,1,1,4,1,NA,NA
"397",10,"137",1,1,1,5,1,NA,NA
"398",10,"138",1,1,1,5,1,NA,NA
"399",10,"139",1,1,1,2,1,NA,NA
"400",10,"140",1,1,1,1,1,NA,NA
"401",11,"11",1,1,1,3,1,NA,NA
"402",11,"12",1,1,1,5,1,NA,NA
"403",11,"13",1,1,1,2,1,NA,NA
"404",11,"14",1,1,1,5,1,NA,NA
"405",11,"15",1,1,1,5,1,NA,NA
"406",11,"16",1,1,1,3,1,NA,NA
"407",11,"17",1,1,1,5,1,NA,NA
"408",11,"18",1,1,1,3,1,NA,NA
"409",11,"19",1,1,1,4,1,NA,NA
"410",11,"110",1,1,1,5,1,NA,NA
"411",11,"111",1,1,1,4,1,NA,NA
"412",11,"112",1,1,1,5,1,NA,NA
"413",11,"113",1,1,1,4,1,NA,NA
"414",11,"114",1,1,1,2,1,NA,NA
"415",11,"115",1,1,1,3,1,NA,NA
"416",11,"116",1,1,1,5,1,NA,NA
"417",11,"117",1,1,1,4,1,NA,NA
"418",11,"118",1,1,1,4,1,NA,NA
"419",11,"119",1,1,1,4,1,NA,NA
"420",11,"120",1,1,1,4,1,NA,NA
"421",11,"121",1,1,1,3,0,NA,NA
"422",11,"122",1,1,1,6,0,NA,NA
"423",11,"123",1,1,1,5,0,NA,NA
"424",11,"124",1,1,1,4,0,NA,NA
"425",11,"125",1,1,1,6,0,NA,NA
"426",11,"126",1,1,1,1,0,NA,NA
"427",11,"127",1,1,1,5,0,NA,NA
"428",11,"128",1,1,1,4,0,NA,NA
"429",11,"129",1,1,1,4,0,NA,NA
"430",11,"130",1,1,1,2,0,NA,NA
"431",11,"131",1,1,1,3,0,NA,NA
"432",11,"132",1,1,1,5,0,NA,NA
"433",11,"133",1,1,1,3,0,NA,NA
"434",11,"134",1,1,1,2,0,NA,NA
"435",11,"135",1,1,1,4,0,NA,NA
"436",11,"136",1,1,1,4,0,NA,NA
"437",11,"137",1,1,1,5,0,NA,NA
"438",11,"138",1,1,1,5,0,NA,NA
"439",11,"139",1,1,1,3,0,NA,NA
"440",11,"140",1,1,1,4,0,NA,NA
"441",12,"11",1,1,1,3,0,NA,NA
"442",12,"12",1,1,1,5,0,NA,NA
"443",12,"13",1,1,1,2,0,NA,NA
"444",12,"14",1,1,1,5,0,NA,NA
"445",12,"15",1,1,1,5,0,NA,NA
"446",12,"16",1,1,1,3,0,NA,NA
"447",12,"17",1,1,1,4,0,NA,NA
"448",12,"18",1,1,1,6,0,NA,NA
"449",12,"19",1,1,1,4,0,NA,NA
"450",12,"110",1,1,1,5,0,NA,NA
"451",12,"111",1,1,1,2,0,NA,NA
"452",12,"112",1,1,1,4,0,NA,NA
"453",12,"113",1,1,1,3,0,NA,NA
"454",12,"114",1,1,1,3,0,NA,NA
"455",12,"115",1,1,1,2,0,NA,NA
"456",12,"116",1,1,1,6,0,NA,NA
"457",12,"117",1,1,1,4,0,NA,NA
"458",12,"118",1,1,1,4,0,NA,NA
"459",12,"119",1,1,1,4,0,NA,NA
"460",12,"120",1,1,1,3,0,NA,NA
"461",12,"121",1,1,1,4,1,NA,NA
"462",12,"122",1,1,1,3,1,NA,NA
"463",12,"123",1,1,1,5,1,NA,NA
"464",12,"124",1,1,1,3,1,NA,NA
"465",12,"125",1,1,1,6,1,NA,NA
"466",12,"126",1,1,1,3,1,NA,NA
"467",12,"127",1,1,1,4,1,NA,NA
"468",12,"128",1,1,1,5,1,NA,NA
"469",12,"129",1,1,1,4,1,NA,NA
"470",12,"130",1,1,1,3,1,NA,NA
"471",12,"131",1,1,1,3,1,NA,NA
"472",12,"132",1,1,1,5,1,NA,NA
"473",12,"133",1,1,1,4,1,NA,NA
"474",12,"134",1,1,1,1,1,NA,NA
"475",12,"135",1,1,1,4,1,NA,NA
"476",12,"136",1,1,1,4,1,NA,NA
"477",12,"137",1,1,1,5,1,NA,NA
"478",12,"138",1,1,1,5,1,NA,NA
"479",12,"139",1,1,1,4,1,NA,NA
"480",12,"140",1,1,1,2,1,NA,NA
"481",13,"11",1,1,1,5,1,NA,NA
"482",13,"12",1,1,1,2,1,NA,NA
"483",13,"13",1,1,1,2,1,NA,NA
"484",13,"14",1,1,1,4,1,NA,NA
"485",13,"15",1,1,1,4,1,NA,NA
"486",13,"16",1,1,1,4,1,NA,NA
"487",13,"17",1,1,1,2,1,NA,NA
"488",13,"18",1,1,1,6,1,NA,NA
"489",13,"19",1,1,1,4,1,NA,NA
"490",13,"110",1,1,1,6,1,NA,NA
"491",13,"111",1,1,1,4,1,NA,NA
"492",13,"112",1,1,1,6,1,NA,NA
"493",13,"113",1,1,1,3,1,NA,NA
"494",13,"114",1,1,1,5,1,NA,NA
"495",13,"115",1,1,1,5,1,NA,NA
"496",13,"116",1,1,1,3,1,NA,NA
"497",13,"117",1,1,1,4,1,NA,NA
"498",13,"118",1,1,1,4,1,NA,NA
"499",13,"119",1,1,1,4,1,NA,NA
"500",13,"120",1,1,1,3,1,NA,NA
"501",13,"121",1,1,1,3,0,NA,NA
"502",13,"122",1,1,1,4,0,NA,NA
"503",13,"123",1,1,1,5,0,NA,NA
"504",13,"124",1,1,1,3,0,NA,NA
"505",13,"125",1,1,1,2,0,NA,NA
"506",13,"126",1,1,1,5,0,NA,NA
"507",13,"127",1,1,1,5,0,NA,NA
"508",13,"128",1,1,1,2,0,NA,NA
"509",13,"129",1,1,1,5,0,NA,NA
"510",13,"130",1,1,1,4,0,NA,NA
"511",13,"131",1,1,1,4,0,NA,NA
"512",13,"132",1,1,1,5,0,NA,NA
"513",13,"133",1,1,1,4,0,NA,NA
"514",13,"134",1,1,1,3,0,NA,NA
"515",13,"135",1,1,1,5,0,NA,NA
"516",13,"136",1,1,1,3,0,NA,NA
"517",13,"137",1,1,1,5,0,NA,NA
"518",13,"138",1,1,1,4,0,NA,NA
"519",13,"139",1,1,1,1,0,NA,NA
"520",13,"140",1,1,1,2,0,NA,NA
"521",14,"11",1,1,1,2,1,NA,NA
"522",14,"12",1,1,1,2,1,NA,NA
"523",14,"13",1,1,1,1,1,NA,NA
"524",14,"14",1,1,1,5,1,NA,NA
"525",14,"15",1,1,1,2,1,NA,NA
"526",14,"16",1,1,1,4,1,NA,NA
"527",14,"17",1,1,1,6,1,NA,NA
"528",14,"18",1,1,1,1,1,NA,NA
"529",14,"19",1,1,1,4,1,NA,NA
"530",14,"110",1,1,1,6,1,NA,NA
"531",14,"111",1,1,1,1,1,NA,NA
"532",14,"112",1,1,1,5,1,NA,NA
"533",14,"113",1,1,1,3,1,NA,NA
"534",14,"114",1,1,1,3,1,NA,NA
"535",14,"115",1,1,1,5,1,NA,NA
"536",14,"116",1,1,1,2,1,NA,NA
"537",14,"117",1,1,1,4,1,NA,NA
"538",14,"118",1,1,1,2,1,NA,NA
"539",14,"119",1,1,1,5,1,NA,NA
"540",14,"120",1,1,1,3,1,NA,NA
"541",14,"121",1,1,1,2,0,NA,NA
"542",14,"122",1,1,1,2,0,NA,NA
"543",14,"123",1,1,1,5,0,NA,NA
"544",14,"124",1,1,1,3,0,NA,NA
"545",14,"125",1,1,1,1,0,NA,NA
"546",14,"126",1,1,1,6,0,NA,NA
"547",14,"127",1,1,1,4,0,NA,NA
"548",14,"128",1,1,1,5,0,NA,NA
"549",14,"129",1,1,1,5,0,NA,NA
"550",14,"130",1,1,1,4,0,NA,NA
"551",14,"131",1,1,1,1,0,NA,NA
"552",14,"132",1,1,1,5,0,NA,NA
"553",14,"133",1,1,1,2,0,NA,NA
"554",14,"134",1,1,1,2,0,NA,NA
"555",14,"135",1,1,1,5,0,NA,NA
"556",14,"136",1,1,1,4,0,NA,NA
"557",14,"137",1,1,1,5,0,NA,NA
"558",14,"138",1,1,1,5,0,NA,NA
"559",14,"139",1,1,1,2,0,NA,NA
"560",14,"140",1,1,1,1,0,NA,NA
"561",15,"11",1,1,1,4,0,NA,NA
"562",15,"12",1,1,1,5,0,NA,NA
"563",15,"13",1,1,1,3,0,NA,NA
"564",15,"14",1,1,1,5,0,NA,NA
"565",15,"15",1,1,1,6,0,NA,NA
"566",15,"16",1,1,1,4,0,NA,NA
"567",15,"17",1,1,1,6,0,NA,NA
"568",15,"18",1,1,1,3,0,NA,NA
"569",15,"19",1,1,1,4,0,NA,NA
"570",15,"110",1,1,1,3,0,NA,NA
"571",15,"111",1,1,1,6,0,NA,NA
"572",15,"112",1,1,1,6,0,NA,NA
"573",15,"113",1,1,1,3,0,NA,NA
"574",15,"114",1,1,1,4,0,NA,NA
"575",15,"115",1,1,1,3,0,NA,NA
"576",15,"116",1,1,1,4,0,NA,NA
"577",15,"117",1,1,1,5,0,NA,NA
"578",15,"118",1,1,1,4,0,NA,NA
"579",15,"119",1,1,1,4,0,NA,NA
"580",15,"120",1,1,1,4,0,NA,NA
"581",15,"121",1,1,1,4,1,NA,NA
"582",15,"122",1,1,1,5,1,NA,NA
"583",15,"123",1,1,1,5,1,NA,NA
"584",15,"124",1,1,1,3,1,NA,NA
"585",15,"125",1,1,1,6,1,NA,NA
"586",15,"126",1,1,1,3,1,NA,NA
"587",15,"127",1,1,1,3,1,NA,NA
"588",15,"128",1,1,1,5,1,NA,NA
"589",15,"129",1,1,1,4,1,NA,NA
"590",15,"130",1,1,1,3,1,NA,NA
"591",15,"131",1,1,1,4,1,NA,NA
"592",15,"132",1,1,1,5,1,NA,NA
"593",15,"133",1,1,1,4,1,NA,NA
"594",15,"134",1,1,1,4,1,NA,NA
"595",15,"135",1,1,1,4,1,NA,NA
"596",15,"136",1,1,1,4,1,NA,NA
"597",15,"137",1,1,1,3,1,NA,NA
"598",15,"138",1,1,1,4,1,NA,NA
"599",15,"139",1,1,1,3,1,NA,NA
"600",15,"140",1,1,1,6,1,NA,NA
"601",16,"11",1,1,1,4,0,NA,NA
"602",16,"12",1,1,1,4,0,NA,NA
"603",16,"13",1,1,1,3,0,NA,NA
"604",16,"14",1,1,1,5,0,NA,NA
"605",16,"15",1,1,1,1,0,NA,NA
"606",16,"16",1,1,1,4,0,NA,NA
"607",16,"17",1,1,1,5,0,NA,NA
"608",16,"18",1,1,1,2,0,NA,NA
"609",16,"19",1,1,1,4,0,NA,NA
"610",16,"110",1,1,1,6,0,NA,NA
"611",16,"111",1,1,1,6,0,NA,NA
"612",16,"112",1,1,1,5,0,NA,NA
"613",16,"113",1,1,1,3,0,NA,NA
"614",16,"114",1,1,1,3,0,NA,NA
"615",16,"115",1,1,1,4,0,NA,NA
"616",16,"116",1,1,1,4,0,NA,NA
"617",16,"117",1,1,1,4,0,NA,NA
"618",16,"118",1,1,1,4,0,NA,NA
"619",16,"119",1,1,1,4,0,NA,NA
"620",16,"120",1,1,1,2,0,NA,NA
"621",16,"121",1,1,1,5,1,NA,NA
"622",16,"122",1,1,1,6,1,NA,NA
"623",16,"123",1,1,1,5,1,NA,NA
"624",16,"124",1,1,1,3,1,NA,NA
"625",16,"125",1,1,1,4,1,NA,NA
"626",16,"126",1,1,1,6,1,NA,NA
"627",16,"127",1,1,1,4,1,NA,NA
"628",16,"128",1,1,1,5,1,NA,NA
"629",16,"129",1,1,1,5,1,NA,NA
"630",16,"130",1,1,1,2,1,NA,NA
"631",16,"131",1,1,1,4,1,NA,NA
"632",16,"132",1,1,1,5,1,NA,NA
"633",16,"133",1,1,1,5,1,NA,NA
"634",16,"134",1,1,1,4,1,NA,NA
"635",16,"135",1,1,1,5,1,NA,NA
"636",16,"136",1,1,1,4,1,NA,NA
"637",16,"137",1,1,1,3,1,NA,NA
"638",16,"138",1,1,1,5,1,NA,NA
"639",16,"139",1,1,1,1,1,NA,NA
"640",16,"140",1,1,1,1,1,NA,NA
"641",17,"11",1,1,1,3,0,NA,NA
"642",17,"12",1,1,1,4,0,NA,NA
"643",17,"13",1,1,1,2,0,NA,NA
"644",17,"14",1,1,1,3,0,NA,NA
"645",17,"15",1,1,1,4,0,NA,NA
"646",17,"16",1,1,1,3,0,NA,NA
"647",17,"17",1,1,1,4,0,NA,NA
"648",17,"18",1,1,1,3,0,NA,NA
"649",17,"19",1,1,1,3,0,NA,NA
"650",17,"110",1,1,1,4,0,NA,NA
"651",17,"111",1,1,1,5,0,NA,NA
"652",17,"112",1,1,1,4,0,NA,NA
"653",17,"113",1,1,1,3,0,NA,NA
"654",17,"114",1,1,1,3,0,NA,NA
"655",17,"115",1,1,1,3,0,NA,NA
"656",17,"116",1,1,1,3,0,NA,NA
"657",17,"117",1,1,1,4,0,NA,NA
"658",17,"118",1,1,1,3,0,NA,NA
"659",17,"119",1,1,1,3,0,NA,NA
"660",17,"120",1,1,1,3,0,NA,NA
"661",17,"121",1,1,1,4,1,NA,NA
"662",17,"122",1,1,1,3,1,NA,NA
"663",17,"123",1,1,1,4,1,NA,NA
"664",17,"124",1,1,1,3,1,NA,NA
"665",17,"125",1,1,1,5,1,NA,NA
"666",17,"126",1,1,1,2,1,NA,NA
"667",17,"127",1,1,1,3,1,NA,NA
"668",17,"128",1,1,1,3,1,NA,NA
"669",17,"129",1,1,1,3,1,NA,NA
"670",17,"130",1,1,1,3,1,NA,NA
"671",17,"131",1,1,1,3,1,NA,NA
"672",17,"132",1,1,1,4,1,NA,NA
"673",17,"133",1,1,1,3,1,NA,NA
"674",17,"134",1,1,1,3,1,NA,NA
"675",17,"135",1,1,1,3,1,NA,NA
"676",17,"136",1,1,1,3,1,NA,NA
"677",17,"137",1,1,1,3,1,NA,NA
"678",17,"138",1,1,1,4,1,NA,NA
"679",17,"139",1,1,1,2,1,NA,NA
"680",17,"140",1,1,1,3,1,NA,NA
"681",18,"11",1,1,1,3,1,NA,NA
"682",18,"12",1,1,1,3,1,NA,NA
"683",18,"13",1,1,1,2,1,NA,NA
"684",18,"14",1,1,1,4,1,NA,NA
"685",18,"15",1,1,1,4,1,NA,NA
"686",18,"16",1,1,1,3,1,NA,NA
"687",18,"17",1,1,1,4,1,NA,NA
"688",18,"18",1,1,1,4,1,NA,NA
"689",18,"19",1,1,1,4,1,NA,NA
"690",18,"110",1,1,1,5,1,NA,NA
"691",18,"111",1,1,1,4,1,NA,NA
"692",18,"112",1,1,1,5,1,NA,NA
"693",18,"113",1,1,1,4,1,NA,NA
"694",18,"114",1,1,1,4,1,NA,NA
"695",18,"115",1,1,1,4,1,NA,NA
"696",18,"116",1,1,1,3,1,NA,NA
"697",18,"117",1,1,1,2,1,NA,NA
"698",18,"118",1,1,1,4,1,NA,NA
"699",18,"119",1,1,1,4,1,NA,NA
"700",18,"120",1,1,1,4,1,NA,NA
"701",18,"121",1,1,1,4,0,NA,NA
"702",18,"122",1,1,1,4,0,NA,NA
"703",18,"123",1,1,1,5,0,NA,NA
"704",18,"124",1,1,1,4,0,NA,NA
"705",18,"125",1,1,1,2,0,NA,NA
"706",18,"126",1,1,1,4,0,NA,NA
"707",18,"127",1,1,1,4,0,NA,NA
"708",18,"128",1,1,1,4,0,NA,NA
"709",18,"129",1,1,1,4,0,NA,NA
"710",18,"130",1,1,1,4,0,NA,NA
"711",18,"131",1,1,1,4,0,NA,NA
"712",18,"132",1,1,1,4,0,NA,NA
"713",18,"133",1,1,1,4,0,NA,NA
"714",18,"134",1,1,1,3,0,NA,NA
"715",18,"135",1,1,1,4,0,NA,NA
"716",18,"136",1,1,1,4,0,NA,NA
"717",18,"137",1,1,1,4,0,NA,NA
"718",18,"138",1,1,1,5,0,NA,NA
"719",18,"139",1,1,1,3,0,NA,NA
"720",18,"140",1,1,1,3,0,NA,NA
"721",19,"11",1,1,1,5,0,NA,NA
"722",19,"12",1,1,1,4,0,NA,NA
"723",19,"13",1,1,1,2,0,NA,NA
"724",19,"14",1,1,1,4,0,NA,NA
"725",19,"15",1,1,1,5,0,NA,NA
"726",19,"16",1,1,1,3,0,NA,NA
"727",19,"17",1,1,1,6,0,NA,NA
"728",19,"18",1,1,1,1,0,NA,NA
"729",19,"19",1,1,1,3,0,NA,NA
"730",19,"110",1,1,1,4,0,NA,NA
"731",19,"111",1,1,1,6,0,NA,NA
"732",19,"112",1,1,1,5,0,NA,NA
"733",19,"113",1,1,1,3,0,NA,NA
"734",19,"114",1,1,1,3,0,NA,NA
"735",19,"115",1,1,1,1,0,NA,NA
"736",19,"116",1,1,1,5,0,NA,NA
"737",19,"117",1,1,1,5,0,NA,NA
"738",19,"118",1,1,1,4,0,NA,NA
"739",19,"119",1,1,1,3,0,NA,NA
"740",19,"120",1,1,1,3,0,NA,NA
"741",19,"121",1,1,1,4,1,NA,NA
"742",19,"122",1,1,1,5,1,NA,NA
"743",19,"123",1,1,1,4,1,NA,NA
"744",19,"124",1,1,1,3,1,NA,NA
"745",19,"125",1,1,1,6,1,NA,NA
"746",19,"126",1,1,1,4,1,NA,NA
"747",19,"127",1,1,1,2,1,NA,NA
"748",19,"128",1,1,1,4,1,NA,NA
"749",19,"129",1,1,1,4,1,NA,NA
"750",19,"130",1,1,1,3,1,NA,NA
"751",19,"131",1,1,1,3,1,NA,NA
"752",19,"132",1,1,1,6,1,NA,NA
"753",19,"133",1,1,1,5,1,NA,NA
"754",19,"134",1,1,1,2,1,NA,NA
"755",19,"135",1,1,1,5,1,NA,NA
"756",19,"136",1,1,1,3,1,NA,NA
"757",19,"137",1,1,1,4,1,NA,NA
"758",19,"138",1,1,1,4,1,NA,NA
"759",19,"139",1,1,1,1,1,NA,NA
"760",19,"140",1,1,1,1,1,NA,NA
"761",20,"11",1,1,1,5,1,NA,NA
"762",20,"12",1,1,1,2,1,NA,NA
"763",20,"13",1,1,1,5,1,NA,NA
"764",20,"14",1,1,1,5,1,NA,NA
"765",20,"15",1,1,1,3,1,NA,NA
"766",20,"16",1,1,1,4,1,NA,NA
"767",20,"17",1,1,1,4,1,NA,NA
"768",20,"18",1,1,1,5,1,NA,NA
"769",20,"19",1,1,1,4,1,NA,NA
"770",20,"110",1,1,1,4,1,NA,NA
"771",20,"111",1,1,1,5,1,NA,NA
"772",20,"112",1,1,1,2,1,NA,NA
"773",20,"113",1,1,1,4,1,NA,NA
"774",20,"114",1,1,1,4,1,NA,NA
"775",20,"115",1,1,1,5,1,NA,NA
"776",20,"116",1,1,1,5,1,NA,NA
"777",20,"117",1,1,1,4,1,NA,NA
"778",20,"118",1,1,1,5,1,NA,NA
"779",20,"119",1,1,1,3,1,NA,NA
"780",20,"120",1,1,1,4,1,NA,NA
"781",20,"121",1,1,1,5,0,NA,NA
"782",20,"122",1,1,1,6,0,NA,NA
"783",20,"123",1,1,1,4,0,NA,NA
"784",20,"124",1,1,1,4,0,NA,NA
"785",20,"125",1,1,1,2,0,NA,NA
"786",20,"126",1,1,1,5,0,NA,NA
"787",20,"127",1,1,1,4,0,NA,NA
"788",20,"128",1,1,1,5,0,NA,NA
"789",20,"129",1,1,1,4,0,NA,NA
"790",20,"130",1,1,1,4,0,NA,NA
"791",20,"131",1,1,1,4,0,NA,NA
"792",20,"132",1,1,1,5,0,NA,NA
"793",20,"133",1,1,1,5,0,NA,NA
"794",20,"134",1,1,1,4,0,NA,NA
"795",20,"135",1,1,1,4,0,NA,NA
"796",20,"136",1,1,1,4,0,NA,NA
"797",20,"137",1,1,1,4,0,NA,NA
"798",20,"138",1,1,1,5,0,NA,NA
"799",20,"139",1,1,1,2,0,NA,NA
"800",20,"140",1,1,1,4,0,NA,NA
"801",21,"11",1,1,1,6,1,NA,NA
"802",21,"12",1,1,1,6,1,NA,NA
"803",21,"13",1,1,1,6,1,NA,NA
"804",21,"14",1,1,1,6,1,NA,NA
"805",21,"15",1,1,1,6,1,NA,NA
"806",21,"16",1,1,1,6,1,NA,NA
"807",21,"17",1,1,1,6,1,NA,NA
"808",21,"18",1,1,1,6,1,NA,NA
"809",21,"19",1,1,1,6,1,NA,NA
"810",21,"110",1,1,1,6,1,NA,NA
"811",21,"111",1,1,1,6,1,NA,NA
"812",21,"112",1,1,1,6,1,NA,NA
"813",21,"113",1,1,1,6,1,NA,NA
"814",21,"114",1,1,1,6,1,NA,NA
"815",21,"115",1,1,1,6,1,NA,NA
"816",21,"116",1,1,1,6,1,NA,NA
"817",21,"117",1,1,1,6,1,NA,NA
"818",21,"118",1,1,1,6,1,NA,NA
"819",21,"119",1,1,1,6,1,NA,NA
"820",21,"120",1,1,1,6,1,NA,NA
"821",21,"121",1,1,1,4,0,NA,NA
"822",21,"122",1,1,1,5,0,NA,NA
"823",21,"123",1,1,1,4,0,NA,NA
"824",21,"124",1,1,1,4,0,NA,NA
"825",21,"125",1,1,1,2,0,NA,NA
"826",21,"126",1,1,1,4,0,NA,NA
"827",21,"127",1,1,1,3,0,NA,NA
"828",21,"128",1,1,1,4,0,NA,NA
"829",21,"129",1,1,1,4,0,NA,NA
"830",21,"130",1,1,1,4,0,NA,NA
"831",21,"131",1,1,1,2,0,NA,NA
"832",21,"132",1,1,1,6,0,NA,NA
"833",21,"133",1,1,1,2,0,NA,NA
"834",21,"134",1,1,1,3,0,NA,NA
"835",21,"135",1,1,1,4,0,NA,NA
"836",21,"136",1,1,1,4,0,NA,NA
"837",21,"137",1,1,1,6,0,NA,NA
"838",21,"138",1,1,1,5,0,NA,NA
"839",21,"139",1,1,1,1,0,NA,NA
"840",21,"140",1,1,1,1,0,NA,NA
"841",22,"11",1,1,1,4,1,NA,NA
"842",22,"12",1,1,1,4,1,NA,NA
"843",22,"13",1,1,1,1,1,NA,NA
"844",22,"14",1,1,1,3,1,NA,NA
"845",22,"15",1,1,1,4,1,NA,NA
"846",22,"16",1,1,1,3,1,NA,NA
"847",22,"17",1,1,1,6,1,NA,NA
"848",22,"18",1,1,1,5,1,NA,NA
"849",22,"19",1,1,1,4,1,NA,NA
"850",22,"110",1,1,1,6,1,NA,NA
"851",22,"111",1,1,1,6,1,NA,NA
"852",22,"112",1,1,1,1,1,NA,NA
"853",22,"113",1,1,1,3,1,NA,NA
"854",22,"114",1,1,1,3,1,NA,NA
"855",22,"115",1,1,1,3,1,NA,NA
"856",22,"116",1,1,1,4,1,NA,NA
"857",22,"117",1,1,1,4,1,NA,NA
"858",22,"118",1,1,1,4,1,NA,NA
"859",22,"119",1,1,1,2,1,NA,NA
"860",22,"120",1,1,1,3,1,NA,NA
"861",22,"121",1,1,1,4,0,NA,NA
"862",22,"122",1,1,1,4,0,NA,NA
"863",22,"123",1,1,1,5,0,NA,NA
"864",22,"124",1,1,1,4,0,NA,NA
"865",22,"125",1,1,1,2,0,NA,NA
"866",22,"126",1,1,1,5,0,NA,NA
"867",22,"127",1,1,1,5,0,NA,NA
"868",22,"128",1,1,1,5,0,NA,NA
"869",22,"129",1,1,1,5,0,NA,NA
"870",22,"130",1,1,1,4,0,NA,NA
"871",22,"131",1,1,1,4,0,NA,NA
"872",22,"132",1,1,1,4,0,NA,NA
"873",22,"133",1,1,1,5,0,NA,NA
"874",22,"134",1,1,1,4,0,NA,NA
"875",22,"135",1,1,1,4,0,NA,NA
"876",22,"136",1,1,1,4,0,NA,NA
"877",22,"137",1,1,1,5,0,NA,NA
"878",22,"138",1,1,1,4,0,NA,NA
"879",22,"139",1,1,1,1,0,NA,NA
"880",22,"140",1,1,1,2,0,NA,NA
"881",23,"11",1,1,1,5,1,NA,NA
"882",23,"12",1,1,1,2,1,NA,NA
"883",23,"13",1,1,1,1,1,NA,NA
"884",23,"14",1,1,1,5,1,NA,NA
"885",23,"15",1,1,1,6,1,NA,NA
"886",23,"16",1,1,1,3,1,NA,NA
"887",23,"17",1,1,1,6,1,NA,NA
"888",23,"18",1,1,1,5,1,NA,NA
"889",23,"19",1,1,1,5,1,NA,NA
"890",23,"110",1,1,1,6,1,NA,NA
"891",23,"111",1,1,1,6,1,NA,NA
"892",23,"112",1,1,1,6,1,NA,NA
"893",23,"113",1,1,1,5,1,NA,NA
"894",23,"114",1,1,1,5,1,NA,NA
"895",23,"115",1,1,1,6,1,NA,NA
"896",23,"116",1,1,1,6,1,NA,NA
"897",23,"117",1,1,1,4,1,NA,NA
"898",23,"118",1,1,1,5,1,NA,NA
"899",23,"119",1,1,1,4,1,NA,NA
"900",23,"120",1,1,1,5,1,NA,NA
"901",23,"121",1,1,1,6,0,NA,NA
"902",23,"122",1,1,1,2,0,NA,NA
"903",23,"123",1,1,1,6,0,NA,NA
"904",23,"124",1,1,1,4,0,NA,NA
"905",23,"125",1,1,1,6,0,NA,NA
"906",23,"126",1,1,1,5,0,NA,NA
"907",23,"127",1,1,1,4,0,NA,NA
"908",23,"128",1,1,1,5,0,NA,NA
"909",23,"129",1,1,1,5,0,NA,NA
"910",23,"130",1,1,1,6,0,NA,NA
"911",23,"131",1,1,1,3,0,NA,NA
"912",23,"132",1,1,1,1,0,NA,NA
"913",23,"133",1,1,1,5,0,NA,NA
"914",23,"134",1,1,1,1,0,NA,NA
"915",23,"135",1,1,1,5,0,NA,NA
"916",23,"136",1,1,1,4,0,NA,NA
"917",23,"137",1,1,1,2,0,NA,NA
"918",23,"138",1,1,1,6,0,NA,NA
"919",23,"139",1,1,1,1,0,NA,NA
"920",23,"140",1,1,1,6,0,NA,NA
"921",24,"11",1,1,1,3,1,NA,NA
"922",24,"12",1,1,1,2,1,NA,NA
"923",24,"13",1,1,1,2,1,NA,NA
"924",24,"14",1,1,1,5,1,NA,NA
"925",24,"15",1,1,1,3,1,NA,NA
"926",24,"16",1,1,1,3,1,NA,NA
"927",24,"17",1,1,1,6,1,NA,NA
"928",24,"18",1,1,1,2,1,NA,NA
"929",24,"19",1,1,1,5,1,NA,NA
"930",24,"110",1,1,1,6,1,NA,NA
"931",24,"111",1,1,1,5,1,NA,NA
"932",24,"112",1,1,1,6,1,NA,NA
"933",24,"113",1,1,1,4,1,NA,NA
"934",24,"114",1,1,1,2,1,NA,NA
"935",24,"115",1,1,1,4,1,NA,NA
"936",24,"116",1,1,1,5,1,NA,NA
"937",24,"117",1,1,1,5,1,NA,NA
"938",24,"118",1,1,1,4,1,NA,NA
"939",24,"119",1,1,1,2,1,NA,NA
"940",24,"120",1,1,1,3,1,NA,NA
"941",24,"121",1,1,1,2,0,NA,NA
"942",24,"122",1,1,1,5,0,NA,NA
"943",24,"123",1,1,1,4,0,NA,NA
"944",24,"124",1,1,1,3,0,NA,NA
"945",24,"125",1,1,1,3,0,NA,NA
"946",24,"126",1,1,1,2,0,NA,NA
"947",24,"127",1,1,1,3,0,NA,NA
"948",24,"128",1,1,1,4,0,NA,NA
"949",24,"129",1,1,1,2,0,NA,NA
"950",24,"130",1,1,1,3,0,NA,NA
"951",24,"131",1,1,1,4,0,NA,NA
"952",24,"132",1,1,1,6,0,NA,NA
"953",24,"133",1,1,1,2,0,NA,NA
"954",24,"134",1,1,1,4,0,NA,NA
"955",24,"135",1,1,1,4,0,NA,NA
"956",24,"136",1,1,1,4,0,NA,NA
"957",24,"137",1,1,1,3,0,NA,NA
"958",24,"138",1,1,1,3,0,NA,NA
"959",24,"139",1,1,1,1,0,NA,NA
"960",24,"140",1,1,1,1,0,NA,NA
"961",25,"11",1,1,1,6,0,NA,NA
"962",25,"12",1,1,1,1,0,NA,NA
"963",25,"13",1,1,1,2,0,NA,NA
"964",25,"14",1,1,1,2,0,NA,NA
"965",25,"15",1,1,1,2,0,NA,NA
"966",25,"16",1,1,1,3,0,NA,NA
"967",25,"17",1,1,1,4,0,NA,NA
"968",25,"18",1,1,1,1,0,NA,NA
"969",25,"19",1,1,1,5,0,NA,NA
"970",25,"110",1,1,1,6,0,NA,NA
"971",25,"111",1,1,1,6,0,NA,NA
"972",25,"112",1,1,1,5,0,NA,NA
"973",25,"113",1,1,1,4,0,NA,NA
"974",25,"114",1,1,1,3,0,NA,NA
"975",25,"115",1,1,1,2,0,NA,NA
"976",25,"116",1,1,1,5,0,NA,NA
"977",25,"117",1,1,1,4,0,NA,NA
"978",25,"118",1,1,1,4,0,NA,NA
"979",25,"119",1,1,1,4,0,NA,NA
"980",25,"120",1,1,1,4,0,NA,NA
"981",25,"121",1,1,1,6,1,NA,NA
"982",25,"122",1,1,1,1,1,NA,NA
"983",25,"123",1,1,1,5,1,NA,NA
"984",25,"124",1,1,1,5,1,NA,NA
"985",25,"125",1,1,1,6,1,NA,NA
"986",25,"126",1,1,1,5,1,NA,NA
"987",25,"127",1,1,1,5,1,NA,NA
"988",25,"128",1,1,1,3,1,NA,NA
"989",25,"129",1,1,1,4,1,NA,NA
"990",25,"130",1,1,1,2,1,NA,NA
"991",25,"131",1,1,1,3,1,NA,NA
"992",25,"132",1,1,1,6,1,NA,NA
"993",25,"133",1,1,1,4,1,NA,NA
"994",25,"134",1,1,1,5,1,NA,NA
"995",25,"135",1,1,1,5,1,NA,NA
"996",25,"136",1,1,1,5,1,NA,NA
"997",25,"137",1,1,1,6,1,NA,NA
"998",25,"138",1,1,1,5,1,NA,NA
"999",25,"139",1,1,1,1,1,NA,NA
"1000",25,"140",1,1,1,2,1,NA,NA
"1001",26,"11",1,1,1,3,0,NA,NA
"1002",26,"12",1,1,1,1,0,NA,NA
"1003",26,"13",1,1,1,4,0,NA,NA
"1004",26,"14",1,1,1,3,0,NA,NA
"1005",26,"15",1,1,1,4,0,NA,NA
"1006",26,"16",1,1,1,3,0,NA,NA
"1007",26,"17",1,1,1,6,0,NA,NA
"1008",26,"18",1,1,1,1,0,NA,NA
"1009",26,"19",1,1,1,4,0,NA,NA
"1010",26,"110",1,1,1,4,0,NA,NA
"1011",26,"111",1,1,1,2,0,NA,NA
"1012",26,"112",1,1,1,5,0,NA,NA
"1013",26,"113",1,1,1,2,0,NA,NA
"1014",26,"114",1,1,1,3,0,NA,NA
"1015",26,"115",1,1,1,3,0,NA,NA
"1016",26,"116",1,1,1,4,0,NA,NA
"1017",26,"117",1,1,1,4,0,NA,NA
"1018",26,"118",1,1,1,4,0,NA,NA
"1019",26,"119",1,1,1,4,0,NA,NA
"1020",26,"120",1,1,1,3,0,NA,NA
"1021",26,"121",1,1,1,4,1,NA,NA
"1022",26,"122",1,1,1,4,1,NA,NA
"1023",26,"123",1,1,1,5,1,NA,NA
"1024",26,"124",1,1,1,3,1,NA,NA
"1025",26,"125",1,1,1,6,1,NA,NA
"1026",26,"126",1,1,1,3,1,NA,NA
"1027",26,"127",1,1,1,3,1,NA,NA
"1028",26,"128",1,1,1,3,1,NA,NA
"1029",26,"129",1,1,1,5,1,NA,NA
"1030",26,"130",1,1,1,2,1,NA,NA
"1031",26,"131",1,1,1,3,1,NA,NA
"1032",26,"132",1,1,1,5,1,NA,NA
"1033",26,"133",1,1,1,4,1,NA,NA
"1034",26,"134",1,1,1,5,1,NA,NA
"1035",26,"135",1,1,1,5,1,NA,NA
"1036",26,"136",1,1,1,3,1,NA,NA
"1037",26,"137",1,1,1,6,1,NA,NA
"1038",26,"138",1,1,1,6,1,NA,NA
"1039",26,"139",1,1,1,1,1,NA,NA
"1040",26,"140",1,1,1,6,1,NA,NA
"1041",27,"11",1,1,1,4,0,NA,NA
"1042",27,"12",1,1,1,6,0,NA,NA
"1043",27,"13",1,1,1,4,0,NA,NA
"1044",27,"14",1,1,1,5,0,NA,NA
"1045",27,"15",1,1,1,3,0,NA,NA
"1046",27,"16",1,1,1,4,0,NA,NA
"1047",27,"17",1,1,1,4,0,NA,NA
"1048",27,"18",1,1,1,2,0,NA,NA
"1049",27,"19",1,1,1,3,0,NA,NA
"1050",27,"110",1,1,1,4,0,NA,NA
"1051",27,"111",1,1,1,4,0,NA,NA
"1052",27,"112",1,1,1,1,0,NA,NA
"1053",27,"113",1,1,1,4,0,NA,NA
"1054",27,"114",1,1,1,4,0,NA,NA
"1055",27,"115",1,1,1,4,0,NA,NA
"1056",27,"116",1,1,1,5,0,NA,NA
"1057",27,"117",1,1,1,4,0,NA,NA
"1058",27,"118",1,1,1,5,0,NA,NA
"1059",27,"119",1,1,1,4,0,NA,NA
"1060",27,"120",1,1,1,3,0,NA,NA
"1061",27,"121",1,1,1,3,1,NA,NA
"1062",27,"122",1,1,1,4,1,NA,NA
"1063",27,"123",1,1,1,4,1,NA,NA
"1064",27,"124",1,1,1,3,1,NA,NA
"1065",27,"125",1,1,1,5,1,NA,NA
"1066",27,"126",1,1,1,5,1,NA,NA
"1067",27,"127",1,1,1,3,1,NA,NA
"1068",27,"128",1,1,1,3,1,NA,NA
"1069",27,"129",1,1,1,4,1,NA,NA
"1070",27,"130",1,1,1,3,1,NA,NA
"1071",27,"131",1,1,1,3,1,NA,NA
"1072",27,"132",1,1,1,5,1,NA,NA
"1073",27,"133",1,1,1,5,1,NA,NA
"1074",27,"134",1,1,1,4,1,NA,NA
"1075",27,"135",1,1,1,3,1,NA,NA
"1076",27,"136",1,1,1,4,1,NA,NA
"1077",27,"137",1,1,1,3,1,NA,NA
"1078",27,"138",1,1,1,4,1,NA,NA
"1079",27,"139",1,1,1,3,1,NA,NA
"1080",27,"140",1,1,1,3,1,NA,NA
"1081",28,"11",1,1,1,1,0,NA,NA
"1082",28,"12",1,1,1,5,0,NA,NA
"1083",28,"13",1,1,1,1,0,NA,NA
"1084",28,"14",1,1,1,6,0,NA,NA
"1085",28,"15",1,1,1,1,0,NA,NA
"1086",28,"16",1,1,1,3,0,NA,NA
"1087",28,"17",1,1,1,5,0,NA,NA
"1088",28,"18",1,1,1,1,0,NA,NA
"1089",28,"19",1,1,1,5,0,NA,NA
"1090",28,"110",1,1,1,6,0,NA,NA
"1091",28,"111",1,1,1,4,0,NA,NA
"1092",28,"112",1,1,1,3,0,NA,NA
"1093",28,"113",1,1,1,3,0,NA,NA
"1094",28,"114",1,1,1,3,0,NA,NA
"1095",28,"115",1,1,1,4,0,NA,NA
"1096",28,"116",1,1,1,2,0,NA,NA
"1097",28,"117",1,1,1,3,0,NA,NA
"1098",28,"118",1,1,1,3,0,NA,NA
"1099",28,"119",1,1,1,2,0,NA,NA
"1100",28,"120",1,1,1,3,0,NA,NA
"1101",28,"121",1,1,1,3,1,NA,NA
"1102",28,"122",1,1,1,5,1,NA,NA
"1103",28,"123",1,1,1,5,1,NA,NA
"1104",28,"124",1,1,1,4,1,NA,NA
"1105",28,"125",1,1,1,4,1,NA,NA
"1106",28,"126",1,1,1,2,1,NA,NA
"1107",28,"127",1,1,1,3,1,NA,NA
"1108",28,"128",1,1,1,6,1,NA,NA
"1109",28,"129",1,1,1,4,1,NA,NA
"1110",28,"130",1,1,1,3,1,NA,NA
"1111",28,"131",1,1,1,5,1,NA,NA
"1112",28,"132",1,1,1,6,1,NA,NA
"1113",28,"133",1,1,1,4,1,NA,NA
"1114",28,"134",1,1,1,2,1,NA,NA
"1115",28,"135",1,1,1,3,1,NA,NA
"1116",28,"136",1,1,1,4,1,NA,NA
"1117",28,"137",1,1,1,6,1,NA,NA
"1118",28,"138",1,1,1,5,1,NA,NA
"1119",28,"139",1,1,1,4,1,NA,NA
"1120",28,"140",1,1,1,6,1,NA,NA
"1121",29,"11",1,1,1,3,0,NA,NA
"1122",29,"12",1,1,1,3,0,NA,NA
"1123",29,"13",1,1,1,3,0,NA,NA
"1124",29,"14",1,1,1,5,0,NA,NA
"1125",29,"15",1,1,1,4,0,NA,NA
"1126",29,"16",1,1,1,3,0,NA,NA
"1127",29,"17",1,1,1,4,0,NA,NA
"1128",29,"18",1,1,1,2,0,NA,NA
"1129",29,"19",1,1,1,4,0,NA,NA
"1130",29,"110",1,1,1,5,0,NA,NA
"1131",29,"111",1,1,1,3,0,NA,NA
"1132",29,"112",1,1,1,3,0,NA,NA
"1133",29,"113",1,1,1,3,0,NA,NA
"1134",29,"114",1,1,1,3,0,NA,NA
"1135",29,"115",1,1,1,2,0,NA,NA
"1136",29,"116",1,1,1,3,0,NA,NA
"1137",29,"117",1,1,1,4,0,NA,NA
"1138",29,"118",1,1,1,4,0,NA,NA
"1139",29,"119",1,1,1,4,0,NA,NA
"1140",29,"120",1,1,1,3,0,NA,NA
"1141",29,"121",1,1,1,5,1,NA,NA
"1142",29,"122",1,1,1,5,1,NA,NA
"1143",29,"123",1,1,1,5,1,NA,NA
"1144",29,"124",1,1,1,4,1,NA,NA
"1145",29,"125",1,1,1,5,1,NA,NA
"1146",29,"126",1,1,1,4,1,NA,NA
"1147",29,"127",1,1,1,4,1,NA,NA
"1148",29,"128",1,1,1,4,1,NA,NA
"1149",29,"129",1,1,1,5,1,NA,NA
"1150",29,"130",1,1,1,4,1,NA,NA
"1151",29,"131",1,1,1,3,1,NA,NA
"1152",29,"132",1,1,1,4,1,NA,NA
"1153",29,"133",1,1,1,4,1,NA,NA
"1154",29,"134",1,1,1,4,1,NA,NA
"1155",29,"135",1,1,1,4,1,NA,NA
"1156",29,"136",1,1,1,4,1,NA,NA
"1157",29,"137",1,1,1,5,1,NA,NA
"1158",29,"138",1,1,1,5,1,NA,NA
"1159",29,"139",1,1,1,3,1,NA,NA
"1160",29,"140",1,1,1,4,1,NA,NA
"1161",30,"11",1,1,1,5,0,NA,NA
"1162",30,"12",1,1,1,2,0,NA,NA
"1163",30,"13",1,1,1,5,0,NA,NA
"1164",30,"14",1,1,1,6,0,NA,NA
"1165",30,"15",1,1,1,1,0,NA,NA
"1166",30,"16",1,1,1,3,0,NA,NA
"1167",30,"17",1,1,1,1,0,NA,NA
"1168",30,"18",1,1,1,6,0,NA,NA
"1169",30,"19",1,1,1,3,0,NA,NA
"1170",30,"110",1,1,1,1,0,NA,NA
"1171",30,"111",1,1,1,6,0,NA,NA
"1172",30,"112",1,1,1,3,0,NA,NA
"1173",30,"113",1,1,1,5,0,NA,NA
"1174",30,"114",1,1,1,1,0,NA,NA
"1175",30,"115",1,1,1,4,0,NA,NA
"1176",30,"116",1,1,1,1,0,NA,NA
"1177",30,"117",1,1,1,4,0,NA,NA
"1178",30,"118",1,1,1,5,0,NA,NA
"1179",30,"119",1,1,1,3,0,NA,NA
"1180",30,"120",1,1,1,3,0,NA,NA
"1181",30,"121",1,1,1,5,1,NA,NA
"1182",30,"122",1,1,1,6,1,NA,NA
"1183",30,"123",1,1,1,5,1,NA,NA
"1184",30,"124",1,1,1,3,1,NA,NA
"1185",30,"125",1,1,1,3,1,NA,NA
"1186",30,"126",1,1,1,1,1,NA,NA
"1187",30,"127",1,1,1,3,1,NA,NA
"1188",30,"128",1,1,1,5,1,NA,NA
"1189",30,"129",1,1,1,3,1,NA,NA
"1190",30,"130",1,1,1,3,1,NA,NA
"1191",30,"131",1,1,1,4,1,NA,NA
"1192",30,"132",1,1,1,5,1,NA,NA
"1193",30,"133",1,1,1,1,1,NA,NA
"1194",30,"134",1,1,1,2,1,NA,NA
"1195",30,"135",1,1,1,4,1,NA,NA
"1196",30,"136",1,1,1,3,1,NA,NA
"1197",30,"137",1,1,1,1,1,NA,NA
"1198",30,"138",1,1,1,6,1,NA,NA
"1199",30,"139",1,1,1,3,1,NA,NA
"1200",30,"140",1,1,1,1,1,NA,NA
"1201",31,"11",1,1,1,3,0,NA,NA
"1202",31,"12",1,1,1,3,0,NA,NA
"1203",31,"13",1,1,1,2,0,NA,NA
"1204",31,"14",1,1,1,3,0,NA,NA
"1205",31,"15",1,1,1,3,0,NA,NA
"1206",31,"16",1,1,1,2,0,NA,NA
"1207",31,"17",1,1,1,5,0,NA,NA
"1208",31,"18",1,1,1,6,0,NA,NA
"1209",31,"19",1,1,1,5,0,NA,NA
"1210",31,"110",1,1,1,4,0,NA,NA
"1211",31,"111",1,1,1,2,0,NA,NA
"1212",31,"112",1,1,1,5,0,NA,NA
"1213",31,"113",1,1,1,4,0,NA,NA
"1214",31,"114",1,1,1,3,0,NA,NA
"1215",31,"115",1,1,1,1,0,NA,NA
"1216",31,"116",1,1,1,4,0,NA,NA
"1217",31,"117",1,1,1,3,0,NA,NA
"1218",31,"118",1,1,1,3,0,NA,NA
"1219",31,"119",1,1,1,4,0,NA,NA
"1220",31,"120",1,1,1,3,0,NA,NA
"1221",31,"121",1,1,1,3,1,NA,NA
"1222",31,"122",1,1,1,3,1,NA,NA
"1223",31,"123",1,1,1,4,1,NA,NA
"1224",31,"124",1,1,1,2,1,NA,NA
"1225",31,"125",1,1,1,3,1,NA,NA
"1226",31,"126",1,1,1,4,1,NA,NA
"1227",31,"127",1,1,1,2,1,NA,NA
"1228",31,"128",1,1,1,2,1,NA,NA
"1229",31,"129",1,1,1,3,1,NA,NA
"1230",31,"130",1,1,1,3,1,NA,NA
"1231",31,"131",1,1,1,3,1,NA,NA
"1232",31,"132",1,1,1,5,1,NA,NA
"1233",31,"133",1,1,1,1,1,NA,NA
"1234",31,"134",1,1,1,2,1,NA,NA
"1235",31,"135",1,1,1,3,1,NA,NA
"1236",31,"136",1,1,1,3,1,NA,NA
"1237",31,"137",1,1,1,3,1,NA,NA
"1238",31,"138",1,1,1,6,1,NA,NA
"1239",31,"139",1,1,1,2,1,NA,NA
"1240",31,"140",1,1,1,3,1,NA,NA
"1241",32,"11",1,1,1,2,0,NA,NA
"1242",32,"12",1,1,1,1,0,NA,NA
"1243",32,"13",1,1,1,1,0,NA,NA
"1244",32,"14",1,1,1,4,0,NA,NA
"1245",32,"15",1,1,1,2,0,NA,NA
"1246",32,"16",1,1,1,3,0,NA,NA
"1247",32,"17",1,1,1,5,0,NA,NA
"1248",32,"18",1,1,1,1,0,NA,NA
"1249",32,"19",1,1,1,3,0,NA,NA
"1250",32,"110",1,1,1,3,0,NA,NA
"1251",32,"111",1,1,1,5,0,NA,NA
"1252",32,"112",1,1,1,5,0,NA,NA
"1253",32,"113",1,1,1,3,0,NA,NA
"1254",32,"114",1,1,1,3,0,NA,NA
"1255",32,"115",1,1,1,3,0,NA,NA
"1256",32,"116",1,1,1,4,0,NA,NA
"1257",32,"117",1,1,1,4,0,NA,NA
"1258",32,"118",1,1,1,4,0,NA,NA
"1259",32,"119",1,1,1,3,0,NA,NA
"1260",32,"120",1,1,1,3,0,NA,NA
"1261",32,"121",1,1,1,4,1,NA,NA
"1262",32,"122",1,1,1,4,1,NA,NA
"1263",32,"123",1,1,1,4,1,NA,NA
"1264",32,"124",1,1,1,3,1,NA,NA
"1265",32,"125",1,1,1,3,1,NA,NA
"1266",32,"126",1,1,1,5,1,NA,NA
"1267",32,"127",1,1,1,2,1,NA,NA
"1268",32,"128",1,1,1,3,1,NA,NA
"1269",32,"129",1,1,1,4,1,NA,NA
"1270",32,"130",1,1,1,3,1,NA,NA
"1271",32,"131",1,1,1,2,1,NA,NA
"1272",32,"132",1,1,1,4,1,NA,NA
"1273",32,"133",1,1,1,3,1,NA,NA
"1274",32,"134",1,1,1,3,1,NA,NA
"1275",32,"135",1,1,1,3,1,NA,NA
"1276",32,"136",1,1,1,3,1,NA,NA
"1277",32,"137",1,1,1,4,1,NA,NA
"1278",32,"138",1,1,1,3,1,NA,NA
"1279",32,"139",1,1,1,4,1,NA,NA
"1280",32,"140",1,1,1,3,1,NA,NA
"1281",33,"11",1,1,1,5,0,NA,NA
"1282",33,"12",1,1,1,6,0,NA,NA
"1283",33,"13",1,1,1,1,0,NA,NA
"1284",33,"14",1,1,1,3,0,NA,NA
"1285",33,"15",1,1,1,2,0,NA,NA
"1286",33,"16",1,1,1,3,0,NA,NA
"1287",33,"17",1,1,1,5,0,NA,NA
"1288",33,"18",1,1,1,1,0,NA,NA
"1289",33,"19",1,1,1,3,0,NA,NA
"1290",33,"110",1,1,1,4,0,NA,NA
"1291",33,"111",1,1,1,1,0,NA,NA
"1292",33,"112",1,1,1,4,0,NA,NA
"1293",33,"113",1,1,1,3,0,NA,NA
"1294",33,"114",1,1,1,3,0,NA,NA
"1295",33,"115",1,1,1,4,0,NA,NA
"1296",33,"116",1,1,1,4,0,NA,NA
"1297",33,"117",1,1,1,4,0,NA,NA
"1298",33,"118",1,1,1,3,0,NA,NA
"1299",33,"119",1,1,1,5,0,NA,NA
"1300",33,"120",1,1,1,3,0,NA,NA
"1301",33,"121",1,1,1,1,1,NA,NA
"1302",33,"122",1,1,1,4,1,NA,NA
"1303",33,"123",1,1,1,3,1,NA,NA
"1304",33,"124",1,1,1,4,1,NA,NA
"1305",33,"125",1,1,1,5,1,NA,NA
"1306",33,"126",1,1,1,3,1,NA,NA
"1307",33,"127",1,1,1,3,1,NA,NA
"1308",33,"128",1,1,1,6,1,NA,NA
"1309",33,"129",1,1,1,4,1,NA,NA
"1310",33,"130",1,1,1,6,1,NA,NA
"1311",33,"131",1,1,1,3,1,NA,NA
"1312",33,"132",1,1,1,3,1,NA,NA
"1313",33,"133",1,1,1,3,1,NA,NA
"1314",33,"134",1,1,1,1,1,NA,NA
"1315",33,"135",1,1,1,4,1,NA,NA
"1316",33,"136",1,1,1,3,1,NA,NA
"1317",33,"137",1,1,1,3,1,NA,NA
"1318",33,"138",1,1,1,3,1,NA,NA
"1319",33,"139",1,1,1,1,1,NA,NA
"1320",33,"140",1,1,1,3,1,NA,NA
"1321",34,"11",1,1,1,3,0,NA,NA
"1322",34,"12",1,1,1,3,0,NA,NA
"1323",34,"13",1,1,1,2,0,NA,NA
"1324",34,"14",1,1,1,3,0,NA,NA
"1325",34,"15",1,1,1,2,0,NA,NA
"1326",34,"16",1,1,1,2,0,NA,NA
"1327",34,"17",1,1,1,6,0,NA,NA
"1328",34,"18",1,1,1,1,0,NA,NA
"1329",34,"19",1,1,1,3,0,NA,NA
"1330",34,"110",1,1,1,4,0,NA,NA
"1331",34,"111",1,1,1,3,0,NA,NA
"1332",34,"112",1,1,1,2,0,NA,NA
"1333",34,"113",1,1,1,2,0,NA,NA
"1334",34,"114",1,1,1,2,0,NA,NA
"1335",34,"115",1,1,1,4,0,NA,NA
"1336",34,"116",1,1,1,2,0,NA,NA
"1337",34,"117",1,1,1,3,0,NA,NA
"1338",34,"118",1,1,1,3,0,NA,NA
"1339",34,"119",1,1,1,4,0,NA,NA
"1340",34,"120",1,1,1,3,0,NA,NA
"1341",34,"121",1,1,1,6,1,NA,NA
"1342",34,"122",1,1,1,6,1,NA,NA
"1343",34,"123",1,1,1,6,1,NA,NA
"1344",34,"124",1,1,1,6,1,NA,NA
"1345",34,"125",1,1,1,3,1,NA,NA
"1346",34,"126",1,1,1,6,1,NA,NA
"1347",34,"127",1,1,1,6,1,NA,NA
"1348",34,"128",1,1,1,6,1,NA,NA
"1349",34,"129",1,1,1,6,1,NA,NA
"1350",34,"130",1,1,1,6,1,NA,NA
"1351",34,"131",1,1,1,6,1,NA,NA
"1352",34,"132",1,1,1,6,1,NA,NA
"1353",34,"133",1,1,1,5,1,NA,NA
"1354",34,"134",1,1,1,6,1,NA,NA
"1355",34,"135",1,1,1,6,1,NA,NA
"1356",34,"136",1,1,1,6,1,NA,NA
"1357",34,"137",1,1,1,6,1,NA,NA
"1358",34,"138",1,1,1,6,1,NA,NA
"1359",34,"139",1,1,1,6,1,NA,NA
"1360",34,"140",1,1,1,6,1,NA,NA
"1361",35,"11",1,1,1,2,0,NA,NA
"1362",35,"12",1,1,1,2,0,NA,NA
"1363",35,"13",1,1,1,3,0,NA,NA
"1364",35,"14",1,1,1,2,0,NA,NA
"1365",35,"15",1,1,1,5,0,NA,NA
"1366",35,"16",1,1,1,4,0,NA,NA
"1367",35,"17",1,1,1,5,0,NA,NA
"1368",35,"18",1,1,1,2,0,NA,NA
"1369",35,"19",1,1,1,4,0,NA,NA
"1370",35,"110",1,1,1,5,0,NA,NA
"1371",35,"111",1,1,1,5,0,NA,NA
"1372",35,"112",1,1,1,6,0,NA,NA
"1373",35,"113",1,1,1,3,0,NA,NA
"1374",35,"114",1,1,1,4,0,NA,NA
"1375",35,"115",1,1,1,3,0,NA,NA
"1376",35,"116",1,1,1,5,0,NA,NA
"1377",35,"117",1,1,1,5,0,NA,NA
"1378",35,"118",1,1,1,4,0,NA,NA
"1379",35,"119",1,1,1,1,0,NA,NA
"1380",35,"120",1,1,1,4,0,NA,NA
"1381",35,"121",1,1,1,4,1,NA,NA
"1382",35,"122",1,1,1,5,1,NA,NA
"1383",35,"123",1,1,1,5,1,NA,NA
"1384",35,"124",1,1,1,4,1,NA,NA
"1385",35,"125",1,1,1,2,1,NA,NA
"1386",35,"126",1,1,1,6,1,NA,NA
"1387",35,"127",1,1,1,4,1,NA,NA
"1388",35,"128",1,1,1,3,1,NA,NA
"1389",35,"129",1,1,1,5,1,NA,NA
"1390",35,"130",1,1,1,1,1,NA,NA
"1391",35,"131",1,1,1,4,1,NA,NA
"1392",35,"132",1,1,1,6,1,NA,NA
"1393",35,"133",1,1,1,5,1,NA,NA
"1394",35,"134",1,1,1,4,1,NA,NA
"1395",35,"135",1,1,1,4,1,NA,NA
"1396",35,"136",1,1,1,3,1,NA,NA
"1397",35,"137",1,1,1,6,1,NA,NA
"1398",35,"138",1,1,1,5,1,NA,NA
"1399",35,"139",1,1,1,3,1,NA,NA
"1400",35,"140",1,1,1,5,1,NA,NA
"1401",36,"11",1,1,1,4,0,NA,NA
"1402",36,"12",1,1,1,2,0,NA,NA
"1403",36,"13",1,1,1,2,0,NA,NA
"1404",36,"14",1,1,1,5,0,NA,NA
"1405",36,"15",1,1,1,3,0,NA,NA
"1406",36,"16",1,1,1,3,0,NA,NA
"1407",36,"17",1,1,1,6,0,NA,NA
"1408",36,"18",1,1,1,1,0,NA,NA
"1409",36,"19",1,1,1,5,0,NA,NA
"1410",36,"110",1,1,1,5,0,NA,NA
"1411",36,"111",1,1,1,1,0,NA,NA
"1412",36,"112",1,1,1,5,0,NA,NA
"1413",36,"113",1,1,1,3,0,NA,NA
"1414",36,"114",1,1,1,3,0,NA,NA
"1415",36,"115",1,1,1,2,0,NA,NA
"1416",36,"116",1,1,1,5,0,NA,NA
"1417",36,"117",1,1,1,4,0,NA,NA
"1418",36,"118",1,1,1,5,0,NA,NA
"1419",36,"119",1,1,1,4,0,NA,NA
"1420",36,"120",1,1,1,3,0,NA,NA
"1421",36,"121",1,1,1,4,1,NA,NA
"1422",36,"122",1,1,1,3,1,NA,NA
"1423",36,"123",1,1,1,4,1,NA,NA
"1424",36,"124",1,1,1,3,1,NA,NA
"1425",36,"125",1,1,1,2,1,NA,NA
"1426",36,"126",1,1,1,4,1,NA,NA
"1427",36,"127",1,1,1,3,1,NA,NA
"1428",36,"128",1,1,1,3,1,NA,NA
"1429",36,"129",1,1,1,3,1,NA,NA
"1430",36,"130",1,1,1,4,1,NA,NA
"1431",36,"131",1,1,1,4,1,NA,NA
"1432",36,"132",1,1,1,5,1,NA,NA
"1433",36,"133",1,1,1,5,1,NA,NA
"1434",36,"134",1,1,1,3,1,NA,NA
"1435",36,"135",1,1,1,4,1,NA,NA
"1436",36,"136",1,1,1,4,1,NA,NA
"1437",36,"137",1,1,1,4,1,NA,NA
"1438",36,"138",1,1,1,6,1,NA,NA
"1439",36,"139",1,1,1,2,1,NA,NA
"1440",36,"140",1,1,1,4,1,NA,NA
"1441",37,"11",1,1,1,2,0,NA,NA
"1442",37,"12",1,1,1,3,0,NA,NA
"1443",37,"13",1,1,1,2,0,NA,NA
"1444",37,"14",1,1,1,5,0,NA,NA
"1445",37,"15",1,1,1,1,0,NA,NA
"1446",37,"16",1,1,1,3,0,NA,NA
"1447",37,"17",1,1,1,6,0,NA,NA
"1448",37,"18",1,1,1,1,0,NA,NA
"1449",37,"19",1,1,1,4,0,NA,NA
"1450",37,"110",1,1,1,6,0,NA,NA
"1451",37,"111",1,1,1,5,0,NA,NA
"1452",37,"112",1,1,1,6,0,NA,NA
"1453",37,"113",1,1,1,1,0,NA,NA
"1454",37,"114",1,1,1,4,0,NA,NA
"1455",37,"115",1,1,1,4,0,NA,NA
"1456",37,"116",1,1,1,5,0,NA,NA
"1457",37,"117",1,1,1,4,0,NA,NA
"1458",37,"118",1,1,1,3,0,NA,NA
"1459",37,"119",1,1,1,4,0,NA,NA
"1460",37,"120",1,1,1,3,0,NA,NA
"1461",37,"121",1,1,1,3,1,NA,NA
"1462",37,"122",1,1,1,6,1,NA,NA
"1463",37,"123",1,1,1,4,1,NA,NA
"1464",37,"124",1,1,1,4,1,NA,NA
"1465",37,"125",1,1,1,2,1,NA,NA
"1466",37,"126",1,1,1,5,1,NA,NA
"1467",37,"127",1,1,1,2,1,NA,NA
"1468",37,"128",1,1,1,4,1,NA,NA
"1469",37,"129",1,1,1,6,1,NA,NA
"1470",37,"130",1,1,1,3,1,NA,NA
"1471",37,"131",1,1,1,2,1,NA,NA
"1472",37,"132",1,1,1,4,1,NA,NA
"1473",37,"133",1,1,1,5,1,NA,NA
"1474",37,"134",1,1,1,1,1,NA,NA
"1475",37,"135",1,1,1,4,1,NA,NA
"1476",37,"136",1,1,1,3,1,NA,NA
"1477",37,"137",1,1,1,4,1,NA,NA
"1478",37,"138",1,1,1,5,1,NA,NA
"1479",37,"139",1,1,1,1,1,NA,NA
"1480",37,"140",1,1,1,1,1,NA,NA
"1481",38,"11",1,1,1,4,0,NA,NA
"1482",38,"12",1,1,1,1,0,NA,NA
"1483",38,"13",1,1,1,3,0,NA,NA
"1484",38,"14",1,1,1,3,0,NA,NA
"1485",38,"15",1,1,1,4,0,NA,NA
"1486",38,"16",1,1,1,4,0,NA,NA
"1487",38,"17",1,1,1,6,0,NA,NA
"1488",38,"18",1,1,1,1,0,NA,NA
"1489",38,"19",1,1,1,4,0,NA,NA
"1490",38,"110",1,1,1,3,0,NA,NA
"1491",38,"111",1,1,1,4,0,NA,NA
"1492",38,"112",1,1,1,4,0,NA,NA
"1493",38,"113",1,1,1,3,0,NA,NA
"1494",38,"114",1,1,1,3,0,NA,NA
"1495",38,"115",1,1,1,3,0,NA,NA
"1496",38,"116",1,1,1,4,0,NA,NA
"1497",38,"117",1,1,1,3,0,NA,NA
"1498",38,"118",1,1,1,3,0,NA,NA
"1499",38,"119",1,1,1,3,0,NA,NA
"1500",38,"120",1,1,1,3,0,NA,NA
"1501",38,"121",1,1,1,1,1,NA,NA
"1502",38,"122",1,1,1,3,1,NA,NA
"1503",38,"123",1,1,1,3,1,NA,NA
"1504",38,"124",1,1,1,3,1,NA,NA
"1505",38,"125",1,1,1,1,1,NA,NA
"1506",38,"126",1,1,1,6,1,NA,NA
"1507",38,"127",1,1,1,3,1,NA,NA
"1508",38,"128",1,1,1,3,1,NA,NA
"1509",38,"129",1,1,1,3,1,NA,NA
"1510",38,"130",1,1,1,3,1,NA,NA
"1511",38,"131",1,1,1,3,1,NA,NA
"1512",38,"132",1,1,1,6,1,NA,NA
"1513",38,"133",1,1,1,3,1,NA,NA
"1514",38,"134",1,1,1,4,1,NA,NA
"1515",38,"135",1,1,1,3,1,NA,NA
"1516",38,"136",1,1,1,3,1,NA,NA
"1517",38,"137",1,1,1,1,1,NA,NA
"1518",38,"138",1,1,1,4,1,NA,NA
"1519",38,"139",1,1,1,3,1,NA,NA
"1520",38,"140",1,1,1,4,1,NA,NA
"1521",39,"11",1,1,1,4,0,NA,NA
"1522",39,"12",1,1,1,4,0,NA,NA
"1523",39,"13",1,1,1,4,0,NA,NA
"1524",39,"14",1,1,1,4,0,NA,NA
"1525",39,"15",1,1,1,4,0,NA,NA
"1526",39,"16",1,1,1,4,0,NA,NA
"1527",39,"17",1,1,1,6,0,NA,NA
"1528",39,"18",1,1,1,1,0,NA,NA
"1529",39,"19",1,1,1,4,0,NA,NA
"1530",39,"110",1,1,1,4,0,NA,NA
"1531",39,"111",1,1,1,4,0,NA,NA
"1532",39,"112",1,1,1,3,0,NA,NA
"1533",39,"113",1,1,1,4,0,NA,NA
"1534",39,"114",1,1,1,4,0,NA,NA
"1535",39,"115",1,1,1,3,0,NA,NA
"1536",39,"116",1,1,1,6,0,NA,NA
"1537",39,"117",1,1,1,4,0,NA,NA
"1538",39,"118",1,1,1,4,0,NA,NA
"1539",39,"119",1,1,1,4,0,NA,NA
"1540",39,"120",1,1,1,4,0,NA,NA
"1541",39,"121",1,1,1,4,1,NA,NA
"1542",39,"122",1,1,1,4,1,NA,NA
"1543",39,"123",1,1,1,4,1,NA,NA
"1544",39,"124",1,1,1,4,1,NA,NA
"1545",39,"125",1,1,1,3,1,NA,NA
"1546",39,"126",1,1,1,4,1,NA,NA
"1547",39,"127",1,1,1,4,1,NA,NA
"1548",39,"128",1,1,1,3,1,NA,NA
"1549",39,"129",1,1,1,4,1,NA,NA
"1550",39,"130",1,1,1,6,1,NA,NA
"1551",39,"131",1,1,1,4,1,NA,NA
"1552",39,"132",1,1,1,1,1,NA,NA
"1553",39,"133",1,1,1,4,1,NA,NA
"1554",39,"134",1,1,1,4,1,NA,NA
"1555",39,"135",1,1,1,5,1,NA,NA
"1556",39,"136",1,1,1,4,1,NA,NA
"1557",39,"137",1,1,1,4,1,NA,NA
"1558",39,"138",1,1,1,6,1,NA,NA
"1559",39,"139",1,1,1,3,1,NA,NA
"1560",39,"140",1,1,1,4,1,NA,NA
"1561",40,"11",1,1,1,5,1,NA,NA
"1562",40,"12",1,1,1,2,1,NA,NA
"1563",40,"13",1,1,1,3,1,NA,NA
"1564",40,"14",1,1,1,3,1,NA,NA
"1565",40,"15",1,1,1,6,1,NA,NA
"1566",40,"16",1,1,1,3,1,NA,NA
"1567",40,"17",1,1,1,6,1,NA,NA
"1568",40,"18",1,1,1,4,1,NA,NA
"1569",40,"19",1,1,1,4,1,NA,NA
"1570",40,"110",1,1,1,4,1,NA,NA
"1571",40,"111",1,1,1,5,1,NA,NA
"1572",40,"112",1,1,1,6,1,NA,NA
"1573",40,"113",1,1,1,4,1,NA,NA
"1574",40,"114",1,1,1,1,1,NA,NA
"1575",40,"115",1,1,1,3,1,NA,NA
"1576",40,"116",1,1,1,5,1,NA,NA
"1577",40,"117",1,1,1,4,1,NA,NA
"1578",40,"118",1,1,1,4,1,NA,NA
"1579",40,"119",1,1,1,4,1,NA,NA
"1580",40,"120",1,1,1,4,1,NA,NA
"1581",40,"121",1,1,1,3,0,NA,NA
"1582",40,"122",1,1,1,6,0,NA,NA
"1583",40,"123",1,1,1,5,0,NA,NA
"1584",40,"124",1,1,1,2,0,NA,NA
"1585",40,"125",1,1,1,1,0,NA,NA
"1586",40,"126",1,1,1,1,0,NA,NA
"1587",40,"127",1,1,1,3,0,NA,NA
"1588",40,"128",1,1,1,3,0,NA,NA
"1589",40,"129",1,1,1,4,0,NA,NA
"1590",40,"130",1,1,1,1,0,NA,NA
"1591",40,"131",1,1,1,4,0,NA,NA
"1592",40,"132",1,1,1,5,0,NA,NA
"1593",40,"133",1,1,1,4,0,NA,NA
"1594",40,"134",1,1,1,2,0,NA,NA
"1595",40,"135",1,1,1,3,0,NA,NA
"1596",40,"136",1,1,1,3,0,NA,NA
"1597",40,"137",1,1,1,1,0,NA,NA
"1598",40,"138",1,1,1,5,0,NA,NA
"1599",40,"139",1,1,1,3,0,NA,NA
"1600",40,"140",1,1,1,1,0,NA,NA
"1601",41,"11",1,1,1,6,0,NA,NA
"1602",41,"12",1,1,1,6,0,NA,NA
"1603",41,"13",1,1,1,3,0,NA,NA
"1604",41,"14",1,1,1,3,0,NA,NA
"1605",41,"15",1,1,1,6,0,NA,NA
"1606",41,"16",1,1,1,2,0,NA,NA
"1607",41,"17",1,1,1,6,0,NA,NA
"1608",41,"18",1,1,1,1,0,NA,NA
"1609",41,"19",1,1,1,4,0,NA,NA
"1610",41,"110",1,1,1,5,0,NA,NA
"1611",41,"111",1,1,1,1,0,NA,NA
"1612",41,"112",1,1,1,4,0,NA,NA
"1613",41,"113",1,1,1,3,0,NA,NA
"1614",41,"114",1,1,1,1,0,NA,NA
"1615",41,"115",1,1,1,4,0,NA,NA
"1616",41,"116",1,1,1,3,0,NA,NA
"1617",41,"117",1,1,1,4,0,NA,NA
"1618",41,"118",1,1,1,3,0,NA,NA
"1619",41,"119",1,1,1,5,0,NA,NA
"1620",41,"120",1,1,1,4,0,NA,NA
"1621",41,"121",1,1,1,4,1,NA,NA
"1622",41,"122",1,1,1,6,1,NA,NA
"1623",41,"123",1,1,1,4,1,NA,NA
"1624",41,"124",1,1,1,3,1,NA,NA
"1625",41,"125",1,1,1,5,1,NA,NA
"1626",41,"126",1,1,1,3,1,NA,NA
"1627",41,"127",1,1,1,4,1,NA,NA
"1628",41,"128",1,1,1,5,1,NA,NA
"1629",41,"129",1,1,1,4,1,NA,NA
"1630",41,"130",1,1,1,3,1,NA,NA
"1631",41,"131",1,1,1,4,1,NA,NA
"1632",41,"132",1,1,1,4,1,NA,NA
"1633",41,"133",1,1,1,4,1,NA,NA
"1634",41,"134",1,1,1,3,1,NA,NA
"1635",41,"135",1,1,1,4,1,NA,NA
"1636",41,"136",1,1,1,4,1,NA,NA
"1637",41,"137",1,1,1,2,1,NA,NA
"1638",41,"138",1,1,1,4,1,NA,NA
"1639",41,"139",1,1,1,4,1,NA,NA
"1640",41,"140",1,1,1,5,1,NA,NA
"1641",42,"11",1,1,1,5,1,NA,NA
"1642",42,"12",1,1,1,5,1,NA,NA
"1643",42,"13",1,1,1,3,1,NA,NA
"1644",42,"14",1,1,1,5,1,NA,NA
"1645",42,"15",1,1,1,4,1,NA,NA
"1646",42,"16",1,1,1,4,1,NA,NA
"1647",42,"17",1,1,1,6,1,NA,NA
"1648",42,"18",1,1,1,2,1,NA,NA
"1649",42,"19",1,1,1,4,1,NA,NA
"1650",42,"110",1,1,1,6,1,NA,NA
"1651",42,"111",1,1,1,5,1,NA,NA
"1652",42,"112",1,1,1,1,1,NA,NA
"1653",42,"113",1,1,1,3,1,NA,NA
"1654",42,"114",1,1,1,4,1,NA,NA
"1655",42,"115",1,1,1,3,1,NA,NA
"1656",42,"116",1,1,1,4,1,NA,NA
"1657",42,"117",1,1,1,5,1,NA,NA
"1658",42,"118",1,1,1,4,1,NA,NA
"1659",42,"119",1,1,1,3,1,NA,NA
"1660",42,"120",1,1,1,4,1,NA,NA
"1661",42,"121",1,1,1,4,0,NA,NA
"1662",42,"122",1,1,1,6,0,NA,NA
"1663",42,"123",1,1,1,5,0,NA,NA
"1664",42,"124",1,1,1,3,0,NA,NA
"1665",42,"125",1,1,1,1,0,NA,NA
"1666",42,"126",1,1,1,1,0,NA,NA
"1667",42,"127",1,1,1,3,0,NA,NA
"1668",42,"128",1,1,1,3,0,NA,NA
"1669",42,"129",1,1,1,3,0,NA,NA
"1670",42,"130",1,1,1,3,0,NA,NA
"1671",42,"131",1,1,1,4,0,NA,NA
"1672",42,"132",1,1,1,3,0,NA,NA
"1673",42,"133",1,1,1,4,0,NA,NA
"1674",42,"134",1,1,1,2,0,NA,NA
"1675",42,"135",1,1,1,4,0,NA,NA
"1676",42,"136",1,1,1,4,0,NA,NA
"1677",42,"137",1,1,1,4,0,NA,NA
"1678",42,"138",1,1,1,3,0,NA,NA
"1679",42,"139",1,1,1,1,0,NA,NA
"1680",42,"140",1,1,1,4,0,NA,NA
"1681",43,"11",1,1,1,3,0,NA,NA
"1682",43,"12",1,1,1,5,0,NA,NA
"1683",43,"13",1,1,1,5,0,NA,NA
"1684",43,"14",1,1,1,3,0,NA,NA
"1685",43,"15",1,1,1,4,0,NA,NA
"1686",43,"16",1,1,1,3,0,NA,NA
"1687",43,"17",1,1,1,6,0,NA,NA
"1688",43,"18",1,1,1,1,0,NA,NA
"1689",43,"19",1,1,1,4,0,NA,NA
"1690",43,"110",1,1,1,6,0,NA,NA
"1691",43,"111",1,1,1,6,0,NA,NA
"1692",43,"112",1,1,1,6,0,NA,NA
"1693",43,"113",1,1,1,1,0,NA,NA
"1694",43,"114",1,1,1,3,0,NA,NA
"1695",43,"115",1,1,1,2,0,NA,NA
"1696",43,"116",1,1,1,2,0,NA,NA
"1697",43,"117",1,1,1,1,0,NA,NA
"1698",43,"118",1,1,1,4,0,NA,NA
"1699",43,"119",1,1,1,6,0,NA,NA
"1700",43,"120",1,1,1,1,0,NA,NA
"1701",43,"121",1,1,1,6,1,NA,NA
"1702",43,"122",1,1,1,6,1,NA,NA
"1703",43,"123",1,1,1,6,1,NA,NA
"1704",43,"124",1,1,1,6,1,NA,NA
"1705",43,"125",1,1,1,6,1,NA,NA
"1706",43,"126",1,1,1,6,1,NA,NA
"1707",43,"127",1,1,1,5,1,NA,NA
"1708",43,"128",1,1,1,6,1,NA,NA
"1709",43,"129",1,1,1,6,1,NA,NA
"1710",43,"130",1,1,1,6,1,NA,NA
"1711",43,"131",1,1,1,6,1,NA,NA
"1712",43,"132",1,1,1,6,1,NA,NA
"1713",43,"133",1,1,1,6,1,NA,NA
"1714",43,"134",1,1,1,6,1,NA,NA
"1715",43,"135",1,1,1,6,1,NA,NA
"1716",43,"136",1,1,1,6,1,NA,NA
"1717",43,"137",1,1,1,5,1,NA,NA
"1718",43,"138",1,1,1,6,1,NA,NA
"1719",43,"139",1,1,1,6,1,NA,NA
"1720",43,"140",1,1,1,6,1,NA,NA
"1721",44,"11",1,1,1,5,1,NA,NA
"1722",44,"12",1,1,1,4,1,NA,NA
"1723",44,"13",1,1,1,6,1,NA,NA
"1724",44,"14",1,1,1,4,1,NA,NA
"1725",44,"15",1,1,1,4,1,NA,NA
"1726",44,"16",1,1,1,1,1,NA,NA
"1727",44,"17",1,1,1,2,1,NA,NA
"1728",44,"18",1,1,1,5,1,NA,NA
"1729",44,"19",1,1,1,6,1,NA,NA
"1730",44,"110",1,1,1,6,1,NA,NA
"1731",44,"111",1,1,1,6,1,NA,NA
"1732",44,"112",1,1,1,3,1,NA,NA
"1733",44,"113",1,1,1,5,1,NA,NA
"1734",44,"114",1,1,1,5,1,NA,NA
"1735",44,"115",1,1,1,6,1,NA,NA
"1736",44,"116",1,1,1,6,1,NA,NA
"1737",44,"117",1,1,1,6,1,NA,NA
"1738",44,"118",1,1,1,4,1,NA,NA
"1739",44,"119",1,1,1,4,1,NA,NA
"1740",44,"120",1,1,1,6,1,NA,NA
"1741",44,"121",1,1,1,5,0,NA,NA
"1742",44,"122",1,1,1,4,0,NA,NA
"1743",44,"123",1,1,1,6,0,NA,NA
"1744",44,"124",1,1,1,3,0,NA,NA
"1745",44,"125",1,1,1,3,0,NA,NA
"1746",44,"126",1,1,1,6,0,NA,NA
"1747",44,"127",1,1,1,5,0,NA,NA
"1748",44,"128",1,1,1,6,0,NA,NA
"1749",44,"129",1,1,1,5,0,NA,NA
"1750",44,"130",1,1,1,3,0,NA,NA
"1751",44,"131",1,1,1,4,0,NA,NA
"1752",44,"132",1,1,1,4,0,NA,NA
"1753",44,"133",1,1,1,3,0,NA,NA
"1754",44,"134",1,1,1,4,0,NA,NA
"1755",44,"135",1,1,1,6,0,NA,NA
"1756",44,"136",1,1,1,3,0,NA,NA
"1757",44,"137",1,1,1,6,0,NA,NA
"1758",44,"138",1,1,1,6,0,NA,NA
"1759",44,"139",1,1,1,2,0,NA,NA
"1760",44,"140",1,1,1,6,0,NA,NA
"1761",45,"11",1,1,1,5,1,NA,NA
"1762",45,"12",1,1,1,2,1,NA,NA
"1763",45,"13",1,1,1,5,1,NA,NA
"1764",45,"14",1,1,1,6,1,NA,NA
"1765",45,"15",1,1,1,5,1,NA,NA
"1766",45,"16",1,1,1,3,1,NA,NA
"1767",45,"17",1,1,1,6,1,NA,NA
"1768",45,"18",1,1,1,4,1,NA,NA
"1769",45,"19",1,1,1,3,1,NA,NA
"1770",45,"110",1,1,1,6,1,NA,NA
"1771",45,"111",1,1,1,6,1,NA,NA
"1772",45,"112",1,1,1,6,1,NA,NA
"1773",45,"113",1,1,1,3,1,NA,NA
"1774",45,"114",1,1,1,6,1,NA,NA
"1775",45,"115",1,1,1,3,1,NA,NA
"1776",45,"116",1,1,1,6,1,NA,NA
"1777",45,"117",1,1,1,4,1,NA,NA
"1778",45,"118",1,1,1,3,1,NA,NA
"1779",45,"119",1,1,1,5,1,NA,NA
"1780",45,"120",1,1,1,3,1,NA,NA
"1781",45,"121",1,1,1,3,0,NA,NA
"1782",45,"122",1,1,1,6,0,NA,NA
"1783",45,"123",1,1,1,5,0,NA,NA
"1784",45,"124",1,1,1,3,0,NA,NA
"1785",45,"125",1,1,1,1,0,NA,NA
"1786",45,"126",1,1,1,3,0,NA,NA
"1787",45,"127",1,1,1,3,0,NA,NA
"1788",45,"128",1,1,1,5,0,NA,NA
"1789",45,"129",1,1,1,3,0,NA,NA
"1790",45,"130",1,1,1,3,0,NA,NA
"1791",45,"131",1,1,1,3,0,NA,NA
"1792",45,"132",1,1,1,5,0,NA,NA
"1793",45,"133",1,1,1,3,0,NA,NA
"1794",45,"134",1,1,1,3,0,NA,NA
"1795",45,"135",1,1,1,4,0,NA,NA
"1796",45,"136",1,1,1,3,0,NA,NA
"1797",45,"137",1,1,1,4,0,NA,NA
"1798",45,"138",1,1,1,4,0,NA,NA
"1799",45,"139",1,1,1,1,0,NA,NA
"1800",45,"140",1,1,1,3,0,NA,NA
"1801",46,"11",1,1,1,4,0,NA,NA
"1802",46,"12",1,1,1,5,0,NA,NA
"1803",46,"13",1,1,1,2,0,NA,NA
"1804",46,"14",1,1,1,4,0,NA,NA
"1805",46,"15",1,1,1,3,0,NA,NA
"1806",46,"16",1,1,1,3,0,NA,NA
"1807",46,"17",1,1,1,5,0,NA,NA
"1808",46,"18",1,1,1,4,0,NA,NA
"1809",46,"19",1,1,1,3,0,NA,NA
"1810",46,"110",1,1,1,4,0,NA,NA
"1811",46,"111",1,1,1,5,0,NA,NA
"1812",46,"112",1,1,1,3,0,NA,NA
"1813",46,"113",1,1,1,4,0,NA,NA
"1814",46,"114",1,1,1,3,0,NA,NA
"1815",46,"115",1,1,1,4,0,NA,NA
"1816",46,"116",1,1,1,5,0,NA,NA
"1817",46,"117",1,1,1,4,0,NA,NA
"1818",46,"118",1,1,1,4,0,NA,NA
"1819",46,"119",1,1,1,4,0,NA,NA
"1820",46,"120",1,1,1,3,0,NA,NA
"1821",46,"121",1,1,1,4,1,NA,NA
"1822",46,"122",1,1,1,4,1,NA,NA
"1823",46,"123",1,1,1,4,1,NA,NA
"1824",46,"124",1,1,1,4,1,NA,NA
"1825",46,"125",1,1,1,5,1,NA,NA
"1826",46,"126",1,1,1,4,1,NA,NA
"1827",46,"127",1,1,1,4,1,NA,NA
"1828",46,"128",1,1,1,4,1,NA,NA
"1829",46,"129",1,1,1,5,1,NA,NA
"1830",46,"130",1,1,1,4,1,NA,NA
"1831",46,"131",1,1,1,4,1,NA,NA
"1832",46,"132",1,1,1,5,1,NA,NA
"1833",46,"133",1,1,1,4,1,NA,NA
"1834",46,"134",1,1,1,2,1,NA,NA
"1835",46,"135",1,1,1,4,1,NA,NA
"1836",46,"136",1,1,1,4,1,NA,NA
"1837",46,"137",1,1,1,4,1,NA,NA
"1838",46,"138",1,1,1,4,1,NA,NA
"1839",46,"139",1,1,1,3,1,NA,NA
"1840",46,"140",1,1,1,4,1,NA,NA
"1841",47,"11",1,1,1,3,1,NA,NA
"1842",47,"12",1,1,1,3,1,NA,NA
"1843",47,"13",1,1,1,1,1,NA,NA
"1844",47,"14",1,1,1,5,1,NA,NA
"1845",47,"15",1,1,1,1,1,NA,NA
"1846",47,"16",1,1,1,3,1,NA,NA
"1847",47,"17",1,1,1,6,1,NA,NA
"1848",47,"18",1,1,1,1,1,NA,NA
"1849",47,"19",1,1,1,3,1,NA,NA
"1850",47,"110",1,1,1,4,1,NA,NA
"1851",47,"111",1,1,1,6,1,NA,NA
"1852",47,"112",1,1,1,4,1,NA,NA
"1853",47,"113",1,1,1,3,1,NA,NA
"1854",47,"114",1,1,1,3,1,NA,NA
"1855",47,"115",1,1,1,3,1,NA,NA
"1856",47,"116",1,1,1,6,1,NA,NA
"1857",47,"117",1,1,1,2,1,NA,NA
"1858",47,"118",1,1,1,4,1,NA,NA
"1859",47,"119",1,1,1,4,1,NA,NA
"1860",47,"120",1,1,1,3,1,NA,NA
"1861",47,"121",1,1,1,6,0,NA,NA
"1862",47,"122",1,1,1,4,0,NA,NA
"1863",47,"123",1,1,1,6,0,NA,NA
"1864",47,"124",1,1,1,3,0,NA,NA
"1865",47,"125",1,1,1,6,0,NA,NA
"1866",47,"126",1,1,1,6,0,NA,NA
"1867",47,"127",1,1,1,3,0,NA,NA
"1868",47,"128",1,1,1,4,0,NA,NA
"1869",47,"129",1,1,1,4,0,NA,NA
"1870",47,"130",1,1,1,3,0,NA,NA
"1871",47,"131",1,1,1,4,0,NA,NA
"1872",47,"132",1,1,1,6,0,NA,NA
"1873",47,"133",1,1,1,4,0,NA,NA
"1874",47,"134",1,1,1,1,0,NA,NA
"1875",47,"135",1,1,1,4,0,NA,NA
"1876",47,"136",1,1,1,3,0,NA,NA
"1877",47,"137",1,1,1,2,0,NA,NA
"1878",47,"138",1,1,1,5,0,NA,NA
"1879",47,"139",1,1,1,1,0,NA,NA
"1880",47,"140",1,1,1,2,0,NA,NA
"1881",48,"11",1,1,1,3,1,NA,NA
"1882",48,"12",1,1,1,5,1,NA,NA
"1883",48,"13",1,1,1,2,1,NA,NA
"1884",48,"14",1,1,1,5,1,NA,NA
"1885",48,"15",1,1,1,4,1,NA,NA
"1886",48,"16",1,1,1,4,1,NA,NA
"1887",48,"17",1,1,1,5,1,NA,NA
"1888",48,"18",1,1,1,2,1,NA,NA
"1889",48,"19",1,1,1,5,1,NA,NA
"1890",48,"110",1,1,1,5,1,NA,NA
"1891",48,"111",1,1,1,5,1,NA,NA
"1892",48,"112",1,1,1,4,1,NA,NA
"1893",48,"113",1,1,1,5,1,NA,NA
"1894",48,"114",1,1,1,5,1,NA,NA
"1895",48,"115",1,1,1,4,1,NA,NA
"1896",48,"116",1,1,1,5,1,NA,NA
"1897",48,"117",1,1,1,4,1,NA,NA
"1898",48,"118",1,1,1,3,1,NA,NA
"1899",48,"119",1,1,1,5,1,NA,NA
"1900",48,"120",1,1,1,3,1,NA,NA
"1901",48,"121",1,1,1,3,0,NA,NA
"1902",48,"122",1,1,1,6,0,NA,NA
"1903",48,"123",1,1,1,5,0,NA,NA
"1904",48,"124",1,1,1,2,0,NA,NA
"1905",48,"125",1,1,1,2,0,NA,NA
"1906",48,"126",1,1,1,5,0,NA,NA
"1907",48,"127",1,1,1,5,0,NA,NA
"1908",48,"128",1,1,1,5,0,NA,NA
"1909",48,"129",1,1,1,2,0,NA,NA
"1910",48,"130",1,1,1,2,0,NA,NA
"1911",48,"131",1,1,1,3,0,NA,NA
"1912",48,"132",1,1,1,6,0,NA,NA
"1913",48,"133",1,1,1,5,0,NA,NA
"1914",48,"134",1,1,1,1,0,NA,NA
"1915",48,"135",1,1,1,5,0,NA,NA
"1916",48,"136",1,1,1,3,0,NA,NA
"1917",48,"137",1,1,1,5,0,NA,NA
"1918",48,"138",1,1,1,5,0,NA,NA
"1919",48,"139",1,1,1,1,0,NA,NA
"1920",48,"140",1,1,1,3,0,NA,NA
"1921",49,"11",1,1,1,3,0,NA,NA
"1922",49,"12",1,1,1,5,0,NA,NA
"1923",49,"13",1,1,1,3,0,NA,NA
"1924",49,"14",1,1,1,4,0,NA,NA
"1925",49,"15",1,1,1,3,0,NA,NA
"1926",49,"16",1,1,1,2,0,NA,NA
"1927",49,"17",1,1,1,4,0,NA,NA
"1928",49,"18",1,1,1,5,0,NA,NA
"1929",49,"19",1,1,1,4,0,NA,NA
"1930",49,"110",1,1,1,4,0,NA,NA
"1931",49,"111",1,1,1,1,0,NA,NA
"1932",49,"112",1,1,1,6,0,NA,NA
"1933",49,"113",1,1,1,4,0,NA,NA
"1934",49,"114",1,1,1,4,0,NA,NA
"1935",49,"115",1,1,1,3,0,NA,NA
"1936",49,"116",1,1,1,5,0,NA,NA
"1937",49,"117",1,1,1,4,0,NA,NA
"1938",49,"118",1,1,1,4,0,NA,NA
"1939",49,"119",1,1,1,5,0,NA,NA
"1940",49,"120",1,1,1,4,0,NA,NA
"1941",49,"121",1,1,1,5,1,NA,NA
"1942",49,"122",1,1,1,6,1,NA,NA
"1943",49,"123",1,1,1,5,1,NA,NA
"1944",49,"124",1,1,1,4,1,NA,NA
"1945",49,"125",1,1,1,6,1,NA,NA
"1946",49,"126",1,1,1,4,1,NA,NA
"1947",49,"127",1,1,1,4,1,NA,NA
"1948",49,"128",1,1,1,4,1,NA,NA
"1949",49,"129",1,1,1,5,1,NA,NA
"1950",49,"130",1,1,1,4,1,NA,NA
"1951",49,"131",1,1,1,4,1,NA,NA
"1952",49,"132",1,1,1,5,1,NA,NA
"1953",49,"133",1,1,1,5,1,NA,NA
"1954",49,"134",1,1,1,5,1,NA,NA
"1955",49,"135",1,1,1,5,1,NA,NA
"1956",49,"136",1,1,1,4,1,NA,NA
"1957",49,"137",1,1,1,4,1,NA,NA
"1958",49,"138",1,1,1,6,1,NA,NA
"1959",49,"139",1,1,1,4,1,NA,NA
"1960",49,"140",1,1,1,5,1,NA,NA
"1961",50,"11",1,1,1,3,0,NA,NA
"1962",50,"12",1,1,1,2,0,NA,NA
"1963",50,"13",1,1,1,2,0,NA,NA
"1964",50,"14",1,1,1,3,0,NA,NA
"1965",50,"15",1,1,1,5,0,NA,NA
"1966",50,"16",1,1,1,3,0,NA,NA
"1967",50,"17",1,1,1,6,0,NA,NA
"1968",50,"18",1,1,1,3,0,NA,NA
"1969",50,"19",1,1,1,2,0,NA,NA
"1970",50,"110",1,1,1,6,0,NA,NA
"1971",50,"111",1,1,1,6,0,NA,NA
"1972",50,"112",1,1,1,1,0,NA,NA
"1973",50,"113",1,1,1,4,0,NA,NA
"1974",50,"114",1,1,1,3,0,NA,NA
"1975",50,"115",1,1,1,5,0,NA,NA
"1976",50,"116",1,1,1,4,0,NA,NA
"1977",50,"117",1,1,1,5,0,NA,NA
"1978",50,"118",1,1,1,3,0,NA,NA
"1979",50,"119",1,1,1,5,0,NA,NA
"1980",50,"120",1,1,1,4,0,NA,NA
"1981",50,"121",1,1,1,3,1,NA,NA
"1982",50,"122",1,1,1,3,1,NA,NA
"1983",50,"123",1,1,1,5,1,NA,NA
"1984",50,"124",1,1,1,4,1,NA,NA
"1985",50,"125",1,1,1,1,1,NA,NA
"1986",50,"126",1,1,1,6,1,NA,NA
"1987",50,"127",1,1,1,4,1,NA,NA
"1988",50,"128",1,1,1,6,1,NA,NA
"1989",50,"129",1,1,1,1,1,NA,NA
"1990",50,"130",1,1,1,4,1,NA,NA
"1991",50,"131",1,1,1,5,1,NA,NA
"1992",50,"132",1,1,1,6,1,NA,NA
"1993",50,"133",1,1,1,4,1,NA,NA
"1994",50,"134",1,1,1,4,1,NA,NA
"1995",50,"135",1,1,1,5,1,NA,NA
"1996",50,"136",1,1,1,3,1,NA,NA
"1997",50,"137",1,1,1,5,1,NA,NA
"1998",50,"138",1,1,1,5,1,NA,NA
"1999",50,"139",1,1,1,2,1,NA,NA
"2000",50,"140",1,1,1,1,1,NA,NA
"2001",51,"11",1,1,1,3,1,NA,NA
"2002",51,"12",1,1,1,2,1,NA,NA
"2003",51,"13",1,1,1,2,1,NA,NA
"2004",51,"14",1,1,1,3,1,NA,NA
"2005",51,"15",1,1,1,4,1,NA,NA
"2006",51,"16",1,1,1,3,1,NA,NA
"2007",51,"17",1,1,1,3,1,NA,NA
"2008",51,"18",1,1,1,1,1,NA,NA
"2009",51,"19",1,1,1,4,1,NA,NA
"2010",51,"110",1,1,1,3,1,NA,NA
"2011",51,"111",1,1,1,2,1,NA,NA
"2012",51,"112",1,1,1,4,1,NA,NA
"2013",51,"113",1,1,1,4,1,NA,NA
"2014",51,"114",1,1,1,3,1,NA,NA
"2015",51,"115",1,1,1,4,1,NA,NA
"2016",51,"116",1,1,1,4,1,NA,NA
"2017",51,"117",1,1,1,3,1,NA,NA
"2018",51,"118",1,1,1,3,1,NA,NA
"2019",51,"119",1,1,1,3,1,NA,NA
"2020",51,"120",1,1,1,4,1,NA,NA
"2021",51,"121",1,1,1,3,0,NA,NA
"2022",51,"122",1,1,1,2,0,NA,NA
"2023",51,"123",1,1,1,6,0,NA,NA
"2024",51,"124",1,1,1,3,0,NA,NA
"2025",51,"125",1,1,1,1,0,NA,NA
"2026",51,"126",1,1,1,3,0,NA,NA
"2027",51,"127",1,1,1,3,0,NA,NA
"2028",51,"128",1,1,1,2,0,NA,NA
"2029",51,"129",1,1,1,3,0,NA,NA
"2030",51,"130",1,1,1,3,0,NA,NA
"2031",51,"131",1,1,1,3,0,NA,NA
"2032",51,"132",1,1,1,6,0,NA,NA
"2033",51,"133",1,1,1,2,0,NA,NA
"2034",51,"134",1,1,1,3,0,NA,NA
"2035",51,"135",1,1,1,3,0,NA,NA
"2036",51,"136",1,1,1,3,0,NA,NA
"2037",51,"137",1,1,1,3,0,NA,NA
"2038",51,"138",1,1,1,4,0,NA,NA
"2039",51,"139",1,1,1,2,0,NA,NA
"2040",51,"140",1,1,1,3,0,NA,NA
"2041",52,"11",1,1,1,2,0,NA,NA
"2042",52,"12",1,1,1,1,0,NA,NA
"2043",52,"13",1,1,1,1,0,NA,NA
"2044",52,"14",1,1,1,5,0,NA,NA
"2045",52,"15",1,1,1,3,0,NA,NA
"2046",52,"16",1,1,1,3,0,NA,NA
"2047",52,"17",1,1,1,5,0,NA,NA
"2048",52,"18",1,1,1,1,0,NA,NA
"2049",52,"19",1,1,1,4,0,NA,NA
"2050",52,"110",1,1,1,5,0,NA,NA
"2051",52,"111",1,1,1,1,0,NA,NA
"2052",52,"112",1,1,1,5,0,NA,NA
"2053",52,"113",1,1,1,2,0,NA,NA
"2054",52,"114",1,1,1,4,0,NA,NA
"2055",52,"115",1,1,1,2,0,NA,NA
"2056",52,"116",1,1,1,5,0,NA,NA
"2057",52,"117",1,1,1,5,0,NA,NA
"2058",52,"118",1,1,1,4,0,NA,NA
"2059",52,"119",1,1,1,4,0,NA,NA
"2060",52,"120",1,1,1,2,0,NA,NA
"2061",52,"121",1,1,1,5,1,NA,NA
"2062",52,"122",1,1,1,5,1,NA,NA
"2063",52,"123",1,1,1,5,1,NA,NA
"2064",52,"124",1,1,1,5,1,NA,NA
"2065",52,"125",1,1,1,5,1,NA,NA
"2066",52,"126",1,1,1,5,1,NA,NA
"2067",52,"127",1,1,1,5,1,NA,NA
"2068",52,"128",1,1,1,5,1,NA,NA
"2069",52,"129",1,1,1,5,1,NA,NA
"2070",52,"130",1,1,1,5,1,NA,NA
"2071",52,"131",1,1,1,5,1,NA,NA
"2072",52,"132",1,1,1,5,1,NA,NA
"2073",52,"133",1,1,1,5,1,NA,NA
"2074",52,"134",1,1,1,5,1,NA,NA
"2075",52,"135",1,1,1,5,1,NA,NA
"2076",52,"136",1,1,1,5,1,NA,NA
"2077",52,"137",1,1,1,5,1,NA,NA
"2078",52,"138",1,1,1,5,1,NA,NA
"2079",52,"139",1,1,1,3,1,NA,NA
"2080",52,"140",1,1,1,5,1,NA,NA
"2081",53,"11",1,1,1,5,1,NA,NA
"2082",53,"12",1,1,1,5,1,NA,NA
"2083",53,"13",1,1,1,4,1,NA,NA
"2084",53,"14",1,1,1,4,1,NA,NA
"2085",53,"15",1,1,1,5,1,NA,NA
"2086",53,"16",1,1,1,4,1,NA,NA
"2087",53,"17",1,1,1,6,1,NA,NA
"2088",53,"18",1,1,1,6,1,NA,NA
"2089",53,"19",1,1,1,5,1,NA,NA
"2090",53,"110",1,1,1,6,1,NA,NA
"2091",53,"111",1,1,1,4,1,NA,NA
"2092",53,"112",1,1,1,4,1,NA,NA
"2093",53,"113",1,1,1,4,1,NA,NA
"2094",53,"114",1,1,1,4,1,NA,NA
"2095",53,"115",1,1,1,3,1,NA,NA
"2096",53,"116",1,1,1,4,1,NA,NA
"2097",53,"117",1,1,1,4,1,NA,NA
"2098",53,"118",1,1,1,4,1,NA,NA
"2099",53,"119",1,1,1,5,1,NA,NA
"2100",53,"120",1,1,1,4,1,NA,NA
"2101",53,"121",1,1,1,1,0,NA,NA
"2102",53,"122",1,1,1,6,0,NA,NA
"2103",53,"123",1,1,1,6,0,NA,NA
"2104",53,"124",1,1,1,4,0,NA,NA
"2105",53,"125",1,1,1,6,0,NA,NA
"2106",53,"126",1,1,1,4,0,NA,NA
"2107",53,"127",1,1,1,4,0,NA,NA
"2108",53,"128",1,1,1,3,0,NA,NA
"2109",53,"129",1,1,1,3,0,NA,NA
"2110",53,"130",1,1,1,3,0,NA,NA
"2111",53,"131",1,1,1,3,0,NA,NA
"2112",53,"132",1,1,1,2,0,NA,NA
"2113",53,"133",1,1,1,4,0,NA,NA
"2114",53,"134",1,1,1,3,0,NA,NA
"2115",53,"135",1,1,1,4,0,NA,NA
"2116",53,"136",1,1,1,4,0,NA,NA
"2117",53,"137",1,1,1,4,0,NA,NA
"2118",53,"138",1,1,1,5,0,NA,NA
"2119",53,"139",1,1,1,1,0,NA,NA
"2120",53,"140",1,1,1,3,0,NA,NA
"2121",54,"11",1,1,1,4,1,NA,NA
"2122",54,"12",1,1,1,1,1,NA,NA
"2123",54,"13",1,1,1,2,1,NA,NA
"2124",54,"14",1,1,1,5,1,NA,NA
"2125",54,"15",1,1,1,2,1,NA,NA
"2126",54,"16",1,1,1,3,1,NA,NA
"2127",54,"17",1,1,1,4,1,NA,NA
"2128",54,"18",1,1,1,1,1,NA,NA
"2129",54,"19",1,1,1,5,1,NA,NA
"2130",54,"110",1,1,1,3,1,NA,NA
"2131",54,"111",1,1,1,6,1,NA,NA
"2132",54,"112",1,1,1,6,1,NA,NA
"2133",54,"113",1,1,1,4,1,NA,NA
"2134",54,"114",1,1,1,3,1,NA,NA
"2135",54,"115",1,1,1,5,1,NA,NA
"2136",54,"116",1,1,1,6,1,NA,NA
"2137",54,"117",1,1,1,4,1,NA,NA
"2138",54,"118",1,1,1,4,1,NA,NA
"2139",54,"119",1,1,1,5,1,NA,NA
"2140",54,"120",1,1,1,2,1,NA,NA
"2141",54,"121",1,1,1,3,0,NA,NA
"2142",54,"122",1,1,1,2,0,NA,NA
"2143",54,"123",1,1,1,6,0,NA,NA
"2144",54,"124",1,1,1,4,0,NA,NA
"2145",54,"125",1,1,1,2,0,NA,NA
"2146",54,"126",1,1,1,4,0,NA,NA
"2147",54,"127",1,1,1,3,0,NA,NA
"2148",54,"128",1,1,1,5,0,NA,NA
"2149",54,"129",1,1,1,5,0,NA,NA
"2150",54,"130",1,1,1,2,0,NA,NA
"2151",54,"131",1,1,1,3,0,NA,NA
"2152",54,"132",1,1,1,6,0,NA,NA
"2153",54,"133",1,1,1,5,0,NA,NA
"2154",54,"134",1,1,1,4,0,NA,NA
"2155",54,"135",1,1,1,4,0,NA,NA
"2156",54,"136",1,1,1,4,0,NA,NA
"2157",54,"137",1,1,1,3,0,NA,NA
"2158",54,"138",1,1,1,6,0,NA,NA
"2159",54,"139",1,1,1,1,0,NA,NA
"2160",54,"140",1,1,1,3,0,NA,NA
"2161",55,"11",1,1,1,5,0,NA,NA
"2162",55,"12",1,1,1,4,0,NA,NA
"2163",55,"13",1,1,1,3,0,NA,NA
"2164",55,"14",1,1,1,3,0,NA,NA
"2165",55,"15",1,1,1,3,0,NA,NA
"2166",55,"16",1,1,1,3,0,NA,NA
"2167",55,"17",1,1,1,4,0,NA,NA
"2168",55,"18",1,1,1,6,0,NA,NA
"2169",55,"19",1,1,1,4,0,NA,NA
"2170",55,"110",1,1,1,3,0,NA,NA
"2171",55,"111",1,1,1,6,0,NA,NA
"2172",55,"112",1,1,1,6,0,NA,NA
"2173",55,"113",1,1,1,2,0,NA,NA
"2174",55,"114",1,1,1,2,0,NA,NA
"2175",55,"115",1,1,1,3,0,NA,NA
"2176",55,"116",1,1,1,4,0,NA,NA
"2177",55,"117",1,1,1,4,0,NA,NA
"2178",55,"118",1,1,1,3,0,NA,NA
"2179",55,"119",1,1,1,3,0,NA,NA
"2180",55,"120",1,1,1,3,0,NA,NA
"2181",55,"121",1,1,1,6,1,NA,NA
"2182",55,"122",1,1,1,6,1,NA,NA
"2183",55,"123",1,1,1,6,1,NA,NA
"2184",55,"124",1,1,1,6,1,NA,NA
"2185",55,"125",1,1,1,6,1,NA,NA
"2186",55,"126",1,1,1,6,1,NA,NA
"2187",55,"127",1,1,1,6,1,NA,NA
"2188",55,"128",1,1,1,6,1,NA,NA
"2189",55,"129",1,1,1,6,1,NA,NA
"2190",55,"130",1,1,1,6,1,NA,NA
"2191",55,"131",1,1,1,6,1,NA,NA
"2192",55,"132",1,1,1,6,1,NA,NA
"2193",55,"133",1,1,1,6,1,NA,NA
"2194",55,"134",1,1,1,6,1,NA,NA
"2195",55,"135",1,1,1,6,1,NA,NA
"2196",55,"136",1,1,1,6,1,NA,NA
"2197",55,"137",1,1,1,6,1,NA,NA
"2198",55,"138",1,1,1,6,1,NA,NA
"2199",55,"139",1,1,1,6,1,NA,NA
"2200",55,"140",1,1,1,6,1,NA,NA
"2201",56,"11",1,1,1,3,0,NA,NA
"2202",56,"12",1,1,1,3,0,NA,NA
"2203",56,"13",1,1,1,2,0,NA,NA
"2204",56,"14",1,1,1,3,0,NA,NA
"2205",56,"15",1,1,1,2,0,NA,NA
"2206",56,"16",1,1,1,3,0,NA,NA
"2207",56,"17",1,1,1,6,0,NA,NA
"2208",56,"18",1,1,1,1,0,NA,NA
"2209",56,"19",1,1,1,3,0,NA,NA
"2210",56,"110",1,1,1,5,0,NA,NA
"2211",56,"111",1,1,1,5,0,NA,NA
"2212",56,"112",1,1,1,3,0,NA,NA
"2213",56,"113",1,1,1,3,0,NA,NA
"2214",56,"114",1,1,1,3,0,NA,NA
"2215",56,"115",1,1,1,3,0,NA,NA
"2216",56,"116",1,1,1,4,0,NA,NA
"2217",56,"117",1,1,1,4,0,NA,NA
"2218",56,"118",1,1,1,3,0,NA,NA
"2219",56,"119",1,1,1,2,0,NA,NA
"2220",56,"120",1,1,1,3,0,NA,NA
"2221",56,"121",1,1,1,4,1,NA,NA
"2222",56,"122",1,1,1,4,1,NA,NA
"2223",56,"123",1,1,1,3,1,NA,NA
"2224",56,"124",1,1,1,3,1,NA,NA
"2225",56,"125",1,1,1,3,1,NA,NA
"2226",56,"126",1,1,1,2,1,NA,NA
"2227",56,"127",1,1,1,3,1,NA,NA
"2228",56,"128",1,1,1,3,1,NA,NA
"2229",56,"129",1,1,1,5,1,NA,NA
"2230",56,"130",1,1,1,3,1,NA,NA
"2231",56,"131",1,1,1,3,1,NA,NA
"2232",56,"132",1,1,1,4,1,NA,NA
"2233",56,"133",1,1,1,3,1,NA,NA
"2234",56,"134",1,1,1,2,1,NA,NA
"2235",56,"135",1,1,1,3,1,NA,NA
"2236",56,"136",1,1,1,3,1,NA,NA
"2237",56,"137",1,1,1,2,1,NA,NA
"2238",56,"138",1,1,1,4,1,NA,NA
"2239",56,"139",1,1,1,1,1,NA,NA
"2240",56,"140",1,1,1,1,1,NA,NA
"2241",57,"11",1,1,1,4,0,NA,NA
"2242",57,"12",1,1,1,6,0,NA,NA
"2243",57,"13",1,1,1,2,0,NA,NA
"2244",57,"14",1,1,1,2,0,NA,NA
"2245",57,"15",1,1,1,6,0,NA,NA
"2246",57,"16",1,1,1,3,0,NA,NA
"2247",57,"17",1,1,1,6,0,NA,NA
"2248",57,"18",1,1,1,1,0,NA,NA
"2249",57,"19",1,1,1,4,0,NA,NA
"2250",57,"110",1,1,1,6,0,NA,NA
"2251",57,"111",1,1,1,1,0,NA,NA
"2252",57,"112",1,1,1,6,0,NA,NA
"2253",57,"113",1,1,1,4,0,NA,NA
"2254",57,"114",1,1,1,2,0,NA,NA
"2255",57,"115",1,1,1,3,0,NA,NA
"2256",57,"116",1,1,1,5,0,NA,NA
"2257",57,"117",1,1,1,4,0,NA,NA
"2258",57,"118",1,1,1,4,0,NA,NA
"2259",57,"119",1,1,1,2,0,NA,NA
"2260",57,"120",1,1,1,3,0,NA,NA
"2261",57,"121",1,1,1,3,1,NA,NA
"2262",57,"122",1,1,1,6,1,NA,NA
"2263",57,"123",1,1,1,5,1,NA,NA
"2264",57,"124",1,1,1,4,1,NA,NA
"2265",57,"125",1,1,1,6,1,NA,NA
"2266",57,"126",1,1,1,5,1,NA,NA
"2267",57,"127",1,1,1,5,1,NA,NA
"2268",57,"128",1,1,1,6,1,NA,NA
"2269",57,"129",1,1,1,4,1,NA,NA
"2270",57,"130",1,1,1,4,1,NA,NA
"2271",57,"131",1,1,1,3,1,NA,NA
"2272",57,"132",1,1,1,4,1,NA,NA
"2273",57,"133",1,1,1,5,1,NA,NA
"2274",57,"134",1,1,1,1,1,NA,NA
"2275",57,"135",1,1,1,4,1,NA,NA
"2276",57,"136",1,1,1,4,1,NA,NA
"2277",57,"137",1,1,1,2,1,NA,NA
"2278",57,"138",1,1,1,5,1,NA,NA
"2279",57,"139",1,1,1,1,1,NA,NA
"2280",57,"140",1,1,1,4,1,NA,NA
"2281",58,"11",1,1,1,5,1,NA,NA
"2282",58,"12",1,1,1,6,1,NA,NA
"2283",58,"13",1,1,1,6,1,NA,NA
"2284",58,"14",1,1,1,6,1,NA,NA
"2285",58,"15",1,1,1,6,1,NA,NA
"2286",58,"16",1,1,1,6,1,NA,NA
"2287",58,"17",1,1,1,6,1,NA,NA
"2288",58,"18",1,1,1,6,1,NA,NA
"2289",58,"19",1,1,1,6,1,NA,NA
"2290",58,"110",1,1,1,6,1,NA,NA
"2291",58,"111",1,1,1,6,1,NA,NA
"2292",58,"112",1,1,1,6,1,NA,NA
"2293",58,"113",1,1,1,6,1,NA,NA
"2294",58,"114",1,1,1,6,1,NA,NA
"2295",58,"115",1,1,1,6,1,NA,NA
"2296",58,"116",1,1,1,6,1,NA,NA
"2297",58,"117",1,1,1,6,1,NA,NA
"2298",58,"118",1,1,1,6,1,NA,NA
"2299",58,"119",1,1,1,6,1,NA,NA
"2300",58,"120",1,1,1,6,1,NA,NA
"2301",58,"121",1,1,1,3,0,NA,NA
"2302",58,"122",1,1,1,3,0,NA,NA
"2303",58,"123",1,1,1,6,0,NA,NA
"2304",58,"124",1,1,1,4,0,NA,NA
"2305",58,"125",1,1,1,2,0,NA,NA
"2306",58,"126",1,1,1,4,0,NA,NA
"2307",58,"127",1,1,1,4,0,NA,NA
"2308",58,"128",1,1,1,3,0,NA,NA
"2309",58,"129",1,1,1,3,0,NA,NA
"2310",58,"130",1,1,1,3,0,NA,NA
"2311",58,"131",1,1,1,3,0,NA,NA
"2312",58,"132",1,1,1,6,0,NA,NA
"2313",58,"133",1,1,1,3,0,NA,NA
"2314",58,"134",1,1,1,3,0,NA,NA
"2315",58,"135",1,1,1,3,0,NA,NA
"2316",58,"136",1,1,1,4,0,NA,NA
"2317",58,"137",1,1,1,3,0,NA,NA
"2318",58,"138",1,1,1,4,0,NA,NA
"2319",58,"139",1,1,1,2,0,NA,NA
"2320",58,"140",1,1,1,3,0,NA,NA
"2321",59,"11",1,1,1,3,0,NA,NA
"2322",59,"12",1,1,1,5,0,NA,NA
"2323",59,"13",1,1,1,1,0,NA,NA
"2324",59,"14",1,1,1,5,0,NA,NA
"2325",59,"15",1,1,1,5,0,NA,NA
"2326",59,"16",1,1,1,4,0,NA,NA
"2327",59,"17",1,1,1,5,0,NA,NA
"2328",59,"18",1,1,1,2,0,NA,NA
"2329",59,"19",1,1,1,5,0,NA,NA
"2330",59,"110",1,1,1,2,0,NA,NA
"2331",59,"111",1,1,1,6,0,NA,NA
"2332",59,"112",1,1,1,6,0,NA,NA
"2333",59,"113",1,1,1,4,0,NA,NA
"2334",59,"114",1,1,1,3,0,NA,NA
"2335",59,"115",1,1,1,2,0,NA,NA
"2336",59,"116",1,1,1,6,0,NA,NA
"2337",59,"117",1,1,1,4,0,NA,NA
"2338",59,"118",1,1,1,5,0,NA,NA
"2339",59,"119",1,1,1,6,0,NA,NA
"2340",59,"120",1,1,1,3,0,NA,NA
"2341",59,"121",1,1,1,4,1,NA,NA
"2342",59,"122",1,1,1,3,1,NA,NA
"2343",59,"123",1,1,1,6,1,NA,NA
"2344",59,"124",1,1,1,3,1,NA,NA
"2345",59,"125",1,1,1,3,1,NA,NA
"2346",59,"126",1,1,1,5,1,NA,NA
"2347",59,"127",1,1,1,5,1,NA,NA
"2348",59,"128",1,1,1,6,1,NA,NA
"2349",59,"129",1,1,1,5,1,NA,NA
"2350",59,"130",1,1,1,4,1,NA,NA
"2351",59,"131",1,1,1,4,1,NA,NA
"2352",59,"132",1,1,1,4,1,NA,NA
"2353",59,"133",1,1,1,5,1,NA,NA
"2354",59,"134",1,1,1,5,1,NA,NA
"2355",59,"135",1,1,1,6,1,NA,NA
"2356",59,"136",1,1,1,4,1,NA,NA
"2357",59,"137",1,1,1,2,1,NA,NA
"2358",59,"138",1,1,1,5,1,NA,NA
"2359",59,"139",1,1,1,6,1,NA,NA
"2360",59,"140",1,1,1,6,1,NA,NA
"2361",60,"11",1,1,1,4,1,NA,NA
"2362",60,"12",1,1,1,5,1,NA,NA
"2363",60,"13",1,1,1,2,1,NA,NA
"2364",60,"14",1,1,1,5,1,NA,NA
"2365",60,"15",1,1,1,5,1,NA,NA
"2366",60,"16",1,1,1,4,1,NA,NA
"2367",60,"17",1,1,1,6,1,NA,NA
"2368",60,"18",1,1,1,3,1,NA,NA
"2369",60,"19",1,1,1,4,1,NA,NA
"2370",60,"110",1,1,1,5,1,NA,NA
"2371",60,"111",1,1,1,2,1,NA,NA
"2372",60,"112",1,1,1,3,1,NA,NA
"2373",60,"113",1,1,1,3,1,NA,NA
"2374",60,"114",1,1,1,4,1,NA,NA
"2375",60,"115",1,1,1,4,1,NA,NA
"2376",60,"116",1,1,1,5,1,NA,NA
"2377",60,"117",1,1,1,5,1,NA,NA
"2378",60,"118",1,1,1,4,1,NA,NA
"2379",60,"119",1,1,1,5,1,NA,NA
"2380",60,"120",1,1,1,3,1,NA,NA
"2381",60,"121",1,1,1,4,0,NA,NA
"2382",60,"122",1,1,1,5,0,NA,NA
"2383",60,"123",1,1,1,5,0,NA,NA
"2384",60,"124",1,1,1,4,0,NA,NA
"2385",60,"125",1,1,1,4,0,NA,NA
"2386",60,"126",1,1,1,3,0,NA,NA
"2387",60,"127",1,1,1,4,0,NA,NA
"2388",60,"128",1,1,1,2,0,NA,NA
"2389",60,"129",1,1,1,4,0,NA,NA
"2390",60,"130",1,1,1,2,0,NA,NA
"2391",60,"131",1,1,1,3,0,NA,NA
"2392",60,"132",1,1,1,3,0,NA,NA
"2393",60,"133",1,1,1,4,0,NA,NA
"2394",60,"134",1,1,1,3,0,NA,NA
"2395",60,"135",1,1,1,4,0,NA,NA
"2396",60,"136",1,1,1,3,0,NA,NA
"2397",60,"137",1,1,1,4,0,NA,NA
"2398",60,"138",1,1,1,5,0,NA,NA
"2399",60,"139",1,1,1,3,0,NA,NA
"2400",60,"140",1,1,1,6,0,NA,NA
"2401",61,"11",1,1,1,4,0,NA,NA
"2402",61,"12",1,1,1,3,0,NA,NA
"2403",61,"13",1,1,1,1,0,NA,NA
"2404",61,"14",1,1,1,4,0,NA,NA
"2405",61,"15",1,1,1,1,0,NA,NA
"2406",61,"16",1,1,1,3,0,NA,NA
"2407",61,"17",1,1,1,6,0,NA,NA
"2408",61,"18",1,1,1,1,0,NA,NA
"2409",61,"19",1,1,1,4,0,NA,NA
"2410",61,"110",1,1,1,6,0,NA,NA
"2411",61,"111",1,1,1,6,0,NA,NA
"2412",61,"112",1,1,1,5,0,NA,NA
"2413",61,"113",1,1,1,2,0,NA,NA
"2414",61,"114",1,1,1,2,0,NA,NA
"2415",61,"115",1,1,1,2,0,NA,NA
"2416",61,"116",1,1,1,5,0,NA,NA
"2417",61,"117",1,1,1,4,0,NA,NA
"2418",61,"118",1,1,1,4,0,NA,NA
"2419",61,"119",1,1,1,5,0,NA,NA
"2420",61,"120",1,1,1,3,0,NA,NA
"2421",61,"121",1,1,1,4,1,NA,NA
"2422",61,"122",1,1,1,6,1,NA,NA
"2423",61,"123",1,1,1,5,1,NA,NA
"2424",61,"124",1,1,1,4,1,NA,NA
"2425",61,"125",1,1,1,1,1,NA,NA
"2426",61,"126",1,1,1,2,1,NA,NA
"2427",61,"127",1,1,1,3,1,NA,NA
"2428",61,"128",1,1,1,2,1,NA,NA
"2429",61,"129",1,1,1,4,1,NA,NA
"2430",61,"130",1,1,1,4,1,NA,NA
"2431",61,"131",1,1,1,3,1,NA,NA
"2432",61,"132",1,1,1,5,1,NA,NA
"2433",61,"133",1,1,1,4,1,NA,NA
"2434",61,"134",1,1,1,4,1,NA,NA
"2435",61,"135",1,1,1,5,1,NA,NA
"2436",61,"136",1,1,1,4,1,NA,NA
"2437",61,"137",1,1,1,3,1,NA,NA
"2438",61,"138",1,1,1,6,1,NA,NA
"2439",61,"139",1,1,1,1,1,NA,NA
"2440",61,"140",1,1,1,4,1,NA,NA
"2441",62,"11",1,1,1,4,1,NA,NA
"2442",62,"12",1,1,1,1,1,NA,NA
"2443",62,"13",1,1,1,3,1,NA,NA
"2444",62,"14",1,1,1,3,1,NA,NA
"2445",62,"15",1,1,1,1,1,NA,NA
"2446",62,"16",1,1,1,5,1,NA,NA
"2447",62,"17",1,1,1,4,1,NA,NA
"2448",62,"18",1,1,1,1,1,NA,NA
"2449",62,"19",1,1,1,5,1,NA,NA
"2450",62,"110",1,1,1,6,1,NA,NA
"2451",62,"111",1,1,1,5,1,NA,NA
"2452",62,"112",1,1,1,6,1,NA,NA
"2453",62,"113",1,1,1,4,1,NA,NA
"2454",62,"114",1,1,1,2,1,NA,NA
"2455",62,"115",1,1,1,4,1,NA,NA
"2456",62,"116",1,1,1,6,1,NA,NA
"2457",62,"117",1,1,1,4,1,NA,NA
"2458",62,"118",1,1,1,4,1,NA,NA
"2459",62,"119",1,1,1,6,1,NA,NA
"2460",62,"120",1,1,1,3,1,NA,NA
"2461",62,"121",1,1,1,6,0,NA,NA
"2462",62,"122",1,1,1,1,0,NA,NA
"2463",62,"123",1,1,1,6,0,NA,NA
"2464",62,"124",1,1,1,5,0,NA,NA
"2465",62,"125",1,1,1,2,0,NA,NA
"2466",62,"126",1,1,1,1,0,NA,NA
"2467",62,"127",1,1,1,4,0,NA,NA
"2468",62,"128",1,1,1,1,0,NA,NA
"2469",62,"129",1,1,1,4,0,NA,NA
"2470",62,"130",1,1,1,1,0,NA,NA
"2471",62,"131",1,1,1,4,0,NA,NA
"2472",62,"132",1,1,1,6,0,NA,NA
"2473",62,"133",1,1,1,4,0,NA,NA
"2474",62,"134",1,1,1,3,0,NA,NA
"2475",62,"135",1,1,1,5,0,NA,NA
"2476",62,"136",1,1,1,4,0,NA,NA
"2477",62,"137",1,1,1,3,0,NA,NA
"2478",62,"138",1,1,1,4,0,NA,NA
"2479",62,"139",1,1,1,1,0,NA,NA
"2480",62,"140",1,1,1,1,0,NA,NA
"2481",63,"11",1,1,1,4,1,NA,NA
"2482",63,"12",1,1,1,4,1,NA,NA
"2483",63,"13",1,1,1,5,1,NA,NA
"2484",63,"14",1,1,1,5,1,NA,NA
"2485",63,"15",1,1,1,4,1,NA,NA
"2486",63,"16",1,1,1,1,1,NA,NA
"2487",63,"17",1,1,1,6,1,NA,NA
"2488",63,"18",1,1,1,6,1,NA,NA
"2489",63,"19",1,1,1,6,1,NA,NA
"2490",63,"110",1,1,1,6,1,NA,NA
"2491",63,"111",1,1,1,5,1,NA,NA
"2492",63,"112",1,1,1,2,1,NA,NA
"2493",63,"113",1,1,1,2,1,NA,NA
"2494",63,"114",1,1,1,4,1,NA,NA
"2495",63,"115",1,1,1,3,1,NA,NA
"2496",63,"116",1,1,1,1,1,NA,NA
"2497",63,"117",1,1,1,2,1,NA,NA
"2498",63,"118",1,1,1,4,1,NA,NA
"2499",63,"119",1,1,1,1,1,NA,NA
"2500",63,"120",1,1,1,4,1,NA,NA
"2501",63,"121",1,1,1,4,0,NA,NA
"2502",63,"122",1,1,1,5,0,NA,NA
"2503",63,"123",1,1,1,6,0,NA,NA
"2504",63,"124",1,1,1,2,0,NA,NA
"2505",63,"125",1,1,1,6,0,NA,NA
"2506",63,"126",1,1,1,6,0,NA,NA
"2507",63,"127",1,1,1,4,0,NA,NA
"2508",63,"128",1,1,1,6,0,NA,NA
"2509",63,"129",1,1,1,5,0,NA,NA
"2510",63,"130",1,1,1,6,0,NA,NA
"2511",63,"131",1,1,1,4,0,NA,NA
"2512",63,"132",1,1,1,6,0,NA,NA
"2513",63,"133",1,1,1,3,0,NA,NA
"2514",63,"134",1,1,1,1,0,NA,NA
"2515",63,"135",1,1,1,2,0,NA,NA
"2516",63,"136",1,1,1,2,0,NA,NA
"2517",63,"137",1,1,1,5,0,NA,NA
"2518",63,"138",1,1,1,1,0,NA,NA
"2519",63,"139",1,1,1,1,0,NA,NA
"2520",63,"140",1,1,1,6,0,NA,NA
"2521",64,"11",1,1,1,4,0,NA,NA
"2522",64,"12",1,1,1,3,0,NA,NA
"2523",64,"13",1,1,1,3,0,NA,NA
"2524",64,"14",1,1,1,4,0,NA,NA
"2525",64,"15",1,1,1,3,0,NA,NA
"2526",64,"16",1,1,1,4,0,NA,NA
"2527",64,"17",1,1,1,4,0,NA,NA
"2528",64,"18",1,1,1,2,0,NA,NA
"2529",64,"19",1,1,1,2,0,NA,NA
"2530",64,"110",1,1,1,3,0,NA,NA
"2531",64,"111",1,1,1,3,0,NA,NA
"2532",64,"112",1,1,1,4,0,NA,NA
"2533",64,"113",1,1,1,3,0,NA,NA
"2534",64,"114",1,1,1,3,0,NA,NA
"2535",64,"115",1,1,1,3,0,NA,NA
"2536",64,"116",1,1,1,5,0,NA,NA
"2537",64,"117",1,1,1,4,0,NA,NA
"2538",64,"118",1,1,1,4,0,NA,NA
"2539",64,"119",1,1,1,3,0,NA,NA
"2540",64,"120",1,1,1,4,0,NA,NA
"2541",64,"121",1,1,1,3,1,NA,NA
"2542",64,"122",1,1,1,4,1,NA,NA
"2543",64,"123",1,1,1,4,1,NA,NA
"2544",64,"124",1,1,1,4,1,NA,NA
"2545",64,"125",1,1,1,3,1,NA,NA
"2546",64,"126",1,1,1,4,1,NA,NA
"2547",64,"127",1,1,1,4,1,NA,NA
"2548",64,"128",1,1,1,4,1,NA,NA
"2549",64,"129",1,1,1,4,1,NA,NA
"2550",64,"130",1,1,1,4,1,NA,NA
"2551",64,"131",1,1,1,3,1,NA,NA
"2552",64,"132",1,1,1,4,1,NA,NA
"2553",64,"133",1,1,1,4,1,NA,NA
"2554",64,"134",1,1,1,3,1,NA,NA
"2555",64,"135",1,1,1,4,1,NA,NA
"2556",64,"136",1,1,1,4,1,NA,NA
"2557",64,"137",1,1,1,4,1,NA,NA
"2558",64,"138",1,1,1,4,1,NA,NA
"2559",64,"139",1,1,1,2,1,NA,NA
"2560",64,"140",1,1,1,3,1,NA,NA
"2561",65,"11",1,1,1,4,0,NA,NA
"2562",65,"12",1,1,1,2,0,NA,NA
"2563",65,"13",1,1,1,2,0,NA,NA
"2564",65,"14",1,1,1,5,0,NA,NA
"2565",65,"15",1,1,1,2,0,NA,NA
"2566",65,"16",1,1,1,3,0,NA,NA
"2567",65,"17",1,1,1,5,0,NA,NA
"2568",65,"18",1,1,1,1,0,NA,NA
"2569",65,"19",1,1,1,3,0,NA,NA
"2570",65,"110",1,1,1,3,0,NA,NA
"2571",65,"111",1,1,1,2,0,NA,NA
"2572",65,"112",1,1,1,5,0,NA,NA
"2573",65,"113",1,1,1,4,0,NA,NA
"2574",65,"114",1,1,1,3,0,NA,NA
"2575",65,"115",1,1,1,3,0,NA,NA
"2576",65,"116",1,1,1,4,0,NA,NA
"2577",65,"117",1,1,1,5,0,NA,NA
"2578",65,"118",1,1,1,4,0,NA,NA
"2579",65,"119",1,1,1,2,0,NA,NA
"2580",65,"120",1,1,1,2,0,NA,NA
"2581",65,"121",1,1,1,2,1,NA,NA
"2582",65,"122",1,1,1,4,1,NA,NA
"2583",65,"123",1,1,1,5,1,NA,NA
"2584",65,"124",1,1,1,4,1,NA,NA
"2585",65,"125",1,1,1,1,1,NA,NA
"2586",65,"126",1,1,1,4,1,NA,NA
"2587",65,"127",1,1,1,4,1,NA,NA
"2588",65,"128",1,1,1,3,1,NA,NA
"2589",65,"129",1,1,1,4,1,NA,NA
"2590",65,"130",1,1,1,5,1,NA,NA
"2591",65,"131",1,1,1,4,1,NA,NA
"2592",65,"132",1,1,1,5,1,NA,NA
"2593",65,"133",1,1,1,5,1,NA,NA
"2594",65,"134",1,1,1,2,1,NA,NA
"2595",65,"135",1,1,1,3,1,NA,NA
"2596",65,"136",1,1,1,5,1,NA,NA
"2597",65,"137",1,1,1,5,1,NA,NA
"2598",65,"138",1,1,1,6,1,NA,NA
"2599",65,"139",1,1,1,3,1,NA,NA
"2600",65,"140",1,1,1,4,1,NA,NA
"2601",66,"11",1,1,1,4,0,NA,NA
"2602",66,"12",1,1,1,4,0,NA,NA
"2603",66,"13",1,1,1,3,0,NA,NA
"2604",66,"14",1,1,1,4,0,NA,NA
"2605",66,"15",1,1,1,3,0,NA,NA
"2606",66,"16",1,1,1,4,0,NA,NA
"2607",66,"17",1,1,1,4,0,NA,NA
"2608",66,"18",1,1,1,4,0,NA,NA
"2609",66,"19",1,1,1,3,0,NA,NA
"2610",66,"110",1,1,1,4,0,NA,NA
"2611",66,"111",1,1,1,4,0,NA,NA
"2612",66,"112",1,1,1,3,0,NA,NA
"2613",66,"113",1,1,1,3,0,NA,NA
"2614",66,"114",1,1,1,3,0,NA,NA
"2615",66,"115",1,1,1,3,0,NA,NA
"2616",66,"116",1,1,1,4,0,NA,NA
"2617",66,"117",1,1,1,3,0,NA,NA
"2618",66,"118",1,1,1,4,0,NA,NA
"2619",66,"119",1,1,1,3,0,NA,NA
"2620",66,"120",1,1,1,3,0,NA,NA
"2621",66,"121",1,1,1,3,1,NA,NA
"2622",66,"122",1,1,1,5,1,NA,NA
"2623",66,"123",1,1,1,4,1,NA,NA
"2624",66,"124",1,1,1,3,1,NA,NA
"2625",66,"125",1,1,1,4,1,NA,NA
"2626",66,"126",1,1,1,5,1,NA,NA
"2627",66,"127",1,1,1,4,1,NA,NA
"2628",66,"128",1,1,1,4,1,NA,NA
"2629",66,"129",1,1,1,4,1,NA,NA
"2630",66,"130",1,1,1,3,1,NA,NA
"2631",66,"131",1,1,1,3,1,NA,NA
"2632",66,"132",1,1,1,4,1,NA,NA
"2633",66,"133",1,1,1,4,1,NA,NA
"2634",66,"134",1,1,1,3,1,NA,NA
"2635",66,"135",1,1,1,4,1,NA,NA
"2636",66,"136",1,1,1,4,1,NA,NA
"2637",66,"137",1,1,1,4,1,NA,NA
"2638",66,"138",1,1,1,4,1,NA,NA
"2639",66,"139",1,1,1,3,1,NA,NA
"2640",66,"140",1,1,1,1,1,NA,NA
"2641",67,"11",1,1,1,3,0,NA,NA
"2642",67,"12",1,1,1,3,0,NA,NA
"2643",67,"13",1,1,1,3,0,NA,NA
"2644",67,"14",1,1,1,4,0,NA,NA
"2645",67,"15",1,1,1,5,0,NA,NA
"2646",67,"16",1,1,1,3,0,NA,NA
"2647",67,"17",1,1,1,4,0,NA,NA
"2648",67,"18",1,1,1,1,0,NA,NA
"2649",67,"19",1,1,1,5,0,NA,NA
"2650",67,"110",1,1,1,5,0,NA,NA
"2651",67,"111",1,1,1,3,0,NA,NA
"2652",67,"112",1,1,1,5,0,NA,NA
"2653",67,"113",1,1,1,4,0,NA,NA
"2654",67,"114",1,1,1,3,0,NA,NA
"2655",67,"115",1,1,1,3,0,NA,NA
"2656",67,"116",1,1,1,4,0,NA,NA
"2657",67,"117",1,1,1,4,0,NA,NA
"2658",67,"118",1,1,1,5,0,NA,NA
"2659",67,"119",1,1,1,3,0,NA,NA
"2660",67,"120",1,1,1,3,0,NA,NA
"2661",67,"121",1,1,1,2,1,NA,NA
"2662",67,"122",1,1,1,3,1,NA,NA
"2663",67,"123",1,1,1,4,1,NA,NA
"2664",67,"124",1,1,1,3,1,NA,NA
"2665",67,"125",1,1,1,2,1,NA,NA
"2666",67,"126",1,1,1,3,1,NA,NA
"2667",67,"127",1,1,1,4,1,NA,NA
"2668",67,"128",1,1,1,2,1,NA,NA
"2669",67,"129",1,1,1,3,1,NA,NA
"2670",67,"130",1,1,1,4,1,NA,NA
"2671",67,"131",1,1,1,3,1,NA,NA
"2672",67,"132",1,1,1,5,1,NA,NA
"2673",67,"133",1,1,1,5,1,NA,NA
"2674",67,"134",1,1,1,4,1,NA,NA
"2675",67,"135",1,1,1,3,1,NA,NA
"2676",67,"136",1,1,1,4,1,NA,NA
"2677",67,"137",1,1,1,4,1,NA,NA
"2678",67,"138",1,1,1,5,1,NA,NA
"2679",67,"139",1,1,1,1,1,NA,NA
"2680",67,"140",1,1,1,4,1,NA,NA
"2681",68,"11",1,1,1,5,1,NA,NA
"2682",68,"12",1,1,1,4,1,NA,NA
"2683",68,"13",1,1,1,4,1,NA,NA
"2684",68,"14",1,1,1,5,1,NA,NA
"2685",68,"15",1,1,1,6,1,NA,NA
"2686",68,"16",1,1,1,3,1,NA,NA
"2687",68,"17",1,1,1,2,1,NA,NA
"2688",68,"18",1,1,1,2,1,NA,NA
"2689",68,"19",1,1,1,1,1,NA,NA
"2690",68,"110",1,1,1,6,1,NA,NA
"2691",68,"111",1,1,1,1,1,NA,NA
"2692",68,"112",1,1,1,1,1,NA,NA
"2693",68,"113",1,1,1,3,1,NA,NA
"2694",68,"114",1,1,1,2,1,NA,NA
"2695",68,"115",1,1,1,3,1,NA,NA
"2696",68,"116",1,1,1,3,1,NA,NA
"2697",68,"117",1,1,1,5,1,NA,NA
"2698",68,"118",1,1,1,4,1,NA,NA
"2699",68,"119",1,1,1,4,1,NA,NA
"2700",68,"120",1,1,1,3,1,NA,NA
"2701",68,"121",1,1,1,5,0,NA,NA
"2702",68,"122",1,1,1,6,0,NA,NA
"2703",68,"123",1,1,1,5,0,NA,NA
"2704",68,"124",1,1,1,4,0,NA,NA
"2705",68,"125",1,1,1,6,0,NA,NA
"2706",68,"126",1,1,1,2,0,NA,NA
"2707",68,"127",1,1,1,3,0,NA,NA
"2708",68,"128",1,1,1,2,0,NA,NA
"2709",68,"129",1,1,1,6,0,NA,NA
"2710",68,"130",1,1,1,4,0,NA,NA
"2711",68,"131",1,1,1,2,0,NA,NA
"2712",68,"132",1,1,1,5,0,NA,NA
"2713",68,"133",1,1,1,5,0,NA,NA
"2714",68,"134",1,1,1,1,0,NA,NA
"2715",68,"135",1,1,1,4,0,NA,NA
"2716",68,"136",1,1,1,2,0,NA,NA
"2717",68,"137",1,1,1,2,0,NA,NA
"2718",68,"138",1,1,1,4,0,NA,NA
"2719",68,"139",1,1,1,2,0,NA,NA
"2720",68,"140",1,1,1,1,0,NA,NA
"2721",69,"11",1,1,1,2,0,NA,NA
"2722",69,"12",1,1,1,6,0,NA,NA
"2723",69,"13",1,1,1,2,0,NA,NA
"2724",69,"14",1,1,1,2,0,NA,NA
"2725",69,"15",1,1,1,6,0,NA,NA
"2726",69,"16",1,1,1,3,0,NA,NA
"2727",69,"17",1,1,1,4,0,NA,NA
"2728",69,"18",1,1,1,6,0,NA,NA
"2729",69,"19",1,1,1,5,0,NA,NA
"2730",69,"110",1,1,1,4,0,NA,NA
"2731",69,"111",1,1,1,1,0,NA,NA
"2732",69,"112",1,1,1,3,0,NA,NA
"2733",69,"113",1,1,1,3,0,NA,NA
"2734",69,"114",1,1,1,4,0,NA,NA
"2735",69,"115",1,1,1,3,0,NA,NA
"2736",69,"116",1,1,1,3,0,NA,NA
"2737",69,"117",1,1,1,5,0,NA,NA
"2738",69,"118",1,1,1,4,0,NA,NA
"2739",69,"119",1,1,1,4,0,NA,NA
"2740",69,"120",1,1,1,2,0,NA,NA
"2741",69,"121",1,1,1,4,1,NA,NA
"2742",69,"122",1,1,1,6,1,NA,NA
"2743",69,"123",1,1,1,6,1,NA,NA
"2744",69,"124",1,1,1,5,1,NA,NA
"2745",69,"125",1,1,1,5,1,NA,NA
"2746",69,"126",1,1,1,3,1,NA,NA
"2747",69,"127",1,1,1,4,1,NA,NA
"2748",69,"128",1,1,1,6,1,NA,NA
"2749",69,"129",1,1,1,5,1,NA,NA
"2750",69,"130",1,1,1,5,1,NA,NA
"2751",69,"131",1,1,1,4,1,NA,NA
"2752",69,"132",1,1,1,2,1,NA,NA
"2753",69,"133",1,1,1,4,1,NA,NA
"2754",69,"134",1,1,1,5,1,NA,NA
"2755",69,"135",1,1,1,5,1,NA,NA
"2756",69,"136",1,1,1,5,1,NA,NA
"2757",69,"137",1,1,1,5,1,NA,NA
"2758",69,"138",1,1,1,5,1,NA,NA
"2759",69,"139",1,1,1,5,1,NA,NA
"2760",69,"140",1,1,1,5,1,NA,NA
"2761",70,"11",1,1,1,4,0,NA,NA
"2762",70,"12",1,1,1,3,0,NA,NA
"2763",70,"13",1,1,1,4,0,NA,NA
"2764",70,"14",1,1,1,5,0,NA,NA
"2765",70,"15",1,1,1,5,0,NA,NA
"2766",70,"16",1,1,1,3,0,NA,NA
"2767",70,"17",1,1,1,5,0,NA,NA
"2768",70,"18",1,1,1,1,0,NA,NA
"2769",70,"19",1,1,1,2,0,NA,NA
"2770",70,"110",1,1,1,5,0,NA,NA
"2771",70,"111",1,1,1,6,0,NA,NA
"2772",70,"112",1,1,1,5,0,NA,NA
"2773",70,"113",1,1,1,3,0,NA,NA
"2774",70,"114",1,1,1,3,0,NA,NA
"2775",70,"115",1,1,1,2,0,NA,NA
"2776",70,"116",1,1,1,5,0,NA,NA
"2777",70,"117",1,1,1,3,0,NA,NA
"2778",70,"118",1,1,1,4,0,NA,NA
"2779",70,"119",1,1,1,3,0,NA,NA
"2780",70,"120",1,1,1,4,0,NA,NA
"2781",70,"121",1,1,1,6,1,NA,NA
"2782",70,"122",1,1,1,4,1,NA,NA
"2783",70,"123",1,1,1,6,1,NA,NA
"2784",70,"124",1,1,1,4,1,NA,NA
"2785",70,"125",1,1,1,2,1,NA,NA
"2786",70,"126",1,1,1,2,1,NA,NA
"2787",70,"127",1,1,1,3,1,NA,NA
"2788",70,"128",1,1,1,2,1,NA,NA
"2789",70,"129",1,1,1,5,1,NA,NA
"2790",70,"130",1,1,1,2,1,NA,NA
"2791",70,"131",1,1,1,2,1,NA,NA
"2792",70,"132",1,1,1,6,1,NA,NA
"2793",70,"133",1,1,1,6,1,NA,NA
"2794",70,"134",1,1,1,3,1,NA,NA
"2795",70,"135",1,1,1,5,1,NA,NA
"2796",70,"136",1,1,1,5,1,NA,NA
"2797",70,"137",1,1,1,4,1,NA,NA
"2798",70,"138",1,1,1,6,1,NA,NA
"2799",70,"139",1,1,1,2,1,NA,NA
"2800",70,"140",1,1,1,3,1,NA,NA
"2801",71,"11",1,1,1,4,0,NA,NA
"2802",71,"12",1,1,1,3,0,NA,NA
"2803",71,"13",1,1,1,3,0,NA,NA
"2804",71,"14",1,1,1,4,0,NA,NA
"2805",71,"15",1,1,1,3,0,NA,NA
"2806",71,"16",1,1,1,3,0,NA,NA
"2807",71,"17",1,1,1,2,0,NA,NA
"2808",71,"18",1,1,1,5,0,NA,NA
"2809",71,"19",1,1,1,3,0,NA,NA
"2810",71,"110",1,1,1,5,0,NA,NA
"2811",71,"111",1,1,1,5,0,NA,NA
"2812",71,"112",1,1,1,4,0,NA,NA
"2813",71,"113",1,1,1,3,0,NA,NA
"2814",71,"114",1,1,1,3,0,NA,NA
"2815",71,"115",1,1,1,2,0,NA,NA
"2816",71,"116",1,1,1,2,0,NA,NA
"2817",71,"117",1,1,1,2,0,NA,NA
"2818",71,"118",1,1,1,4,0,NA,NA
"2819",71,"119",1,1,1,5,0,NA,NA
"2820",71,"120",1,1,1,3,0,NA,NA
"2821",71,"121",1,1,1,4,1,NA,NA
"2822",71,"122",1,1,1,5,1,NA,NA
"2823",71,"123",1,1,1,5,1,NA,NA
"2824",71,"124",1,1,1,4,1,NA,NA
"2825",71,"125",1,1,1,6,1,NA,NA
"2826",71,"126",1,1,1,3,1,NA,NA
"2827",71,"127",1,1,1,4,1,NA,NA
"2828",71,"128",1,1,1,6,1,NA,NA
"2829",71,"129",1,1,1,4,1,NA,NA
"2830",71,"130",1,1,1,3,1,NA,NA
"2831",71,"131",1,1,1,2,1,NA,NA
"2832",71,"132",1,1,1,2,1,NA,NA
"2833",71,"133",1,1,1,2,1,NA,NA
"2834",71,"134",1,1,1,3,1,NA,NA
"2835",71,"135",1,1,1,4,1,NA,NA
"2836",71,"136",1,1,1,4,1,NA,NA
"2837",71,"137",1,1,1,2,1,NA,NA
"2838",71,"138",1,1,1,5,1,NA,NA
"2839",71,"139",1,1,1,3,1,NA,NA
"2840",71,"140",1,1,1,1,1,NA,NA
"2841",72,"11",1,1,1,6,0,NA,NA
"2842",72,"12",1,1,1,6,0,NA,NA
"2843",72,"13",1,1,1,1,0,NA,NA
"2844",72,"14",1,1,1,3,0,NA,NA
"2845",72,"15",1,1,1,5,0,NA,NA
"2846",72,"16",1,1,1,3,0,NA,NA
"2847",72,"17",1,1,1,5,0,NA,NA
"2848",72,"18",1,1,1,6,0,NA,NA
"2849",72,"19",1,1,1,2,0,NA,NA
"2850",72,"110",1,1,1,5,0,NA,NA
"2851",72,"111",1,1,1,2,0,NA,NA
"2852",72,"112",1,1,1,2,0,NA,NA
"2853",72,"113",1,1,1,4,0,NA,NA
"2854",72,"114",1,1,1,3,0,NA,NA
"2855",72,"115",1,1,1,3,0,NA,NA
"2856",72,"116",1,1,1,4,0,NA,NA
"2857",72,"117",1,1,1,5,0,NA,NA
"2858",72,"118",1,1,1,4,0,NA,NA
"2859",72,"119",1,1,1,6,0,NA,NA
"2860",72,"120",1,1,1,1,0,NA,NA
"2861",72,"121",1,1,1,5,1,NA,NA
"2862",72,"122",1,1,1,2,1,NA,NA
"2863",72,"123",1,1,1,5,1,NA,NA
"2864",72,"124",1,1,1,4,1,NA,NA
"2865",72,"125",1,1,1,6,1,NA,NA
"2866",72,"126",1,1,1,1,1,NA,NA
"2867",72,"127",1,1,1,5,1,NA,NA
"2868",72,"128",1,1,1,6,1,NA,NA
"2869",72,"129",1,1,1,4,1,NA,NA
"2870",72,"130",1,1,1,4,1,NA,NA
"2871",72,"131",1,1,1,4,1,NA,NA
"2872",72,"132",1,1,1,4,1,NA,NA
"2873",72,"133",1,1,1,5,1,NA,NA
"2874",72,"134",1,1,1,1,1,NA,NA
"2875",72,"135",1,1,1,4,1,NA,NA
"2876",72,"136",1,1,1,4,1,NA,NA
"2877",72,"137",1,1,1,4,1,NA,NA
"2878",72,"138",1,1,1,4,1,NA,NA
"2879",72,"139",1,1,1,3,1,NA,NA
"2880",72,"140",1,1,1,4,1,NA,NA
"2881",73,"11",1,1,1,4,0,NA,NA
"2882",73,"12",1,1,1,3,0,NA,NA
"2883",73,"13",1,1,1,4,0,NA,NA
"2884",73,"14",1,1,1,6,0,NA,NA
"2885",73,"15",1,1,1,6,0,NA,NA
"2886",73,"16",1,1,1,1,0,NA,NA
"2887",73,"17",1,1,1,6,0,NA,NA
"2888",73,"18",1,1,1,2,0,NA,NA
"2889",73,"19",1,1,1,3,0,NA,NA
"2890",73,"110",1,1,1,6,0,NA,NA
"2891",73,"111",1,1,1,6,0,NA,NA
"2892",73,"112",1,1,1,5,0,NA,NA
"2893",73,"113",1,1,1,3,0,NA,NA
"2894",73,"114",1,1,1,3,0,NA,NA
"2895",73,"115",1,1,1,2,0,NA,NA
"2896",73,"116",1,1,1,1,0,NA,NA
"2897",73,"117",1,1,1,5,0,NA,NA
"2898",73,"118",1,1,1,3,0,NA,NA
"2899",73,"119",1,1,1,6,0,NA,NA
"2900",73,"120",1,1,1,4,0,NA,NA
"2901",73,"121",1,1,1,5,1,NA,NA
"2902",73,"122",1,1,1,5,1,NA,NA
"2903",73,"123",1,1,1,6,1,NA,NA
"2904",73,"124",1,1,1,1,1,NA,NA
"2905",73,"125",1,1,1,6,1,NA,NA
"2906",73,"126",1,1,1,6,1,NA,NA
"2907",73,"127",1,1,1,6,1,NA,NA
"2908",73,"128",1,1,1,6,1,NA,NA
"2909",73,"129",1,1,1,6,1,NA,NA
"2910",73,"130",1,1,1,6,1,NA,NA
"2911",73,"131",1,1,1,1,1,NA,NA
"2912",73,"132",1,1,1,6,1,NA,NA
"2913",73,"133",1,1,1,6,1,NA,NA
"2914",73,"134",1,1,1,1,1,NA,NA
"2915",73,"135",1,1,1,5,1,NA,NA
"2916",73,"136",1,1,1,4,1,NA,NA
"2917",73,"137",1,1,1,3,1,NA,NA
"2918",73,"138",1,1,1,4,1,NA,NA
"2919",73,"139",1,1,1,1,1,NA,NA
"2920",73,"140",1,1,1,1,1,NA,NA
"2921",74,"11",1,1,1,4,0,NA,NA
"2922",74,"12",1,1,1,4,0,NA,NA
"2923",74,"13",1,1,1,1,0,NA,NA
"2924",74,"14",1,1,1,5,0,NA,NA
"2925",74,"15",1,1,1,5,0,NA,NA
"2926",74,"16",1,1,1,3,0,NA,NA
"2927",74,"17",1,1,1,5,0,NA,NA
"2928",74,"18",1,1,1,1,0,NA,NA
"2929",74,"19",1,1,1,5,0,NA,NA
"2930",74,"110",1,1,1,4,0,NA,NA
"2931",74,"111",1,1,1,6,0,NA,NA
"2932",74,"112",1,1,1,6,0,NA,NA
"2933",74,"113",1,1,1,4,0,NA,NA
"2934",74,"114",1,1,1,4,0,NA,NA
"2935",74,"115",1,1,1,5,0,NA,NA
"2936",74,"116",1,1,1,5,0,NA,NA
"2937",74,"117",1,1,1,5,0,NA,NA
"2938",74,"118",1,1,1,4,0,NA,NA
"2939",74,"119",1,1,1,5,0,NA,NA
"2940",74,"120",1,1,1,3,0,NA,NA
"2941",74,"121",1,1,1,3,1,NA,NA
"2942",74,"122",1,1,1,2,1,NA,NA
"2943",74,"123",1,1,1,6,1,NA,NA
"2944",74,"124",1,1,1,4,1,NA,NA
"2945",74,"125",1,1,1,4,1,NA,NA
"2946",74,"126",1,1,1,6,1,NA,NA
"2947",74,"127",1,1,1,4,1,NA,NA
"2948",74,"128",1,1,1,5,1,NA,NA
"2949",74,"129",1,1,1,5,1,NA,NA
"2950",74,"130",1,1,1,2,1,NA,NA
"2951",74,"131",1,1,1,2,1,NA,NA
"2952",74,"132",1,1,1,6,1,NA,NA
"2953",74,"133",1,1,1,2,1,NA,NA
"2954",74,"134",1,1,1,3,1,NA,NA
"2955",74,"135",1,1,1,5,1,NA,NA
"2956",74,"136",1,1,1,3,1,NA,NA
"2957",74,"137",1,1,1,3,1,NA,NA
"2958",74,"138",1,1,1,5,1,NA,NA
"2959",74,"139",1,1,1,2,1,NA,NA
"2960",74,"140",1,1,1,6,1,NA,NA
"2961",75,"11",1,1,1,4,1,NA,NA
"2962",75,"12",1,1,1,2,1,NA,NA
"2963",75,"13",1,1,1,1,1,NA,NA
"2964",75,"14",1,1,1,4,1,NA,NA
"2965",75,"15",1,1,1,2,1,NA,NA
"2966",75,"16",1,1,1,4,1,NA,NA
"2967",75,"17",1,1,1,6,1,NA,NA
"2968",75,"18",1,1,1,4,1,NA,NA
"2969",75,"19",1,1,1,5,1,NA,NA
"2970",75,"110",1,1,1,6,1,NA,NA
"2971",75,"111",1,1,1,6,1,NA,NA
"2972",75,"112",1,1,1,6,1,NA,NA
"2973",75,"113",1,1,1,3,1,NA,NA
"2974",75,"114",1,1,1,4,1,NA,NA
"2975",75,"115",1,1,1,5,1,NA,NA
"2976",75,"116",1,1,1,5,1,NA,NA
"2977",75,"117",1,1,1,5,1,NA,NA
"2978",75,"118",1,1,1,4,1,NA,NA
"2979",75,"119",1,1,1,4,1,NA,NA
"2980",75,"120",1,1,1,4,1,NA,NA
"2981",75,"121",1,1,1,4,0,NA,NA
"2982",75,"122",1,1,1,5,0,NA,NA
"2983",75,"123",1,1,1,4,0,NA,NA
"2984",75,"124",1,1,1,3,0,NA,NA
"2985",75,"125",1,1,1,6,0,NA,NA
"2986",75,"126",1,1,1,4,0,NA,NA
"2987",75,"127",1,1,1,4,0,NA,NA
"2988",75,"128",1,1,1,5,0,NA,NA
"2989",75,"129",1,1,1,6,0,NA,NA
"2990",75,"130",1,1,1,3,0,NA,NA
"2991",75,"131",1,1,1,4,0,NA,NA
"2992",75,"132",1,1,1,2,0,NA,NA
"2993",75,"133",1,1,1,3,0,NA,NA
"2994",75,"134",1,1,1,1,0,NA,NA
"2995",75,"135",1,1,1,4,0,NA,NA
"2996",75,"136",1,1,1,4,0,NA,NA
"2997",75,"137",1,1,1,4,0,NA,NA
"2998",75,"138",1,1,1,4,0,NA,NA
"2999",75,"139",1,1,1,1,0,NA,NA
"3000",75,"140",1,1,1,4,0,NA,NA
"3001",76,"11",1,1,1,4,0,NA,NA
"3002",76,"12",1,1,1,3,0,NA,NA
"3003",76,"13",1,1,1,2,0,NA,NA
"3004",76,"14",1,1,1,4,0,NA,NA
"3005",76,"15",1,1,1,3,0,NA,NA
"3006",76,"16",1,1,1,3,0,NA,NA
"3007",76,"17",1,1,1,2,0,NA,NA
"3008",76,"18",1,1,1,2,0,NA,NA
"3009",76,"19",1,1,1,4,0,NA,NA
"3010",76,"110",1,1,1,5,0,NA,NA
"3011",76,"111",1,1,1,5,0,NA,NA
"3012",76,"112",1,1,1,3,0,NA,NA
"3013",76,"113",1,1,1,4,0,NA,NA
"3014",76,"114",1,1,1,4,0,NA,NA
"3015",76,"115",1,1,1,2,0,NA,NA
"3016",76,"116",1,1,1,5,0,NA,NA
"3017",76,"117",1,1,1,2,0,NA,NA
"3018",76,"118",1,1,1,4,0,NA,NA
"3019",76,"119",1,1,1,5,0,NA,NA
"3020",76,"120",1,1,1,4,0,NA,NA
"3021",76,"121",1,1,1,3,1,NA,NA
"3022",76,"122",1,1,1,3,1,NA,NA
"3023",76,"123",1,1,1,5,1,NA,NA
"3024",76,"124",1,1,1,4,1,NA,NA
"3025",76,"125",1,1,1,5,1,NA,NA
"3026",76,"126",1,1,1,4,1,NA,NA
"3027",76,"127",1,1,1,4,1,NA,NA
"3028",76,"128",1,1,1,4,1,NA,NA
"3029",76,"129",1,1,1,5,1,NA,NA
"3030",76,"130",1,1,1,2,1,NA,NA
"3031",76,"131",1,1,1,4,1,NA,NA
"3032",76,"132",1,1,1,5,1,NA,NA
"3033",76,"133",1,1,1,4,1,NA,NA
"3034",76,"134",1,1,1,5,1,NA,NA
"3035",76,"135",1,1,1,4,1,NA,NA
"3036",76,"136",1,1,1,4,1,NA,NA
"3037",76,"137",1,1,1,3,1,NA,NA
"3038",76,"138",1,1,1,4,1,NA,NA
"3039",76,"139",1,1,1,4,1,NA,NA
"3040",76,"140",1,1,1,5,1,NA,NA
"3041",77,"11",1,1,1,4,1,NA,NA
"3042",77,"12",1,1,1,2,1,NA,NA
"3043",77,"13",1,1,1,3,1,NA,NA
"3044",77,"14",1,1,1,5,1,NA,NA
"3045",77,"15",1,1,1,5,1,NA,NA
"3046",77,"16",1,1,1,3,1,NA,NA
"3047",77,"17",1,1,1,1,1,NA,NA
"3048",77,"18",1,1,1,2,1,NA,NA
"3049",77,"19",1,1,1,4,1,NA,NA
"3050",77,"110",1,1,1,6,1,NA,NA
"3051",77,"111",1,1,1,5,1,NA,NA
"3052",77,"112",1,1,1,6,1,NA,NA
"3053",77,"113",1,1,1,3,1,NA,NA
"3054",77,"114",1,1,1,4,1,NA,NA
"3055",77,"115",1,1,1,3,1,NA,NA
"3056",77,"116",1,1,1,4,1,NA,NA
"3057",77,"117",1,1,1,4,1,NA,NA
"3058",77,"118",1,1,1,4,1,NA,NA
"3059",77,"119",1,1,1,3,1,NA,NA
"3060",77,"120",1,1,1,3,1,NA,NA
"3061",77,"121",1,1,1,5,0,NA,NA
"3062",77,"122",1,1,1,5,0,NA,NA
"3063",77,"123",1,1,1,5,0,NA,NA
"3064",77,"124",1,1,1,4,0,NA,NA
"3065",77,"125",1,1,1,5,0,NA,NA
"3066",77,"126",1,1,1,4,0,NA,NA
"3067",77,"127",1,1,1,4,0,NA,NA
"3068",77,"128",1,1,1,2,0,NA,NA
"3069",77,"129",1,1,1,3,0,NA,NA
"3070",77,"130",1,1,1,3,0,NA,NA
"3071",77,"131",1,1,1,2,0,NA,NA
"3072",77,"132",1,1,1,4,0,NA,NA
"3073",77,"133",1,1,1,4,0,NA,NA
"3074",77,"134",1,1,1,4,0,NA,NA
"3075",77,"135",1,1,1,4,0,NA,NA
"3076",77,"136",1,1,1,4,0,NA,NA
"3077",77,"137",1,1,1,4,0,NA,NA
"3078",77,"138",1,1,1,5,0,NA,NA
"3079",77,"139",1,1,1,1,0,NA,NA
"3080",77,"140",1,1,1,4,0,NA,NA
"3081",78,"11",1,1,1,5,1,NA,NA
"3082",78,"12",1,1,1,2,1,NA,NA
"3083",78,"13",1,1,1,2,1,NA,NA
"3084",78,"14",1,1,1,5,1,NA,NA
"3085",78,"15",1,1,1,4,1,NA,NA
"3086",78,"16",1,1,1,3,1,NA,NA
"3087",78,"17",1,1,1,4,1,NA,NA
"3088",78,"18",1,1,1,2,1,NA,NA
"3089",78,"19",1,1,1,5,1,NA,NA
"3090",78,"110",1,1,1,4,1,NA,NA
"3091",78,"111",1,1,1,5,1,NA,NA
"3092",78,"112",1,1,1,5,1,NA,NA
"3093",78,"113",1,1,1,4,1,NA,NA
"3094",78,"114",1,1,1,4,1,NA,NA
"3095",78,"115",1,1,1,4,1,NA,NA
"3096",78,"116",1,1,1,4,1,NA,NA
"3097",78,"117",1,1,1,5,1,NA,NA
"3098",78,"118",1,1,1,4,1,NA,NA
"3099",78,"119",1,1,1,4,1,NA,NA
"3100",78,"120",1,1,1,3,1,NA,NA
"3101",78,"121",1,1,1,4,0,NA,NA
"3102",78,"122",1,1,1,3,0,NA,NA
"3103",78,"123",1,1,1,4,0,NA,NA
"3104",78,"124",1,1,1,3,0,NA,NA
"3105",78,"125",1,1,1,5,0,NA,NA
"3106",78,"126",1,1,1,4,0,NA,NA
"3107",78,"127",1,1,1,3,0,NA,NA
"3108",78,"128",1,1,1,3,0,NA,NA
"3109",78,"129",1,1,1,4,0,NA,NA
"3110",78,"130",1,1,1,3,0,NA,NA
"3111",78,"131",1,1,1,3,0,NA,NA
"3112",78,"132",1,1,1,4,0,NA,NA
"3113",78,"133",1,1,1,5,0,NA,NA
"3114",78,"134",1,1,1,3,0,NA,NA
"3115",78,"135",1,1,1,4,0,NA,NA
"3116",78,"136",1,1,1,3,0,NA,NA
"3117",78,"137",1,1,1,4,0,NA,NA
"3118",78,"138",1,1,1,4,0,NA,NA
"3119",78,"139",1,1,1,2,0,NA,NA
"3120",78,"140",1,1,1,3,0,NA,NA
"3121",79,"11",1,1,1,1,0,NA,NA
"3122",79,"12",1,1,1,3,0,NA,NA
"3123",79,"13",1,1,1,2,0,NA,NA
"3124",79,"14",1,1,1,3,0,NA,NA
"3125",79,"15",1,1,1,2,0,NA,NA
"3126",79,"16",1,1,1,2,0,NA,NA
"3127",79,"17",1,1,1,6,0,NA,NA
"3128",79,"18",1,1,1,2,0,NA,NA
"3129",79,"19",1,1,1,1,0,NA,NA
"3130",79,"110",1,1,1,2,0,NA,NA
"3131",79,"111",1,1,1,2,0,NA,NA
"3132",79,"112",1,1,1,2,0,NA,NA
"3133",79,"113",1,1,1,5,0,NA,NA
"3134",79,"114",1,1,1,2,0,NA,NA
"3135",79,"115",1,1,1,2,0,NA,NA
"3136",79,"116",1,1,1,6,0,NA,NA
"3137",79,"117",1,1,1,2,0,NA,NA
"3138",79,"118",1,1,1,2,0,NA,NA
"3139",79,"119",1,1,1,2,0,NA,NA
"3140",79,"120",1,1,1,1,0,NA,NA
"3141",79,"121",1,1,1,6,1,NA,NA
"3142",79,"122",1,1,1,6,1,NA,NA
"3143",79,"123",1,1,1,5,1,NA,NA
"3144",79,"124",1,1,1,2,1,NA,NA
"3145",79,"125",1,1,1,6,1,NA,NA
"3146",79,"126",1,1,1,6,1,NA,NA
"3147",79,"127",1,1,1,6,1,NA,NA
"3148",79,"128",1,1,1,2,1,NA,NA
"3149",79,"129",1,1,1,2,1,NA,NA
"3150",79,"130",1,1,1,6,1,NA,NA
"3151",79,"131",1,1,1,6,1,NA,NA
"3152",79,"132",1,1,1,6,1,NA,NA
"3153",79,"133",1,1,1,6,1,NA,NA
"3154",79,"134",1,1,1,2,1,NA,NA
"3155",79,"135",1,1,1,6,1,NA,NA
"3156",79,"136",1,1,1,2,1,NA,NA
"3157",79,"137",1,1,1,6,1,NA,NA
"3158",79,"138",1,1,1,6,1,NA,NA
"3159",79,"139",1,1,1,6,1,NA,NA
"3160",79,"140",1,1,1,5,1,NA,NA
"3161",80,"11",1,1,1,4,1,NA,NA
"3162",80,"12",1,1,1,4,1,NA,NA
"3163",80,"13",1,1,1,3,1,NA,NA
"3164",80,"14",1,1,1,2,1,NA,NA
"3165",80,"15",1,1,1,4,1,NA,NA
"3166",80,"16",1,1,1,4,1,NA,NA
"3167",80,"17",1,1,1,6,1,NA,NA
"3168",80,"18",1,1,1,2,1,NA,NA
"3169",80,"19",1,1,1,5,1,NA,NA
"3170",80,"110",1,1,1,3,1,NA,NA
"3171",80,"111",1,1,1,4,1,NA,NA
"3172",80,"112",1,1,1,5,1,NA,NA
"3173",80,"113",1,1,1,4,1,NA,NA
"3174",80,"114",1,1,1,3,1,NA,NA
"3175",80,"115",1,1,1,3,1,NA,NA
"3176",80,"116",1,1,1,3,1,NA,NA
"3177",80,"117",1,1,1,5,1,NA,NA
"3178",80,"118",1,1,1,5,1,NA,NA
"3179",80,"119",1,1,1,3,1,NA,NA
"3180",80,"120",1,1,1,4,1,NA,NA
"3181",80,"121",1,1,1,4,0,NA,NA
"3182",80,"122",1,1,1,5,0,NA,NA
"3183",80,"123",1,1,1,4,0,NA,NA
"3184",80,"124",1,1,1,4,0,NA,NA
"3185",80,"125",1,1,1,5,0,NA,NA
"3186",80,"126",1,1,1,1,0,NA,NA
"3187",80,"127",1,1,1,3,0,NA,NA
"3188",80,"128",1,1,1,3,0,NA,NA
"3189",80,"129",1,1,1,4,0,NA,NA
