"","subject","statement_identifier","presentation_identifier","within_identifier","between_identifier","response","repeated","rt","trial"
"1",1,"A1_T",1,1,1,3,0,NA,NA
"2",1,"A2_T",1,1,1,3,0,NA,NA
"3",1,"A3_T",1,1,1,3,0,NA,NA
"4",1,"A4_T",1,1,1,3,0,NA,NA
"5",1,"A5_T",1,1,1,3,0,NA,NA
"6",1,"A6_T",1,1,1,3,0,NA,NA
"7",1,"A7_T",1,1,1,3,0,NA,NA
"8",1,"A8_T",1,1,1,3,0,NA,NA
"9",1,"A9_T",1,1,1,3,0,NA,NA
"10",1,"A10_T",1,1,1,3,0,NA,NA
"11",1,"A11_T",1,1,1,3,0,NA,NA
"12",1,"A12_T",1,1,1,2,0,NA,NA
"13",1,"A13_T",1,1,1,3,0,NA,NA
"14",1,"A14_T",1,1,1,3,0,NA,NA
"15",1,"A15_T",1,1,1,4,0,NA,NA
"16",1,"A16_T",1,1,1,4,0,NA,NA
"17",1,"A17_T",1,1,1,3,0,NA,NA
"18",1,"A18_T",1,1,1,6,0,NA,NA
"19",1,"A19_F",1,1,1,2,0,NA,NA
"20",1,"A20_F",1,1,1,3,0,NA,NA
"21",1,"A21_F",1,1,1,3,0,NA,NA
"22",1,"A22_F",1,1,1,4,0,NA,NA
"23",1,"A23_F",1,1,1,3,0,NA,NA
"24",1,"A24_F",1,1,1,2,0,NA,NA
"25",1,"A25_F",1,1,1,4,0,NA,NA
"26",1,"A26_F",1,1,1,3,0,NA,NA
"27",1,"A27_F",1,1,1,3,0,NA,NA
"28",1,"A28_F",1,1,1,2,0,NA,NA
"29",1,"A29_F",1,1,1,3,0,NA,NA
"30",1,"A30_F",1,1,1,4,0,NA,NA
"31",1,"A31_F",1,1,1,2,0,NA,NA
"32",1,"A32_F",1,1,1,4,0,NA,NA
"33",1,"A33_F",1,1,1,3,0,NA,NA
"34",1,"A34_F",1,1,1,3,0,NA,NA
"35",1,"A35_F",1,1,1,3,0,NA,NA
"36",1,"A36_F",1,1,1,2,0,NA,NA
"37",1,"A37_T",1,1,1,6,1,NA,NA
"38",1,"A38_T",1,1,1,6,1,NA,NA
"39",1,"A39_T",1,1,1,6,1,NA,NA
"40",1,"A40_T",1,1,1,3,1,NA,NA
"41",1,"A41_T",1,1,1,6,1,NA,NA
"42",1,"A42_T",1,1,1,3,1,NA,NA
"43",1,"A43_T",1,1,1,6,1,NA,NA
"44",1,"A44_T",1,1,1,5,1,NA,NA
"45",1,"A45_T",1,1,1,6,1,NA,NA
"46",1,"A46_T",1,1,1,2,1,NA,NA
"47",1,"A47_T",1,1,1,6,1,NA,NA
"48",1,"A48_T",1,1,1,6,1,NA,NA
"49",1,"A49_T",1,1,1,6,1,NA,NA
"50",1,"A50_T",1,1,1,6,1,NA,NA
"51",1,"A51_T",1,1,1,6,1,NA,NA
"52",1,"A52_T",1,1,1,6,1,NA,NA
"53",1,"A53_T",1,1,1,6,1,NA,NA
"54",1,"A54_T",1,1,1,6,1,NA,NA
"55",1,"A55_F",1,1,1,4,1,NA,NA
"56",1,"A56_F",1,1,1,6,1,NA,NA
"57",1,"A57_F",1,1,1,3,1,NA,NA
"58",1,"A58_F",1,1,1,3,1,NA,NA
"59",1,"A59_F",1,1,1,6,1,NA,NA
"60",1,"A60_F",1,1,1,6,1,NA,NA
"61",1,"A61_F",1,1,1,4,1,NA,NA
"62",1,"A62_F",1,1,1,6,1,NA,NA
"63",1,"A63_F",1,1,1,6,1,NA,NA
"64",1,"A64_F",1,1,1,4,1,NA,NA
"65",1,"A65_F",1,1,1,6,1,NA,NA
"66",1,"A66_F",1,1,1,6,1,NA,NA
"67",1,"A67_F",1,1,1,3,1,NA,NA
"68",1,"A68_F",1,1,1,6,1,NA,NA
"69",1,"A69_F",1,1,1,5,1,NA,NA
"70",1,"A70_F",1,1,1,5,1,NA,NA
"71",1,"A71_F",1,1,1,6,1,NA,NA
"72",1,"A72_F",1,1,1,6,1,NA,NA
"73",2,"A1_T",1,1,2,5,1,NA,NA
"74",2,"A2_T",1,1,2,6,1,NA,NA
"75",2,"A3_T",1,1,2,6,1,NA,NA
"76",2,"A4_T",1,1,2,6,1,NA,NA
"77",2,"A5_T",1,1,2,6,1,NA,NA
"78",2,"A6_T",1,1,2,6,1,NA,NA
"79",2,"A7_T",1,1,2,6,1,NA,NA
"80",2,"A8_T",1,1,2,5,1,NA,NA
"81",2,"A9_T",1,1,2,2,1,NA,NA
"82",2,"A10_T",1,1,2,6,1,NA,NA
"83",2,"A11_T",1,1,2,4,1,NA,NA
"84",2,"A12_T",1,1,2,6,1,NA,NA
"85",2,"A13_T",1,1,2,5,1,NA,NA
"86",2,"A14_T",1,1,2,6,1,NA,NA
"87",2,"A15_T",1,1,2,5,1,NA,NA
"88",2,"A16_T",1,1,2,6,1,NA,NA
"89",2,"A17_T",1,1,2,6,1,NA,NA
"90",2,"A18_T",1,1,2,6,1,NA,NA
"91",2,"A19_F",1,1,2,4,1,NA,NA
"92",2,"A20_F",1,1,2,6,1,NA,NA
"93",2,"A21_F",1,1,2,6,1,NA,NA
"94",2,"A22_F",1,1,2,6,1,NA,NA
"95",2,"A23_F",1,1,2,2,1,NA,NA
"96",2,"A24_F",1,1,2,6,1,NA,NA
"97",2,"A25_F",1,1,2,5,1,NA,NA
"98",2,"A26_F",1,1,2,6,1,NA,NA
"99",2,"A27_F",1,1,2,6,1,NA,NA
"100",2,"A28_F",1,1,2,5,1,NA,NA
"101",2,"A29_F",1,1,2,6,1,NA,NA
"102",2,"A30_F",1,1,2,5,1,NA,NA
"103",2,"A31_F",1,1,2,6,1,NA,NA
"104",2,"A32_F",1,1,2,6,1,NA,NA
"105",2,"A33_F",1,1,2,6,1,NA,NA
"106",2,"A34_F",1,1,2,6,1,NA,NA
"107",2,"A35_F",1,1,2,6,1,NA,NA
"108",2,"A36_F",1,1,2,1,1,NA,NA
"109",2,"A37_T",1,1,2,3,0,NA,NA
"110",2,"A38_T",1,1,2,3,0,NA,NA
"111",2,"A39_T",1,1,2,2,0,NA,NA
"112",2,"A40_T",1,1,2,4,0,NA,NA
"113",2,"A41_T",1,1,2,4,0,NA,NA
"114",2,"A42_T",1,1,2,5,0,NA,NA
"115",2,"A43_T",1,1,2,2,0,NA,NA
"116",2,"A44_T",1,1,2,3,0,NA,NA
"117",2,"A45_T",1,1,2,3,0,NA,NA
"118",2,"A46_T",1,1,2,6,0,NA,NA
"119",2,"A47_T",1,1,2,6,0,NA,NA
"120",2,"A48_T",1,1,2,5,0,NA,NA
"121",2,"A49_T",1,1,2,5,0,NA,NA
"122",2,"A50_T",1,1,2,4,0,NA,NA
"123",2,"A51_T",1,1,2,5,0,NA,NA
"124",2,"A52_T",1,1,2,5,0,NA,NA
"125",2,"A53_T",1,1,2,4,0,NA,NA
"126",2,"A54_T",1,1,2,3,0,NA,NA
"127",2,"A55_F",1,1,2,5,0,NA,NA
"128",2,"A56_F",1,1,2,4,0,NA,NA
"129",2,"A57_F",1,1,2,3,0,NA,NA
"130",2,"A58_F",1,1,2,3,0,NA,NA
"131",2,"A59_F",1,1,2,3,0,NA,NA
"132",2,"A60_F",1,1,2,4,0,NA,NA
"133",2,"A61_F",1,1,2,4,0,NA,NA
"134",2,"A62_F",1,1,2,3,0,NA,NA
"135",2,"A63_F",1,1,2,3,0,NA,NA
"136",2,"A64_F",1,1,2,3,0,NA,NA
"137",2,"A65_F",1,1,2,3,0,NA,NA
"138",2,"A66_F",1,1,2,4,0,NA,NA
"139",2,"A67_F",1,1,2,4,0,NA,NA
"140",2,"A68_F",1,1,2,5,0,NA,NA
"141",2,"A69_F",1,1,2,6,0,NA,NA
"142",2,"A70_F",1,1,2,4,0,NA,NA
"143",2,"A71_F",1,1,2,3,0,NA,NA
"144",2,"A72_F",1,1,2,4,0,NA,NA
"145",3,"A1_T",1,1,1,4,0,NA,NA
"146",3,"A2_T",1,1,1,2,0,NA,NA
"147",3,"A3_T",1,1,1,3,0,NA,NA
"148",3,"A4_T",1,1,1,4,0,NA,NA
"149",3,"A5_T",1,1,1,2,0,NA,NA
"150",3,"A6_T",1,1,1,4,0,NA,NA
"151",3,"A7_T",1,1,1,4,0,NA,NA
"152",3,"A8_T",1,1,1,3,0,NA,NA
"153",3,"A9_T",1,1,1,3,0,NA,NA
"154",3,"A10_T",1,1,1,4,0,NA,NA
"155",3,"A11_T",1,1,1,3,0,NA,NA
"156",3,"A12_T",1,1,1,3,0,NA,NA
"157",3,"A13_T",1,1,1,3,0,NA,NA
"158",3,"A14_T",1,1,1,4,0,NA,NA
"159",3,"A15_T",1,1,1,4,0,NA,NA
"160",3,"A16_T",1,1,1,6,0,NA,NA
"161",3,"A17_T",1,1,1,5,0,NA,NA
"162",3,"A18_T",1,1,1,5,0,NA,NA
"163",3,"A19_F",1,1,1,4,0,NA,NA
"164",3,"A20_F",1,1,1,3,0,NA,NA
"165",3,"A21_F",1,1,1,3,0,NA,NA
"166",3,"A22_F",1,1,1,3,0,NA,NA
"167",3,"A23_F",1,1,1,3,0,NA,NA
"168",3,"A24_F",1,1,1,1,0,NA,NA
"169",3,"A25_F",1,1,1,5,0,NA,NA
"170",3,"A26_F",1,1,1,3,0,NA,NA
"171",3,"A27_F",1,1,1,4,0,NA,NA
"172",3,"A28_F",1,1,1,2,0,NA,NA
"173",3,"A29_F",1,1,1,6,0,NA,NA
"174",3,"A30_F",1,1,1,5,0,NA,NA
"175",3,"A31_F",1,1,1,3,0,NA,NA
"176",3,"A32_F",1,1,1,5,0,NA,NA
"177",3,"A33_F",1,1,1,3,0,NA,NA
"178",3,"A34_F",1,1,1,4,0,NA,NA
"179",3,"A35_F",1,1,1,5,0,NA,NA
"180",3,"A36_F",1,1,1,5,0,NA,NA
"181",3,"A37_T",1,1,1,3,1,NA,NA
"182",3,"A38_T",1,1,1,3,1,NA,NA
"183",3,"A39_T",1,1,1,5,1,NA,NA
"184",3,"A40_T",1,1,1,4,1,NA,NA
"185",3,"A41_T",1,1,1,3,1,NA,NA
"186",3,"A42_T",1,1,1,2,1,NA,NA
"187",3,"A43_T",1,1,1,3,1,NA,NA
"188",3,"A44_T",1,1,1,6,1,NA,NA
"189",3,"A45_T",1,1,1,2,1,NA,NA
"190",3,"A46_T",1,1,1,3,1,NA,NA
"191",3,"A47_T",1,1,1,6,1,NA,NA
"192",3,"A48_T",1,1,1,6,1,NA,NA
"193",3,"A49_T",1,1,1,4,1,NA,NA
"194",3,"A50_T",1,1,1,6,1,NA,NA
"195",3,"A51_T",1,1,1,5,1,NA,NA
"196",3,"A52_T",1,1,1,6,1,NA,NA
"197",3,"A53_T",1,1,1,6,1,NA,NA
"198",3,"A54_T",1,1,1,4,1,NA,NA
"199",3,"A55_F",1,1,1,5,1,NA,NA
"200",3,"A56_F",1,1,1,3,1,NA,NA
"201",3,"A57_F",1,1,1,6,1,NA,NA
"202",3,"A58_F",1,1,1,6,1,NA,NA
"203",3,"A59_F",1,1,1,3,1,NA,NA
"204",3,"A60_F",1,1,1,4,1,NA,NA
"205",3,"A61_F",1,1,1,6,1,NA,NA
"206",3,"A62_F",1,1,1,2,1,NA,NA
"207",3,"A63_F",1,1,1,5,1,NA,NA
"208",3,"A64_F",1,1,1,6,1,NA,NA
"209",3,"A65_F",1,1,1,5,1,NA,NA
"210",3,"A66_F",1,1,1,4,1,NA,NA
"211",3,"A67_F",1,1,1,3,1,NA,NA
"212",3,"A68_F",1,1,1,5,1,NA,NA
"213",3,"A69_F",1,1,1,5,1,NA,NA
"214",3,"A70_F",1,1,1,6,1,NA,NA
"215",3,"A71_F",1,1,1,6,1,NA,NA
"216",3,"A72_F",1,1,1,5,1,NA,NA
"217",4,"A1_T",1,1,2,5,1,NA,NA
"218",4,"A2_T",1,1,2,6,1,NA,NA
"219",4,"A3_T",1,1,2,3,1,NA,NA
"220",4,"A4_T",1,1,2,3,1,NA,NA
"221",4,"A5_T",1,1,2,6,1,NA,NA
"222",4,"A6_T",1,1,2,4,1,NA,NA
"223",4,"A7_T",1,1,2,3,1,NA,NA
"224",4,"A8_T",1,1,2,4,1,NA,NA
"225",4,"A9_T",1,1,2,6,1,NA,NA
"226",4,"A10_T",1,1,2,4,1,NA,NA
"227",4,"A11_T",1,1,2,4,1,NA,NA
"228",4,"A12_T",1,1,2,5,1,NA,NA
"229",4,"A13_T",1,1,2,2,1,NA,NA
"230",4,"A14_T",1,1,2,6,1,NA,NA
"231",4,"A15_T",1,1,2,4,1,NA,NA
"232",4,"A16_T",1,1,2,6,1,NA,NA
"233",4,"A17_T",1,1,2,1,1,NA,NA
"234",4,"A18_T",1,1,2,5,1,NA,NA
"235",4,"A19_F",1,1,2,3,1,NA,NA
"236",4,"A20_F",1,1,2,2,1,NA,NA
"237",4,"A21_F",1,1,2,4,1,NA,NA
"238",4,"A22_F",1,1,2,4,1,NA,NA
"239",4,"A23_F",1,1,2,5,1,NA,NA
"240",4,"A24_F",1,1,2,5,1,NA,NA
"241",4,"A25_F",1,1,2,4,1,NA,NA
"242",4,"A26_F",1,1,2,3,1,NA,NA
"243",4,"A27_F",1,1,2,5,1,NA,NA
"244",4,"A28_F",1,1,2,5,1,NA,NA
"245",4,"A29_F",1,1,2,6,1,NA,NA
"246",4,"A30_F",1,1,2,5,1,NA,NA
"247",4,"A31_F",1,1,2,4,1,NA,NA
"248",4,"A32_F",1,1,2,6,1,NA,NA
"249",4,"A33_F",1,1,2,4,1,NA,NA
"250",4,"A34_F",1,1,2,6,1,NA,NA
"251",4,"A35_F",1,1,2,3,1,NA,NA
"252",4,"A36_F",1,1,2,1,1,NA,NA
"253",4,"A37_T",1,1,2,3,0,NA,NA
"254",4,"A38_T",1,1,2,5,0,NA,NA
"255",4,"A39_T",1,1,2,1,0,NA,NA
"256",4,"A40_T",1,1,2,3,0,NA,NA
"257",4,"A41_T",1,1,2,3,0,NA,NA
"258",4,"A42_T",1,1,2,2,0,NA,NA
"259",4,"A43_T",1,1,2,3,0,NA,NA
"260",4,"A44_T",1,1,2,5,0,NA,NA
"261",4,"A45_T",1,1,2,3,0,NA,NA
"262",4,"A46_T",1,1,2,2,0,NA,NA
"263",4,"A47_T",1,1,2,6,0,NA,NA
"264",4,"A48_T",1,1,2,3,0,NA,NA
"265",4,"A49_T",1,1,2,3,0,NA,NA
"266",4,"A50_T",1,1,2,2,0,NA,NA
"267",4,"A51_T",1,1,2,1,0,NA,NA
"268",4,"A52_T",1,1,2,2,0,NA,NA
"269",4,"A53_T",1,1,2,2,0,NA,NA
"270",4,"A54_T",1,1,2,4,0,NA,NA
"271",4,"A55_F",1,1,2,1,0,NA,NA
"272",4,"A56_F",1,1,2,1,0,NA,NA
"273",4,"A57_F",1,1,2,3,0,NA,NA
"274",4,"A58_F",1,1,2,5,0,NA,NA
"275",4,"A59_F",1,1,2,4,0,NA,NA
"276",4,"A60_F",1,1,2,3,0,NA,NA
"277",4,"A61_F",1,1,2,1,0,NA,NA
"278",4,"A62_F",1,1,2,2,0,NA,NA
"279",4,"A63_F",1,1,2,5,0,NA,NA
"280",4,"A64_F",1,1,2,3,0,NA,NA
"281",4,"A65_F",1,1,2,4,0,NA,NA
"282",4,"A66_F",1,1,2,3,0,NA,NA
"283",4,"A67_F",1,1,2,3,0,NA,NA
"284",4,"A68_F",1,1,2,1,0,NA,NA
"285",4,"A69_F",1,1,2,1,0,NA,NA
"286",4,"A70_F",1,1,2,4,0,NA,NA
"287",4,"A71_F",1,1,2,6,0,NA,NA
"288",4,"A72_F",1,1,2,4,0,NA,NA
"289",5,"A1_T",1,1,2,3,0,NA,NA
"290",5,"A2_T",1,1,2,3,0,NA,NA
"291",5,"A3_T",1,1,2,6,0,NA,NA
"292",5,"A4_T",1,1,2,3,0,NA,NA
"293",5,"A5_T",1,1,2,6,0,NA,NA
"294",5,"A6_T",1,1,2,2,0,NA,NA
"295",5,"A7_T",1,1,2,5,0,NA,NA
"296",5,"A8_T",1,1,2,6,0,NA,NA
"297",5,"A9_T",1,1,2,5,0,NA,NA
"298",5,"A10_T",1,1,2,5,0,NA,NA
"299",5,"A11_T",1,1,2,2,0,NA,NA
"300",5,"A12_T",1,1,2,2,0,NA,NA
"301",5,"A13_T",1,1,2,3,0,NA,NA
"302",5,"A14_T",1,1,2,6,0,NA,NA
"303",5,"A15_T",1,1,2,3,0,NA,NA
"304",5,"A16_T",1,1,2,1,0,NA,NA
"305",5,"A17_T",1,1,2,6,0,NA,NA
"306",5,"A18_T",1,1,2,1,0,NA,NA
"307",5,"A19_F",1,1,2,2,0,NA,NA
"308",5,"A20_F",1,1,2,2,0,NA,NA
"309",5,"A21_F",1,1,2,3,0,NA,NA
"310",5,"A22_F",1,1,2,5,0,NA,NA
"311",5,"A23_F",1,1,2,2,0,NA,NA
"312",5,"A24_F",1,1,2,2,0,NA,NA
"313",5,"A25_F",1,1,2,2,0,NA,NA
"314",5,"A26_F",1,1,2,5,0,NA,NA
"315",5,"A27_F",1,1,2,2,0,NA,NA
"316",5,"A28_F",1,1,2,2,0,NA,NA
"317",5,"A29_F",1,1,2,5,0,NA,NA
"318",5,"A30_F",1,1,2,6,0,NA,NA
"319",5,"A31_F",1,1,2,5,0,NA,NA
"320",5,"A32_F",1,1,2,5,0,NA,NA
"321",5,"A33_F",1,1,2,6,0,NA,NA
"322",5,"A34_F",1,1,2,5,0,NA,NA
"323",5,"A35_F",1,1,2,5,0,NA,NA
"324",5,"A36_F",1,1,2,1,0,NA,NA
"325",5,"A37_T",1,1,2,5,1,NA,NA
"326",5,"A38_T",1,1,2,6,1,NA,NA
"327",5,"A39_T",1,1,2,1,1,NA,NA
"328",5,"A40_T",1,1,2,5,1,NA,NA
"329",5,"A41_T",1,1,2,6,1,NA,NA
"330",5,"A42_T",1,1,2,2,1,NA,NA
"331",5,"A43_T",1,1,2,6,1,NA,NA
"332",5,"A44_T",1,1,2,5,1,NA,NA
"333",5,"A45_T",1,1,2,6,1,NA,NA
"334",5,"A46_T",1,1,2,6,1,NA,NA
"335",5,"A47_T",1,1,2,5,1,NA,NA
"336",5,"A48_T",1,1,2,6,1,NA,NA
"337",5,"A49_T",1,1,2,6,1,NA,NA
"338",5,"A50_T",1,1,2,5,1,NA,NA
"339",5,"A51_T",1,1,2,5,1,NA,NA
"340",5,"A52_T",1,1,2,3,1,NA,NA
"341",5,"A53_T",1,1,2,5,1,NA,NA
"342",5,"A54_T",1,1,2,6,1,NA,NA
"343",5,"A55_F",1,1,2,5,1,NA,NA
"344",5,"A56_F",1,1,2,6,1,NA,NA
"345",5,"A57_F",1,1,2,1,1,NA,NA
"346",5,"A58_F",1,1,2,6,1,NA,NA
"347",5,"A59_F",1,1,2,6,1,NA,NA
"348",5,"A60_F",1,1,2,5,1,NA,NA
"349",5,"A61_F",1,1,2,6,1,NA,NA
"350",5,"A62_F",1,1,2,6,1,NA,NA
"351",5,"A63_F",1,1,2,6,1,NA,NA
"352",5,"A64_F",1,1,2,2,1,NA,NA
"353",5,"A65_F",1,1,2,2,1,NA,NA
"354",5,"A66_F",1,1,2,5,1,NA,NA
"355",5,"A67_F",1,1,2,2,1,NA,NA
"356",5,"A68_F",1,1,2,2,1,NA,NA
"357",5,"A69_F",1,1,2,6,1,NA,NA
"358",5,"A70_F",1,1,2,1,1,NA,NA
"359",5,"A71_F",1,1,2,6,1,NA,NA
"360",5,"A72_F",1,1,2,6,1,NA,NA
"361",6,"A1_T",1,1,1,1,1,NA,NA
"362",6,"A2_T",1,1,1,2,1,NA,NA
"363",6,"A3_T",1,1,1,5,1,NA,NA
"364",6,"A4_T",1,1,1,3,1,NA,NA
"365",6,"A5_T",1,1,1,2,1,NA,NA
"366",6,"A6_T",1,1,1,2,1,NA,NA
"367",6,"A7_T",1,1,1,5,1,NA,NA
"368",6,"A8_T",1,1,1,5,1,NA,NA
"369",6,"A9_T",1,1,1,6,1,NA,NA
"370",6,"A10_T",1,1,1,6,1,NA,NA
"371",6,"A11_T",1,1,1,5,1,NA,NA
"372",6,"A12_T",1,1,1,6,1,NA,NA
"373",6,"A13_T",1,1,1,5,1,NA,NA
"374",6,"A14_T",1,1,1,2,1,NA,NA
"375",6,"A15_T",1,1,1,5,1,NA,NA
"376",6,"A16_T",1,1,1,2,1,NA,NA
"377",6,"A17_T",1,1,1,5,1,NA,NA
"378",6,"A18_T",1,1,1,6,1,NA,NA
"379",6,"A19_F",1,1,1,1,1,NA,NA
"380",6,"A20_F",1,1,1,6,1,NA,NA
"381",6,"A21_F",1,1,1,5,1,NA,NA
"382",6,"A22_F",1,1,1,6,1,NA,NA
"383",6,"A23_F",1,1,1,5,1,NA,NA
"384",6,"A24_F",1,1,1,1,1,NA,NA
"385",6,"A25_F",1,1,1,5,1,NA,NA
"386",6,"A26_F",1,1,1,1,1,NA,NA
"387",6,"A27_F",1,1,1,5,1,NA,NA
"388",6,"A28_F",1,1,1,1,1,NA,NA
"389",6,"A29_F",1,1,1,5,1,NA,NA
"390",6,"A30_F",1,1,1,2,1,NA,NA
"391",6,"A31_F",1,1,1,1,1,NA,NA
"392",6,"A32_F",1,1,1,4,1,NA,NA
"393",6,"A33_F",1,1,1,1,1,NA,NA
"394",6,"A34_F",1,1,1,5,1,NA,NA
"395",6,"A35_F",1,1,1,5,1,NA,NA
"396",6,"A36_F",1,1,1,1,1,NA,NA
"397",6,"A37_T",1,1,1,5,0,NA,NA
"398",6,"A38_T",1,1,1,1,0,NA,NA
"399",6,"A39_T",1,1,1,2,0,NA,NA
"400",6,"A40_T",1,1,1,5,0,NA,NA
"401",6,"A41_T",1,1,1,1,0,NA,NA
"402",6,"A42_T",1,1,1,2,0,NA,NA
"403",6,"A43_T",1,1,1,4,0,NA,NA
"404",6,"A44_T",1,1,1,2,0,NA,NA
"405",6,"A45_T",1,1,1,5,0,NA,NA
"406",6,"A46_T",1,1,1,6,0,NA,NA
"407",6,"A47_T",1,1,1,5,0,NA,NA
"408",6,"A48_T",1,1,1,6,0,NA,NA
"409",6,"A49_T",1,1,1,6,0,NA,NA
"410",6,"A50_T",1,1,1,4,0,NA,NA
"411",6,"A51_T",1,1,1,1,0,NA,NA
"412",6,"A52_T",1,1,1,6,0,NA,NA
"413",6,"A53_T",1,1,1,1,0,NA,NA
"414",6,"A54_T",1,1,1,5,0,NA,NA
"415",6,"A55_F",1,1,1,6,0,NA,NA
"416",6,"A56_F",1,1,1,2,0,NA,NA
"417",6,"A57_F",1,1,1,1,0,NA,NA
"418",6,"A58_F",1,1,1,5,0,NA,NA
"419",6,"A59_F",1,1,1,1,0,NA,NA
"420",6,"A60_F",1,1,1,2,0,NA,NA
"421",6,"A61_F",1,1,1,2,0,NA,NA
"422",6,"A62_F",1,1,1,2,0,NA,NA
"423",6,"A63_F",1,1,1,5,0,NA,NA
"424",6,"A64_F",1,1,1,5,0,NA,NA
"425",6,"A65_F",1,1,1,5,0,NA,NA
"426",6,"A66_F",1,1,1,5,0,NA,NA
"427",6,"A67_F",1,1,1,6,0,NA,NA
"428",6,"A68_F",1,1,1,5,0,NA,NA
"429",6,"A69_F",1,1,1,6,0,NA,NA
"430",6,"A70_F",1,1,1,1,0,NA,NA
"431",6,"A71_F",1,1,1,5,0,NA,NA
"432",6,"A72_F",1,1,1,5,0,NA,NA
"433",7,"A1_T",1,1,2,3,1,NA,NA
"434",7,"A2_T",1,1,2,4,1,NA,NA
"435",7,"A3_T",1,1,2,2,1,NA,NA
"436",7,"A4_T",1,1,2,2,1,NA,NA
"437",7,"A5_T",1,1,2,3,1,NA,NA
"438",7,"A6_T",1,1,2,3,1,NA,NA
"439",7,"A7_T",1,1,2,5,1,NA,NA
"440",7,"A8_T",1,1,2,3,1,NA,NA
"441",7,"A9_T",1,1,2,2,1,NA,NA
"442",7,"A10_T",1,1,2,4,1,NA,NA
"443",7,"A11_T",1,1,2,4,1,NA,NA
"444",7,"A12_T",1,1,2,4,1,NA,NA
"445",7,"A13_T",1,1,2,2,1,NA,NA
"446",7,"A14_T",1,1,2,5,1,NA,NA
"447",7,"A15_T",1,1,2,5,1,NA,NA
"448",7,"A16_T",1,1,2,5,1,NA,NA
"449",7,"A17_T",1,1,2,5,1,NA,NA
"450",7,"A18_T",1,1,2,6,1,NA,NA
"451",7,"A19_F",1,1,2,3,1,NA,NA
"452",7,"A20_F",1,1,2,2,1,NA,NA
"453",7,"A21_F",1,1,2,6,1,NA,NA
"454",7,"A22_F",1,1,2,4,1,NA,NA
"455",7,"A23_F",1,1,2,3,1,NA,NA
"456",7,"A24_F",1,1,2,1,1,NA,NA
"457",7,"A25_F",1,1,2,2,1,NA,NA
"458",7,"A26_F",1,1,2,4,1,NA,NA
"459",7,"A27_F",1,1,2,5,1,NA,NA
"460",7,"A28_F",1,1,2,1,1,NA,NA
"461",7,"A29_F",1,1,2,1,1,NA,NA
"462",7,"A30_F",1,1,2,2,1,NA,NA
"463",7,"A31_F",1,1,2,5,1,NA,NA
"464",7,"A32_F",1,1,2,1,1,NA,NA
"465",7,"A33_F",1,1,2,3,1,NA,NA
"466",7,"A34_F",1,1,2,2,1,NA,NA
"467",7,"A35_F",1,1,2,2,1,NA,NA
"468",7,"A36_F",1,1,2,1,1,NA,NA
"469",7,"A37_T",1,1,2,2,0,NA,NA
"470",7,"A38_T",1,1,2,1,0,NA,NA
"471",7,"A39_T",1,1,2,1,0,NA,NA
"472",7,"A40_T",1,1,2,5,0,NA,NA
"473",7,"A41_T",1,1,2,5,0,NA,NA
"474",7,"A42_T",1,1,2,2,0,NA,NA
"475",7,"A43_T",1,1,2,3,0,NA,NA
"476",7,"A44_T",1,1,2,2,0,NA,NA
"477",7,"A45_T",1,1,2,2,0,NA,NA
"478",7,"A46_T",1,1,2,4,0,NA,NA
"479",7,"A47_T",1,1,2,6,0,NA,NA
"480",7,"A48_T",1,1,2,4,0,NA,NA
"481",7,"A49_T",1,1,2,5,0,NA,NA
"482",7,"A50_T",1,1,2,2,0,NA,NA
"483",7,"A51_T",1,1,2,4,0,NA,NA
"484",7,"A52_T",1,1,2,5,0,NA,NA
"485",7,"A53_T",1,1,2,1,0,NA,NA
"486",7,"A54_T",1,1,2,2,0,NA,NA
"487",7,"A55_F",1,1,2,1,0,NA,NA
"488",7,"A56_F",1,1,2,4,0,NA,NA
"489",7,"A57_F",1,1,2,5,0,NA,NA
"490",7,"A58_F",1,1,2,2,0,NA,NA
"491",7,"A59_F",1,1,2,2,0,NA,NA
"492",7,"A60_F",1,1,2,4,0,NA,NA
"493",7,"A61_F",1,1,2,5,0,NA,NA
"494",7,"A62_F",1,1,2,3,0,NA,NA
"495",7,"A63_F",1,1,2,5,0,NA,NA
"496",7,"A64_F",1,1,2,4,0,NA,NA
"497",7,"A65_F",1,1,2,5,0,NA,NA
"498",7,"A66_F",1,1,2,1,0,NA,NA
"499",7,"A67_F",1,1,2,5,0,NA,NA
"500",7,"A68_F",1,1,2,3,0,NA,NA
"501",7,"A69_F",1,1,2,1,0,NA,NA
"502",7,"A70_F",1,1,2,5,0,NA,NA
"503",7,"A71_F",1,1,2,6,0,NA,NA
"504",7,"A72_F",1,1,2,1,0,NA,NA
"505",8,"A1_T",1,1,2,3,0,NA,NA
"506",8,"A2_T",1,1,2,3,0,NA,NA
"507",8,"A3_T",1,1,2,3,0,NA,NA
"508",8,"A4_T",1,1,2,4,0,NA,NA
"509",8,"A5_T",1,1,2,3,0,NA,NA
"510",8,"A6_T",1,1,2,4,0,NA,NA
"511",8,"A7_T",1,1,2,4,0,NA,NA
"512",8,"A8_T",1,1,2,4,0,NA,NA
"513",8,"A9_T",1,1,2,5,0,NA,NA
"514",8,"A10_T",1,1,2,3,0,NA,NA
"515",8,"A11_T",1,1,2,3,0,NA,NA
"516",8,"A12_T",1,1,2,6,0,NA,NA
"517",8,"A13_T",1,1,2,3,0,NA,NA
"518",8,"A14_T",1,1,2,3,0,NA,NA
"519",8,"A15_T",1,1,2,3,0,NA,NA
"520",8,"A16_T",1,1,2,5,0,NA,NA
"521",8,"A17_T",1,1,2,5,0,NA,NA
"522",8,"A18_T",1,1,2,6,0,NA,NA
"523",8,"A19_F",1,1,2,4,0,NA,NA
"524",8,"A20_F",1,1,2,4,0,NA,NA
"525",8,"A21_F",1,1,2,3,0,NA,NA
"526",8,"A22_F",1,1,2,3,0,NA,NA
"527",8,"A23_F",1,1,2,5,0,NA,NA
"528",8,"A24_F",1,1,2,3,0,NA,NA
"529",8,"A25_F",1,1,2,5,0,NA,NA
"530",8,"A26_F",1,1,2,3,0,NA,NA
"531",8,"A27_F",1,1,2,4,0,NA,NA
"532",8,"A28_F",1,1,2,1,0,NA,NA
"533",8,"A29_F",1,1,2,5,0,NA,NA
"534",8,"A30_F",1,1,2,3,0,NA,NA
"535",8,"A31_F",1,1,2,1,0,NA,NA
"536",8,"A32_F",1,1,2,3,0,NA,NA
"537",8,"A33_F",1,1,2,4,0,NA,NA
"538",8,"A34_F",1,1,2,4,0,NA,NA
"539",8,"A35_F",1,1,2,4,0,NA,NA
"540",8,"A36_F",1,1,2,2,0,NA,NA
"541",8,"A37_T",1,1,2,6,1,NA,NA
"542",8,"A38_T",1,1,2,5,1,NA,NA
"543",8,"A39_T",1,1,2,5,1,NA,NA
"544",8,"A40_T",1,1,2,3,1,NA,NA
"545",8,"A41_T",1,1,2,3,1,NA,NA
"546",8,"A42_T",1,1,2,3,1,NA,NA
"547",8,"A43_T",1,1,2,5,1,NA,NA
"548",8,"A44_T",1,1,2,6,1,NA,NA
"549",8,"A45_T",1,1,2,4,1,NA,NA
"550",8,"A46_T",1,1,2,5,1,NA,NA
"551",8,"A47_T",1,1,2,4,1,NA,NA
"552",8,"A48_T",1,1,2,2,1,NA,NA
"553",8,"A49_T",1,1,2,6,1,NA,NA
"554",8,"A50_T",1,1,2,3,1,NA,NA
"555",8,"A51_T",1,1,2,5,1,NA,NA
"556",8,"A52_T",1,1,2,6,1,NA,NA
"557",8,"A53_T",1,1,2,6,1,NA,NA
"558",8,"A54_T",1,1,2,4,1,NA,NA
"559",8,"A55_F",1,1,2,5,1,NA,NA
"560",8,"A56_F",1,1,2,5,1,NA,NA
"561",8,"A57_F",1,1,2,6,1,NA,NA
"562",8,"A58_F",1,1,2,4,1,NA,NA
"563",8,"A59_F",1,1,2,5,1,NA,NA
"564",8,"A60_F",1,1,2,5,1,NA,NA
"565",8,"A61_F",1,1,2,2,1,NA,NA
"566",8,"A62_F",1,1,2,2,1,NA,NA
"567",8,"A63_F",1,1,2,4,1,NA,NA
"568",8,"A64_F",1,1,2,4,1,NA,NA
"569",8,"A65_F",1,1,2,5,1,NA,NA
"570",8,"A66_F",1,1,2,4,1,NA,NA
"571",8,"A67_F",1,1,2,6,1,NA,NA
"572",8,"A68_F",1,1,2,6,1,NA,NA
"573",8,"A69_F",1,1,2,6,1,NA,NA
"574",8,"A70_F",1,1,2,6,1,NA,NA
"575",8,"A71_F",1,1,2,6,1,NA,NA
"576",8,"A72_F",1,1,2,6,1,NA,NA
"577",9,"A1_T",1,1,1,6,1,NA,NA
"578",9,"A2_T",1,1,1,6,1,NA,NA
"579",9,"A3_T",1,1,1,5,1,NA,NA
"580",9,"A4_T",1,1,1,6,1,NA,NA
"581",9,"A5_T",1,1,1,6,1,NA,NA
"582",9,"A6_T",1,1,1,6,1,NA,NA
"583",9,"A7_T",1,1,1,3,1,NA,NA
"584",9,"A8_T",1,1,1,5,1,NA,NA
"585",9,"A9_T",1,1,1,6,1,NA,NA
"586",9,"A10_T",1,1,1,5,1,NA,NA
"587",9,"A11_T",1,1,1,5,1,NA,NA
"588",9,"A12_T",1,1,1,6,1,NA,NA
"589",9,"A13_T",1,1,1,4,1,NA,NA
"590",9,"A14_T",1,1,1,6,1,NA,NA
"591",9,"A15_T",1,1,1,6,1,NA,NA
"592",9,"A16_T",1,1,1,1,1,NA,NA
"593",9,"A17_T",1,1,1,6,1,NA,NA
"594",9,"A18_T",1,1,1,6,1,NA,NA
"595",9,"A19_F",1,1,1,2,1,NA,NA
"596",9,"A20_F",1,1,1,6,1,NA,NA
"597",9,"A21_F",1,1,1,6,1,NA,NA
"598",9,"A22_F",1,1,1,4,1,NA,NA
"599",9,"A23_F",1,1,1,5,1,NA,NA
"600",9,"A24_F",1,1,1,6,1,NA,NA
"601",9,"A25_F",1,1,1,5,1,NA,NA
"602",9,"A26_F",1,1,1,2,1,NA,NA
"603",9,"A27_F",1,1,1,5,1,NA,NA
"604",9,"A28_F",1,1,1,6,1,NA,NA
"605",9,"A29_F",1,1,1,5,1,NA,NA
"606",9,"A30_F",1,1,1,6,1,NA,NA
"607",9,"A31_F",1,1,1,6,1,NA,NA
"608",9,"A32_F",1,1,1,6,1,NA,NA
"609",9,"A33_F",1,1,1,5,1,NA,NA
"610",9,"A34_F",1,1,1,6,1,NA,NA
"611",9,"A35_F",1,1,1,6,1,NA,NA
"612",9,"A36_F",1,1,1,5,1,NA,NA
"613",9,"A37_T",1,1,1,3,0,NA,NA
"614",9,"A38_T",1,1,1,2,0,NA,NA
"615",9,"A39_T",1,1,1,1,0,NA,NA
"616",9,"A40_T",1,1,1,3,0,NA,NA
"617",9,"A41_T",1,1,1,2,0,NA,NA
"618",9,"A42_T",1,1,1,4,0,NA,NA
"619",9,"A43_T",1,1,1,2,0,NA,NA
"620",9,"A44_T",1,1,1,2,0,NA,NA
"621",9,"A45_T",1,1,1,1,0,NA,NA
"622",9,"A46_T",1,1,1,2,0,NA,NA
"623",9,"A47_T",1,1,1,5,0,NA,NA
"624",9,"A48_T",1,1,1,4,0,NA,NA
"625",9,"A49_T",1,1,1,4,0,NA,NA
"626",9,"A50_T",1,1,1,5,0,NA,NA
"627",9,"A51_T",1,1,1,2,0,NA,NA
"628",9,"A52_T",1,1,1,4,0,NA,NA
"629",9,"A53_T",1,1,1,5,0,NA,NA
"630",9,"A54_T",1,1,1,3,0,NA,NA
"631",9,"A55_F",1,1,1,5,0,NA,NA
"632",9,"A56_F",1,1,1,4,0,NA,NA
"633",9,"A57_F",1,1,1,5,0,NA,NA
"634",9,"A58_F",1,1,1,1,0,NA,NA
"635",9,"A59_F",1,1,1,2,0,NA,NA
"636",9,"A60_F",1,1,1,5,0,NA,NA
"637",9,"A61_F",1,1,1,4,0,NA,NA
"638",9,"A62_F",1,1,1,3,0,NA,NA
"639",9,"A63_F",1,1,1,4,0,NA,NA
"640",9,"A64_F",1,1,1,4,0,NA,NA
"641",9,"A65_F",1,1,1,5,0,NA,NA
"642",9,"A66_F",1,1,1,4,0,NA,NA
"643",9,"A67_F",1,1,1,4,0,NA,NA
"644",9,"A68_F",1,1,1,6,0,NA,NA
"645",9,"A69_F",1,1,1,4,0,NA,NA
"646",9,"A70_F",1,1,1,4,0,NA,NA
"647",9,"A71_F",1,1,1,5,0,NA,NA
"648",9,"A72_F",1,1,1,5,0,NA,NA
"649",10,"A1_T",1,1,2,2,1,NA,NA
"650",10,"A2_T",1,1,2,1,1,NA,NA
"651",10,"A3_T",1,1,2,1,1,NA,NA
"652",10,"A4_T",1,1,2,2,1,NA,NA
"653",10,"A5_T",1,1,2,2,1,NA,NA
"654",10,"A6_T",1,1,2,5,1,NA,NA
"655",10,"A7_T",1,1,2,5,1,NA,NA
"656",10,"A8_T",1,1,2,4,1,NA,NA
"657",10,"A9_T",1,1,2,2,1,NA,NA
"658",10,"A10_T",1,1,2,6,1,NA,NA
"659",10,"A11_T",1,1,2,2,1,NA,NA
"660",10,"A12_T",1,1,2,5,1,NA,NA
"661",10,"A13_T",1,1,2,2,1,NA,NA
"662",10,"A14_T",1,1,2,2,1,NA,NA
"663",10,"A15_T",1,1,2,2,1,NA,NA
"664",10,"A16_T",1,1,2,4,1,NA,NA
"665",10,"A17_T",1,1,2,2,1,NA,NA
"666",10,"A18_T",1,1,2,6,1,NA,NA
"667",10,"A19_F",1,1,2,1,1,NA,NA
"668",10,"A20_F",1,1,2,4,1,NA,NA
"669",10,"A21_F",1,1,2,2,1,NA,NA
"670",10,"A22_F",1,1,2,2,1,NA,NA
"671",10,"A23_F",1,1,2,2,1,NA,NA
"672",10,"A24_F",1,1,2,2,1,NA,NA
"673",10,"A25_F",1,1,2,1,1,NA,NA
"674",10,"A26_F",1,1,2,2,1,NA,NA
"675",10,"A27_F",1,1,2,5,1,NA,NA
"676",10,"A28_F",1,1,2,6,1,NA,NA
"677",10,"A29_F",1,1,2,2,1,NA,NA
"678",10,"A30_F",1,1,2,6,1,NA,NA
"679",10,"A31_F",1,1,2,5,1,NA,NA
"680",10,"A32_F",1,1,2,3,1,NA,NA
"681",10,"A33_F",1,1,2,4,1,NA,NA
"682",10,"A34_F",1,1,2,5,1,NA,NA
"683",10,"A35_F",1,1,2,4,1,NA,NA
"684",10,"A36_F",1,1,2,6,1,NA,NA
"685",10,"A37_T",1,1,2,2,0,NA,NA
"686",10,"A38_T",1,1,2,1,0,NA,NA
"687",10,"A39_T",1,1,2,5,0,NA,NA
"688",10,"A40_T",1,1,2,5,0,NA,NA
"689",10,"A41_T",1,1,2,2,0,NA,NA
"690",10,"A42_T",1,1,2,5,0,NA,NA
"691",10,"A43_T",1,1,2,2,0,NA,NA
"692",10,"A44_T",1,1,2,4,0,NA,NA
"693",10,"A45_T",1,1,2,2,0,NA,NA
"694",10,"A46_T",1,1,2,2,0,NA,NA
"695",10,"A47_T",1,1,2,6,0,NA,NA
"696",10,"A48_T",1,1,2,2,0,NA,NA
"697",10,"A49_T",1,1,2,2,0,NA,NA
"698",10,"A50_T",1,1,2,4,0,NA,NA
"699",10,"A51_T",1,1,2,2,0,NA,NA
"700",10,"A52_T",1,1,2,2,0,NA,NA
"701",10,"A53_T",1,1,2,2,0,NA,NA
"702",10,"A54_T",1,1,2,5,0,NA,NA
"703",10,"A55_F",1,1,2,6,0,NA,NA
"704",10,"A56_F",1,1,2,3,0,NA,NA
"705",10,"A57_F",1,1,2,2,0,NA,NA
"706",10,"A58_F",1,1,2,1,0,NA,NA
"707",10,"A59_F",1,1,2,1,0,NA,NA
"708",10,"A60_F",1,1,2,4,0,NA,NA
"709",10,"A61_F",1,1,2,2,0,NA,NA
"710",10,"A62_F",1,1,2,2,0,NA,NA
"711",10,"A63_F",1,1,2,2,0,NA,NA
"712",10,"A64_F",1,1,2,5,0,NA,NA
"713",10,"A65_F",1,1,2,2,0,NA,NA
"714",10,"A66_F",1,1,2,5,0,NA,NA
"715",10,"A67_F",1,1,2,4,0,NA,NA
"716",10,"A68_F",1,1,2,2,0,NA,NA
"717",10,"A69_F",1,1,2,5,0,NA,NA
"718",10,"A70_F",1,1,2,3,0,NA,NA
"719",10,"A71_F",1,1,2,6,0,NA,NA
"720",10,"A72_F",1,1,2,6,0,NA,NA
"721",11,"A1_T",1,1,2,4,0,NA,NA
"722",11,"A2_T",1,1,2,6,0,NA,NA
"723",11,"A3_T",1,1,2,4,0,NA,NA
"724",11,"A4_T",1,1,2,4,0,NA,NA
"725",11,"A5_T",1,1,2,2,0,NA,NA
"726",11,"A6_T",1,1,2,4,0,NA,NA
"727",11,"A7_T",1,1,2,4,0,NA,NA
"728",11,"A8_T",1,1,2,3,0,NA,NA
"729",11,"A9_T",1,1,2,4,0,NA,NA
"730",11,"A10_T",1,1,2,4,0,NA,NA
"731",11,"A11_T",1,1,2,4,0,NA,NA
"732",11,"A12_T",1,1,2,4,0,NA,NA
"733",11,"A13_T",1,1,2,4,0,NA,NA
"734",11,"A14_T",1,1,2,4,0,NA,NA
"735",11,"A15_T",1,1,2,4,0,NA,NA
"736",11,"A16_T",1,1,2,3,0,NA,NA
"737",11,"A17_T",1,1,2,5,0,NA,NA
"738",11,"A18_T",1,1,2,4,0,NA,NA
"739",11,"A19_F",1,1,2,4,0,NA,NA
"740",11,"A20_F",1,1,2,2,0,NA,NA
"741",11,"A21_F",1,1,2,3,0,NA,NA
"742",11,"A22_F",1,1,2,3,0,NA,NA
"743",11,"A23_F",1,1,2,4,0,NA,NA
"744",11,"A24_F",1,1,2,3,0,NA,NA
"745",11,"A25_F",1,1,2,3,0,NA,NA
"746",11,"A26_F",1,1,2,4,0,NA,NA
"747",11,"A27_F",1,1,2,2,0,NA,NA
"748",11,"A28_F",1,1,2,4,0,NA,NA
"749",11,"A29_F",1,1,2,4,0,NA,NA
"750",11,"A30_F",1,1,2,2,0,NA,NA
"751",11,"A31_F",1,1,2,3,0,NA,NA
"752",11,"A32_F",1,1,2,4,0,NA,NA
"753",11,"A33_F",1,1,2,3,0,NA,NA
"754",11,"A34_F",1,1,2,4,0,NA,NA
"755",11,"A35_F",1,1,2,4,0,NA,NA
"756",11,"A36_F",1,1,2,4,0,NA,NA
"757",11,"A37_T",1,1,2,3,1,NA,NA
"758",11,"A38_T",1,1,2,3,1,NA,NA
"759",11,"A39_T",1,1,2,4,1,NA,NA
"760",11,"A40_T",1,1,2,6,1,NA,NA
"761",11,"A41_T",1,1,2,4,1,NA,NA
"762",11,"A42_T",1,1,2,3,1,NA,NA
"763",11,"A43_T",1,1,2,4,1,NA,NA
"764",11,"A44_T",1,1,2,4,1,NA,NA
"765",11,"A45_T",1,1,2,4,1,NA,NA
"766",11,"A46_T",1,1,2,4,1,NA,NA
"767",11,"A47_T",1,1,2,4,1,NA,NA
"768",11,"A48_T",1,1,2,4,1,NA,NA
"769",11,"A49_T",1,1,2,3,1,NA,NA
"770",11,"A50_T",1,1,2,3,1,NA,NA
"771",11,"A51_T",1,1,2,2,1,NA,NA
"772",11,"A52_T",1,1,2,3,1,NA,NA
"773",11,"A53_T",1,1,2,4,1,NA,NA
"774",11,"A54_T",1,1,2,3,1,NA,NA
"775",11,"A55_F",1,1,2,4,1,NA,NA
"776",11,"A56_F",1,1,2,4,1,NA,NA
"777",11,"A57_F",1,1,2,3,1,NA,NA
"778",11,"A58_F",1,1,2,4,1,NA,NA
"779",11,"A59_F",1,1,2,3,1,NA,NA
"780",11,"A60_F",1,1,2,4,1,NA,NA
"781",11,"A61_F",1,1,2,4,1,NA,NA
"782",11,"A62_F",1,1,2,3,1,NA,NA
"783",11,"A63_F",1,1,2,4,1,NA,NA
"784",11,"A64_F",1,1,2,4,1,NA,NA
"785",11,"A65_F",1,1,2,4,1,NA,NA
"786",11,"A66_F",1,1,2,3,1,NA,NA
"787",11,"A67_F",1,1,2,4,1,NA,NA
"788",11,"A68_F",1,1,2,4,1,NA,NA
"789",11,"A69_F",1,1,2,4,1,NA,NA
"790",11,"A70_F",1,1,2,3,1,NA,NA
"791",11,"A71_F",1,1,2,3,1,NA,NA
"792",11,"A72_F",1,1,2,4,1,NA,NA
"793",12,"A1_T",1,1,1,3,0,NA,NA
"794",12,"A2_T",1,1,1,2,0,NA,NA
"795",12,"A3_T",1,1,1,3,0,NA,NA
"796",12,"A4_T",1,1,1,3,0,NA,NA
"797",12,"A5_T",1,1,1,3,0,NA,NA
"798",12,"A6_T",1,1,1,3,0,NA,NA
"799",12,"A7_T",1,1,1,3,0,NA,NA
"800",12,"A8_T",1,1,1,3,0,NA,NA
"801",12,"A9_T",1,1,1,3,0,NA,NA
"802",12,"A10_T",1,1,1,3,0,NA,NA
"803",12,"A11_T",1,1,1,3,0,NA,NA
"804",12,"A12_T",1,1,1,3,0,NA,NA
"805",12,"A13_T",1,1,1,3,0,NA,NA
"806",12,"A14_T",1,1,1,3,0,NA,NA
"807",12,"A15_T",1,1,1,3,0,NA,NA
"808",12,"A16_T",1,1,1,3,0,NA,NA
"809",12,"A17_T",1,1,1,3,0,NA,NA
"810",12,"A18_T",1,1,1,6,0,NA,NA
"811",12,"A19_F",1,1,1,3,0,NA,NA
"812",12,"A20_F",1,1,1,3,0,NA,NA
"813",12,"A21_F",1,1,1,3,0,NA,NA
"814",12,"A22_F",1,1,1,3,0,NA,NA
"815",12,"A23_F",1,1,1,3,0,NA,NA
"816",12,"A24_F",1,1,1,3,0,NA,NA
"817",12,"A25_F",1,1,1,3,0,NA,NA
"818",12,"A26_F",1,1,1,3,0,NA,NA
"819",12,"A27_F",1,1,1,3,0,NA,NA
"820",12,"A28_F",1,1,1,3,0,NA,NA
"821",12,"A29_F",1,1,1,3,0,NA,NA
"822",12,"A30_F",1,1,1,3,0,NA,NA
"823",12,"A31_F",1,1,1,3,0,NA,NA
"824",12,"A32_F",1,1,1,3,0,NA,NA
"825",12,"A33_F",1,1,1,3,0,NA,NA
"826",12,"A34_F",1,1,1,3,0,NA,NA
"827",12,"A35_F",1,1,1,2,0,NA,NA
"828",12,"A36_F",1,1,1,3,0,NA,NA
"829",12,"A37_T",1,1,1,5,1,NA,NA
"830",12,"A38_T",1,1,1,3,1,NA,NA
"831",12,"A39_T",1,1,1,5,1,NA,NA
"832",12,"A40_T",1,1,1,4,1,NA,NA
"833",12,"A41_T",1,1,1,6,1,NA,NA
"834",12,"A42_T",1,1,1,3,1,NA,NA
"835",12,"A43_T",1,1,1,2,1,NA,NA
"836",12,"A44_T",1,1,1,5,1,NA,NA
"837",12,"A45_T",1,1,1,5,1,NA,NA
"838",12,"A46_T",1,1,1,4,1,NA,NA
"839",12,"A47_T",1,1,1,5,1,NA,NA
"840",12,"A48_T",1,1,1,5,1,NA,NA
"841",12,"A49_T",1,1,1,4,1,NA,NA
"842",12,"A50_T",1,1,1,6,1,NA,NA
"843",12,"A51_T",1,1,1,5,1,NA,NA
"844",12,"A52_T",1,1,1,3,1,NA,NA
"845",12,"A53_T",1,1,1,6,1,NA,NA
"846",12,"A54_T",1,1,1,6,1,NA,NA
"847",12,"A55_F",1,1,1,3,1,NA,NA
"848",12,"A56_F",1,1,1,2,1,NA,NA
"849",12,"A57_F",1,1,1,5,1,NA,NA
"850",12,"A58_F",1,1,1,6,1,NA,NA
"851",12,"A59_F",1,1,1,3,1,NA,NA
"852",12,"A60_F",1,1,1,5,1,NA,NA
"853",12,"A61_F",1,1,1,4,1,NA,NA
"854",12,"A62_F",1,1,1,5,1,NA,NA
"855",12,"A63_F",1,1,1,3,1,NA,NA
"856",12,"A64_F",1,1,1,4,1,NA,NA
"857",12,"A65_F",1,1,1,5,1,NA,NA
"858",12,"A66_F",1,1,1,5,1,NA,NA
"859",12,"A67_F",1,1,1,2,1,NA,NA
"860",12,"A68_F",1,1,1,4,1,NA,NA
"861",12,"A69_F",1,1,1,4,1,NA,NA
"862",12,"A70_F",1,1,1,5,1,NA,NA
"863",12,"A71_F",1,1,1,5,1,NA,NA
"864",12,"A72_F",1,1,1,5,1,NA,NA
"865",13,"A1_T",1,1,2,4,0,NA,NA
"866",13,"A2_T",1,1,2,3,0,NA,NA
"867",13,"A3_T",1,1,2,2,0,NA,NA
"868",13,"A4_T",1,1,2,4,0,NA,NA
"869",13,"A5_T",1,1,2,2,0,NA,NA
"870",13,"A6_T",1,1,2,3,0,NA,NA
"871",13,"A7_T",1,1,2,3,0,NA,NA
"872",13,"A8_T",1,1,2,3,0,NA,NA
"873",13,"A9_T",1,1,2,3,0,NA,NA
"874",13,"A10_T",1,1,2,4,0,NA,NA
"875",13,"A11_T",1,1,2,6,0,NA,NA
"876",13,"A12_T",1,1,2,6,0,NA,NA
"877",13,"A13_T",1,1,2,3,0,NA,NA
"878",13,"A14_T",1,1,2,3,0,NA,NA
"879",13,"A15_T",1,1,2,5,0,NA,NA
"880",13,"A16_T",1,1,2,4,0,NA,NA
"881",13,"A17_T",1,1,2,3,0,NA,NA
"882",13,"A18_T",1,1,2,6,0,NA,NA
"883",13,"A19_F",1,1,2,3,0,NA,NA
"884",13,"A20_F",1,1,2,4,0,NA,NA
"885",13,"A21_F",1,1,2,3,0,NA,NA
"886",13,"A22_F",1,1,2,4,0,NA,NA
"887",13,"A23_F",1,1,2,3,0,NA,NA
"888",13,"A24_F",1,1,2,5,0,NA,NA
"889",13,"A25_F",1,1,2,5,0,NA,NA
"890",13,"A26_F",1,1,2,3,0,NA,NA
"891",13,"A27_F",1,1,2,4,0,NA,NA
"892",13,"A28_F",1,1,2,4,0,NA,NA
"893",13,"A29_F",1,1,2,2,0,NA,NA
"894",13,"A30_F",1,1,2,3,0,NA,NA
"895",13,"A31_F",1,1,2,4,0,NA,NA
"896",13,"A32_F",1,1,2,5,0,NA,NA
"897",13,"A33_F",1,1,2,4,0,NA,NA
"898",13,"A34_F",1,1,2,3,0,NA,NA
"899",13,"A35_F",1,1,2,4,0,NA,NA
"900",13,"A36_F",1,1,2,4,0,NA,NA
"901",13,"A37_T",1,1,2,5,1,NA,NA
"902",13,"A38_T",1,1,2,6,1,NA,NA
"903",13,"A39_T",1,1,2,6,1,NA,NA
"904",13,"A40_T",1,1,2,6,1,NA,NA
"905",13,"A41_T",1,1,2,6,1,NA,NA
"906",13,"A42_T",1,1,2,6,1,NA,NA
"907",13,"A43_T",1,1,2,4,1,NA,NA
"908",13,"A44_T",1,1,2,6,1,NA,NA
"909",13,"A45_T",1,1,2,6,1,NA,NA
"910",13,"A46_T",1,1,2,6,1,NA,NA
"911",13,"A47_T",1,1,2,6,1,NA,NA
"912",13,"A48_T",1,1,2,6,1,NA,NA
"913",13,"A49_T",1,1,2,6,1,NA,NA
"914",13,"A50_T",1,1,2,6,1,NA,NA
"915",13,"A51_T",1,1,2,6,1,NA,NA
"916",13,"A52_T",1,1,2,6,1,NA,NA
"917",13,"A53_T",1,1,2,6,1,NA,NA
"918",13,"A54_T",1,1,2,6,1,NA,NA
"919",13,"A55_F",1,1,2,4,1,NA,NA
"920",13,"A56_F",1,1,2,4,1,NA,NA
"921",13,"A57_F",1,1,2,6,1,NA,NA
"922",13,"A58_F",1,1,2,6,1,NA,NA
"923",13,"A59_F",1,1,2,1,1,NA,NA
"924",13,"A60_F",1,1,2,4,1,NA,NA
"925",13,"A61_F",1,1,2,6,1,NA,NA
"926",13,"A62_F",1,1,2,6,1,NA,NA
"927",13,"A63_F",1,1,2,4,1,NA,NA
"928",13,"A64_F",1,1,2,4,1,NA,NA
"929",13,"A65_F",1,1,2,6,1,NA,NA
"930",13,"A66_F",1,1,2,6,1,NA,NA
"931",13,"A67_F",1,1,2,6,1,NA,NA
"932",13,"A68_F",1,1,2,6,1,NA,NA
"933",13,"A69_F",1,1,2,6,1,NA,NA
"934",13,"A70_F",1,1,2,6,1,NA,NA
"935",13,"A71_F",1,1,2,2,1,NA,NA
"936",13,"A72_F",1,1,2,6,1,NA,NA
"937",14,"A1_T",1,1,2,3,0,NA,NA
"938",14,"A2_T",1,1,2,6,0,NA,NA
"939",14,"A3_T",1,1,2,3,0,NA,NA
"940",14,"A4_T",1,1,2,4,0,NA,NA
"941",14,"A5_T",1,1,2,2,0,NA,NA
"942",14,"A6_T",1,1,2,3,0,NA,NA
"943",14,"A7_T",1,1,2,4,0,NA,NA
"944",14,"A8_T",1,1,2,4,0,NA,NA
"945",14,"A9_T",1,1,2,3,0,NA,NA
"946",14,"A10_T",1,1,2,3,0,NA,NA
"947",14,"A11_T",1,1,2,3,0,NA,NA
"948",14,"A12_T",1,1,2,6,0,NA,NA
"949",14,"A13_T",1,1,2,3,0,NA,NA
"950",14,"A14_T",1,1,2,5,0,NA,NA
"951",14,"A15_T",1,1,2,4,0,NA,NA
"952",14,"A16_T",1,1,2,3,0,NA,NA
"953",14,"A17_T",1,1,2,3,0,NA,NA
"954",14,"A18_T",1,1,2,6,0,NA,NA
"955",14,"A19_F",1,1,2,3,0,NA,NA
"956",14,"A20_F",1,1,2,5,0,NA,NA
"957",14,"A21_F",1,1,2,4,0,NA,NA
"958",14,"A22_F",1,1,2,5,0,NA,NA
"959",14,"A23_F",1,1,2,4,0,NA,NA
"960",14,"A24_F",1,1,2,4,0,NA,NA
"961",14,"A25_F",1,1,2,4,0,NA,NA
"962",14,"A26_F",1,1,2,4,0,NA,NA
"963",14,"A27_F",1,1,2,4,0,NA,NA
"964",14,"A28_F",1,1,2,2,0,NA,NA
"965",14,"A29_F",1,1,2,5,0,NA,NA
"966",14,"A30_F",1,1,2,3,0,NA,NA
"967",14,"A31_F",1,1,2,5,0,NA,NA
"968",14,"A32_F",1,1,2,1,0,NA,NA
"969",14,"A33_F",1,1,2,4,0,NA,NA
"970",14,"A34_F",1,1,2,3,0,NA,NA
"971",14,"A35_F",1,1,2,4,0,NA,NA
"972",14,"A36_F",1,1,2,1,0,NA,NA
"973",14,"A37_T",1,1,2,4,1,NA,NA
"974",14,"A38_T",1,1,2,5,1,NA,NA
"975",14,"A39_T",1,1,2,2,1,NA,NA
"976",14,"A40_T",1,1,2,3,1,NA,NA
"977",14,"A41_T",1,1,2,3,1,NA,NA
"978",14,"A42_T",1,1,2,4,1,NA,NA
"979",14,"A43_T",1,1,2,4,1,NA,NA
"980",14,"A44_T",1,1,2,4,1,NA,NA
"981",14,"A45_T",1,1,2,1,1,NA,NA
"982",14,"A46_T",1,1,2,5,1,NA,NA
"983",14,"A47_T",1,1,2,5,1,NA,NA
"984",14,"A48_T",1,1,2,6,1,NA,NA
"985",14,"A49_T",1,1,2,4,1,NA,NA
"986",14,"A50_T",1,1,2,5,1,NA,NA
"987",14,"A51_T",1,1,2,5,1,NA,NA
"988",14,"A52_T",1,1,2,6,1,NA,NA
"989",14,"A53_T",1,1,2,1,1,NA,NA
"990",14,"A54_T",1,1,2,6,1,NA,NA
"991",14,"A55_F",1,1,2,1,1,NA,NA
"992",14,"A56_F",1,1,2,5,1,NA,NA
"993",14,"A57_F",1,1,2,3,1,NA,NA
"994",14,"A58_F",1,1,2,2,1,NA,NA
"995",14,"A59_F",1,1,2,4,1,NA,NA
"996",14,"A60_F",1,1,2,5,1,NA,NA
"997",14,"A61_F",1,1,2,1,1,NA,NA
"998",14,"A62_F",1,1,2,1,1,NA,NA
"999",14,"A63_F",1,1,2,4,1,NA,NA
"1000",14,"A64_F",1,1,2,3,1,NA,NA
"1001",14,"A65_F",1,1,2,5,1,NA,NA
"1002",14,"A66_F",1,1,2,5,1,NA,NA
"1003",14,"A67_F",1,1,2,2,1,NA,NA
"1004",14,"A68_F",1,1,2,4,1,NA,NA
"1005",14,"A69_F",1,1,2,1,1,NA,NA
"1006",14,"A70_F",1,1,2,3,1,NA,NA
"1007",14,"A71_F",1,1,2,6,1,NA,NA
"1008",14,"A72_F",1,1,2,4,1,NA,NA
"1009",15,"A1_T",1,1,1,6,1,NA,NA
"1010",15,"A2_T",1,1,1,6,1,NA,NA
"1011",15,"A3_T",1,1,1,6,1,NA,NA
"1012",15,"A4_T",1,1,1,2,1,NA,NA
"1013",15,"A5_T",1,1,1,6,1,NA,NA
"1014",15,"A6_T",1,1,1,6,1,NA,NA
"1015",15,"A7_T",1,1,1,6,1,NA,NA
"1016",15,"A8_T",1,1,1,4,1,NA,NA
"1017",15,"A9_T",1,1,1,6,1,NA,NA
"1018",15,"A10_T",1,1,1,6,1,NA,NA
"1019",15,"A11_T",1,1,1,6,1,NA,NA
"1020",15,"A12_T",1,1,1,3,1,NA,NA
"1021",15,"A13_T",1,1,1,5,1,NA,NA
"1022",15,"A14_T",1,1,1,2,1,NA,NA
"1023",15,"A15_T",1,1,1,6,1,NA,NA
"1024",15,"A16_T",1,1,1,6,1,NA,NA
"1025",15,"A17_T",1,1,1,6,1,NA,NA
"1026",15,"A18_T",1,1,1,6,1,NA,NA
"1027",15,"A19_F",1,1,1,3,1,NA,NA
"1028",15,"A20_F",1,1,1,3,1,NA,NA
"1029",15,"A21_F",1,1,1,6,1,NA,NA
"1030",15,"A22_F",1,1,1,4,1,NA,NA
"1031",15,"A23_F",1,1,1,3,1,NA,NA
"1032",15,"A24_F",1,1,1,6,1,NA,NA
"1033",15,"A25_F",1,1,1,6,1,NA,NA
"1034",15,"A26_F",1,1,1,6,1,NA,NA
"1035",15,"A27_F",1,1,1,6,1,NA,NA
"1036",15,"A28_F",1,1,1,6,1,NA,NA
"1037",15,"A29_F",1,1,1,6,1,NA,NA
"1038",15,"A30_F",1,1,1,6,1,NA,NA
"1039",15,"A31_F",1,1,1,6,1,NA,NA
"1040",15,"A32_F",1,1,1,6,1,NA,NA
"1041",15,"A33_F",1,1,1,2,1,NA,NA
"1042",15,"A34_F",1,1,1,6,1,NA,NA
"1043",15,"A35_F",1,1,1,6,1,NA,NA
"1044",15,"A36_F",1,1,1,6,1,NA,NA
"1045",15,"A37_T",1,1,1,3,0,NA,NA
"1046",15,"A38_T",1,1,1,2,0,NA,NA
"1047",15,"A39_T",1,1,1,6,0,NA,NA
"1048",15,"A40_T",1,1,1,6,0,NA,NA
"1049",15,"A41_T",1,1,1,2,0,NA,NA
"1050",15,"A42_T",1,1,1,2,0,NA,NA
"1051",15,"A43_T",1,1,1,2,0,NA,NA
"1052",15,"A44_T",1,1,1,3,0,NA,NA
"1053",15,"A45_T",1,1,1,3,0,NA,NA
"1054",15,"A46_T",1,1,1,3,0,NA,NA
"1055",15,"A47_T",1,1,1,5,0,NA,NA
"1056",15,"A48_T",1,1,1,2,0,NA,NA
"1057",15,"A49_T",1,1,1,2,0,NA,NA
"1058",15,"A50_T",1,1,1,2,0,NA,NA
"1059",15,"A51_T",1,1,1,2,0,NA,NA
"1060",15,"A52_T",1,1,1,6,0,NA,NA
"1061",15,"A53_T",1,1,1,4,0,NA,NA
"1062",15,"A54_T",1,1,1,2,0,NA,NA
"1063",15,"A55_F",1,1,1,2,0,NA,NA
"1064",15,"A56_F",1,1,1,3,0,NA,NA
"1065",15,"A57_F",1,1,1,6,0,NA,NA
"1066",15,"A58_F",1,1,1,2,0,NA,NA
"1067",15,"A59_F",1,1,1,2,0,NA,NA
"1068",15,"A60_F",1,1,1,6,0,NA,NA
"1069",15,"A61_F",1,1,1,3,0,NA,NA
"1070",15,"A62_F",1,1,1,2,0,NA,NA
"1071",15,"A63_F",1,1,1,1,0,NA,NA
"1072",15,"A64_F",1,1,1,6,0,NA,NA
"1073",15,"A65_F",1,1,1,3,0,NA,NA
"1074",15,"A66_F",1,1,1,2,0,NA,NA
"1075",15,"A67_F",1,1,1,3,0,NA,NA
"1076",15,"A68_F",1,1,1,2,0,NA,NA
"1077",15,"A69_F",1,1,1,1,0,NA,NA
"1078",15,"A70_F",1,1,1,6,0,NA,NA
"1079",15,"A71_F",1,1,1,6,0,NA,NA
"1080",15,"A72_F",1,1,1,2,0,NA,NA
"1081",16,"A1_T",1,1,2,4,1,NA,NA
"1082",16,"A2_T",1,1,2,6,1,NA,NA
"1083",16,"A3_T",1,1,2,4,1,NA,NA
"1084",16,"A4_T",1,1,2,4,1,NA,NA
"1085",16,"A5_T",1,1,2,4,1,NA,NA
"1086",16,"A6_T",1,1,2,3,1,NA,NA
"1087",16,"A7_T",1,1,2,4,1,NA,NA
"1088",16,"A8_T",1,1,2,3,1,NA,NA
"1089",16,"A9_T",1,1,2,3,1,NA,NA
"1090",16,"A10_T",1,1,2,4,1,NA,NA
"1091",16,"A11_T",1,1,2,3,1,NA,NA
"1092",16,"A12_T",1,1,2,5,1,NA,NA
"1093",16,"A13_T",1,1,2,2,1,NA,NA
"1094",16,"A14_T",1,1,2,5,1,NA,NA
"1095",16,"A15_T",1,1,2,3,1,NA,NA
"1096",16,"A16_T",1,1,2,5,1,NA,NA
"1097",16,"A17_T",1,1,2,5,1,NA,NA
"1098",16,"A18_T",1,1,2,5,1,NA,NA
"1099",16,"A19_F",1,1,2,3,1,NA,NA
"1100",16,"A20_F",1,1,2,1,1,NA,NA
"1101",16,"A21_F",1,1,2,3,1,NA,NA
"1102",16,"A22_F",1,1,2,2,1,NA,NA
"1103",16,"A23_F",1,1,2,4,1,NA,NA
"1104",16,"A24_F",1,1,2,3,1,NA,NA
"1105",16,"A25_F",1,1,2,3,1,NA,NA
"1106",16,"A26_F",1,1,2,3,1,NA,NA
"1107",16,"A27_F",1,1,2,3,1,NA,NA
"1108",16,"A28_F",1,1,2,2,1,NA,NA
"1109",16,"A29_F",1,1,2,2,1,NA,NA
"1110",16,"A30_F",1,1,2,5,1,NA,NA
"1111",16,"A31_F",1,1,2,3,1,NA,NA
"1112",16,"A32_F",1,1,2,5,1,NA,NA
"1113",16,"A33_F",1,1,2,4,1,NA,NA
"1114",16,"A34_F",1,1,2,3,1,NA,NA
"1115",16,"A35_F",1,1,2,4,1,NA,NA
"1116",16,"A36_F",1,1,2,5,1,NA,NA
"1117",16,"A37_T",1,1,2,3,0,NA,NA
"1118",16,"A38_T",1,1,2,3,0,NA,NA
"1119",16,"A39_T",1,1,2,1,0,NA,NA
"1120",16,"A40_T",1,1,2,3,0,NA,NA
"1121",16,"A41_T",1,1,2,2,0,NA,NA
"1122",16,"A42_T",1,1,2,3,0,NA,NA
"1123",16,"A43_T",1,1,2,3,0,NA,NA
"1124",16,"A44_T",1,1,2,3,0,NA,NA
"1125",16,"A45_T",1,1,2,1,0,NA,NA
"1126",16,"A46_T",1,1,2,3,0,NA,NA
"1127",16,"A47_T",1,1,2,3,0,NA,NA
"1128",16,"A48_T",1,1,2,5,0,NA,NA
"1129",16,"A49_T",1,1,2,3,0,NA,NA
"1130",16,"A50_T",1,1,2,3,0,NA,NA
"1131",16,"A51_T",1,1,2,4,0,NA,NA
"1132",16,"A52_T",1,1,2,2,0,NA,NA
"1133",16,"A53_T",1,1,2,3,0,NA,NA
"1134",16,"A54_T",1,1,2,5,0,NA,NA
"1135",16,"A55_F",1,1,2,4,0,NA,NA
"1136",16,"A56_F",1,1,2,4,0,NA,NA
"1137",16,"A57_F",1,1,2,3,0,NA,NA
"1138",16,"A58_F",1,1,2,1,0,NA,NA
"1139",16,"A59_F",1,1,2,4,0,NA,NA
"1140",16,"A60_F",1,1,2,3,0,NA,NA
"1141",16,"A61_F",1,1,2,3,0,NA,NA
"1142",16,"A62_F",1,1,2,3,0,NA,NA
"1143",16,"A63_F",1,1,2,4,0,NA,NA
"1144",16,"A64_F",1,1,2,3,0,NA,NA
"1145",16,"A65_F",1,1,2,3,0,NA,NA
"1146",16,"A66_F",1,1,2,3,0,NA,NA
"1147",16,"A67_F",1,1,2,3,0,NA,NA
"1148",16,"A68_F",1,1,2,4,0,NA,NA
"1149",16,"A69_F",1,1,2,3,0,NA,NA
"1150",16,"A70_F",1,1,2,3,0,NA,NA
"1151",16,"A71_F",1,1,2,5,0,NA,NA
"1152",16,"A72_F",1,1,2,3,0,NA,NA
"1153",17,"A1_T",1,1,1,6,0,NA,NA
"1154",17,"A2_T",1,1,1,4,0,NA,NA
"1155",17,"A3_T",1,1,1,4,0,NA,NA
"1156",17,"A4_T",1,1,1,3,0,NA,NA
"1157",17,"A5_T",1,1,1,5,0,NA,NA
"1158",17,"A6_T",1,1,1,5,0,NA,NA
"1159",17,"A7_T",1,1,1,3,0,NA,NA
"1160",17,"A8_T",1,1,1,6,0,NA,NA
"1161",17,"A9_T",1,1,1,4,0,NA,NA
"1162",17,"A10_T",1,1,1,6,0,NA,NA
"1163",17,"A11_T",1,1,1,5,0,NA,NA
"1164",17,"A12_T",1,1,1,6,0,NA,NA
"1165",17,"A13_T",1,1,1,2,0,NA,NA
"1166",17,"A14_T",1,1,1,5,0,NA,NA
"1167",17,"A15_T",1,1,1,6,0,NA,NA
"1168",17,"A16_T",1,1,1,5,0,NA,NA
"1169",17,"A17_T",1,1,1,3,0,NA,NA
"1170",17,"A18_T",1,1,1,6,0,NA,NA
"1171",17,"A19_F",1,1,1,2,0,NA,NA
"1172",17,"A20_F",1,1,1,3,0,NA,NA
"1173",17,"A21_F",1,1,1,3,0,NA,NA
"1174",17,"A22_F",1,1,1,5,0,NA,NA
"1175",17,"A23_F",1,1,1,3,0,NA,NA
"1176",17,"A24_F",1,1,1,6,0,NA,NA
"1177",17,"A25_F",1,1,1,3,0,NA,NA
"1178",17,"A26_F",1,1,1,3,0,NA,NA
"1179",17,"A27_F",1,1,1,1,0,NA,NA
"1180",17,"A28_F",1,1,1,3,0,NA,NA
"1181",17,"A29_F",1,1,1,1,0,NA,NA
"1182",17,"A30_F",1,1,1,1,0,NA,NA
"1183",17,"A31_F",1,1,1,6,0,NA,NA
"1184",17,"A32_F",1,1,1,6,0,NA,NA
"1185",17,"A33_F",1,1,1,5,0,NA,NA
"1186",17,"A34_F",1,1,1,2,0,NA,NA
"1187",17,"A35_F",1,1,1,3,0,NA,NA
"1188",17,"A36_F",1,1,1,1,0,NA,NA
"1189",17,"A37_T",1,1,1,6,1,NA,NA
"1190",17,"A38_T",1,1,1,5,1,NA,NA
"1191",17,"A39_T",1,1,1,2,1,NA,NA
"1192",17,"A40_T",1,1,1,3,1,NA,NA
"1193",17,"A41_T",1,1,1,3,1,NA,NA
"1194",17,"A42_T",1,1,1,6,1,NA,NA
"1195",17,"A43_T",1,1,1,2,1,NA,NA
"1196",17,"A44_T",1,1,1,6,1,NA,NA
"1197",17,"A45_T",1,1,1,1,1,NA,NA
"1198",17,"A46_T",1,1,1,6,1,NA,NA
"1199",17,"A47_T",1,1,1,6,1,NA,NA
"1200",17,"A48_T",1,1,1,2,1,NA,NA
"1201",17,"A49_T",1,1,1,3,1,NA,NA
"1202",17,"A50_T",1,1,1,5,1,NA,NA
"1203",17,"A51_T",1,1,1,6,1,NA,NA
"1204",17,"A52_T",1,1,1,1,1,NA,NA
"1205",17,"A53_T",1,1,1,6,1,NA,NA
"1206",17,"A54_T",1,1,1,2,1,NA,NA
"1207",17,"A55_F",1,1,1,5,1,NA,NA
"1208",17,"A56_F",1,1,1,5,1,NA,NA
"1209",17,"A57_F",1,1,1,2,1,NA,NA
"1210",17,"A58_F",1,1,1,4,1,NA,NA
"1211",17,"A59_F",1,1,1,2,1,NA,NA
"1212",17,"A60_F",1,1,1,2,1,NA,NA
"1213",17,"A61_F",1,1,1,2,1,NA,NA
"1214",17,"A62_F",1,1,1,6,1,NA,NA
"1215",17,"A63_F",1,1,1,4,1,NA,NA
"1216",17,"A64_F",1,1,1,1,1,NA,NA
"1217",17,"A65_F",1,1,1,5,1,NA,NA
"1218",17,"A66_F",1,1,1,2,1,NA,NA
"1219",17,"A67_F",1,1,1,5,1,NA,NA
"1220",17,"A68_F",1,1,1,2,1,NA,NA
"1221",17,"A69_F",1,1,1,6,1,NA,NA
"1222",17,"A70_F",1,1,1,2,1,NA,NA
"1223",17,"A71_F",1,1,1,6,1,NA,NA
"1224",17,"A72_F",1,1,1,5,1,NA,NA
"1225",18,"A1_T",1,1,1,3,0,NA,NA
"1226",18,"A2_T",1,1,1,5,0,NA,NA
"1227",18,"A3_T",1,1,1,1,0,NA,NA
"1228",18,"A4_T",1,1,1,1,0,NA,NA
"1229",18,"A5_T",1,1,1,4,0,NA,NA
"1230",18,"A6_T",1,1,1,3,0,NA,NA
"1231",18,"A7_T",1,1,1,6,0,NA,NA
"1232",18,"A8_T",1,1,1,5,0,NA,NA
"1233",18,"A9_T",1,1,1,1,0,NA,NA
"1234",18,"A10_T",1,1,1,2,0,NA,NA
"1235",18,"A11_T",1,1,1,1,0,NA,NA
"1236",18,"A12_T",1,1,1,2,0,NA,NA
"1237",18,"A13_T",1,1,1,4,0,NA,NA
"1238",18,"A14_T",1,1,1,1,0,NA,NA
"1239",18,"A15_T",1,1,1,6,0,NA,NA
"1240",18,"A16_T",1,1,1,1,0,NA,NA
"1241",18,"A17_T",1,1,1,6,0,NA,NA
"1242",18,"A18_T",1,1,1,1,0,NA,NA
"1243",18,"A19_F",1,1,1,1,0,NA,NA
"1244",18,"A20_F",1,1,1,2,0,NA,NA
"1245",18,"A21_F",1,1,1,1,0,NA,NA
"1246",18,"A22_F",1,1,1,1,0,NA,NA
"1247",18,"A23_F",1,1,1,1,0,NA,NA
"1248",18,"A24_F",1,1,1,6,0,NA,NA
"1249",18,"A25_F",1,1,1,2,0,NA,NA
"1250",18,"A26_F",1,1,1,1,0,NA,NA
"1251",18,"A27_F",1,1,1,6,0,NA,NA
"1252",18,"A28_F",1,1,1,6,0,NA,NA
"1253",18,"A29_F",1,1,1,1,0,NA,NA
"1254",18,"A30_F",1,1,1,6,0,NA,NA
"1255",18,"A31_F",1,1,1,6,0,NA,NA
"1256",18,"A32_F",1,1,1,6,0,NA,NA
"1257",18,"A33_F",1,1,1,6,0,NA,NA
"1258",18,"A34_F",1,1,1,6,0,NA,NA
"1259",18,"A35_F",1,1,1,3,0,NA,NA
"1260",18,"A36_F",1,1,1,6,0,NA,NA
"1261",18,"A37_T",1,1,1,1,1,NA,NA
"1262",18,"A38_T",1,1,1,6,1,NA,NA
"1263",18,"A39_T",1,1,1,2,1,NA,NA
"1264",18,"A40_T",1,1,1,1,1,NA,NA
"1265",18,"A41_T",1,1,1,1,1,NA,NA
"1266",18,"A42_T",1,1,1,6,1,NA,NA
"1267",18,"A43_T",1,1,1,6,1,NA,NA
"1268",18,"A44_T",1,1,1,5,1,NA,NA
"1269",18,"A45_T",1,1,1,1,1,NA,NA
"1270",18,"A46_T",1,1,1,5,1,NA,NA
"1271",18,"A47_T",1,1,1,6,1,NA,NA
"1272",18,"A48_T",1,1,1,6,1,NA,NA
"1273",18,"A49_T",1,1,1,6,1,NA,NA
"1274",18,"A50_T",1,1,1,5,1,NA,NA
"1275",18,"A51_T",1,1,1,6,1,NA,NA
"1276",18,"A52_T",1,1,1,6,1,NA,NA
"1277",18,"A53_T",1,1,1,1,1,NA,NA
"1278",18,"A54_T",1,1,1,6,1,NA,NA
"1279",18,"A55_F",1,1,1,6,1,NA,NA
"1280",18,"A56_F",1,1,1,2,1,NA,NA
"1281",18,"A57_F",1,1,1,6,1,NA,NA
"1282",18,"A58_F",1,1,1,1,1,NA,NA
"1283",18,"A59_F",1,1,1,5,1,NA,NA
"1284",18,"A60_F",1,1,1,4,1,NA,NA
"1285",18,"A61_F",1,1,1,6,1,NA,NA
"1286",18,"A62_F",1,1,1,1,1,NA,NA
"1287",18,"A63_F",1,1,1,5,1,NA,NA
"1288",18,"A64_F",1,1,1,6,1,NA,NA
"1289",18,"A65_F",1,1,1,4,1,NA,NA
"1290",18,"A66_F",1,1,1,4,1,NA,NA
"1291",18,"A67_F",1,1,1,1,1,NA,NA
"1292",18,"A68_F",1,1,1,4,1,NA,NA
"1293",18,"A69_F",1,1,1,6,1,NA,NA
"1294",18,"A70_F",1,1,1,6,1,NA,NA
"1295",18,"A71_F",1,1,1,6,1,NA,NA
"1296",18,"A72_F",1,1,1,6,1,NA,NA
"1297",19,"A1_T",1,1,1,4,1,NA,NA
"1298",19,"A2_T",1,1,1,4,1,NA,NA
"1299",19,"A3_T",1,1,1,3,1,NA,NA
"1300",19,"A4_T",1,1,1,4,1,NA,NA
"1301",19,"A5_T",1,1,1,5,1,NA,NA
"1302",19,"A6_T",1,1,1,3,1,NA,NA
"1303",19,"A7_T",1,1,1,2,1,NA,NA
"1304",19,"A8_T",1,1,1,3,1,NA,NA
"1305",19,"A9_T",1,1,1,3,1,NA,NA
"1306",19,"A10_T",1,1,1,4,1,NA,NA
"1307",19,"A11_T",1,1,1,4,1,NA,NA
"1308",19,"A12_T",1,1,1,5,1,NA,NA
"1309",19,"A13_T",1,1,1,5,1,NA,NA
"1310",19,"A14_T",1,1,1,5,1,NA,NA
"1311",19,"A15_T",1,1,1,3,1,NA,NA
"1312",19,"A16_T",1,1,1,6,1,NA,NA
"1313",19,"A17_T",1,1,1,4,1,NA,NA
"1314",19,"A18_T",1,1,1,5,1,NA,NA
"1315",19,"A19_F",1,1,1,4,1,NA,NA
"1316",19,"A20_F",1,1,1,3,1,NA,NA
"1317",19,"A21_F",1,1,1,4,1,NA,NA
"1318",19,"A22_F",1,1,1,4,1,NA,NA
"1319",19,"A23_F",1,1,1,3,1,NA,NA
"1320",19,"A24_F",1,1,1,2,1,NA,NA
"1321",19,"A25_F",1,1,1,2,1,NA,NA
"1322",19,"A26_F",1,1,1,2,1,NA,NA
"1323",19,"A27_F",1,1,1,5,1,NA,NA
"1324",19,"A28_F",1,1,1,4,1,NA,NA
"1325",19,"A29_F",1,1,1,2,1,NA,NA
"1326",19,"A30_F",1,1,1,4,1,NA,NA
"1327",19,"A31_F",1,1,1,4,1,NA,NA
"1328",19,"A32_F",1,1,1,2,1,NA,NA
"1329",19,"A33_F",1,1,1,1,1,NA,NA
"1330",19,"A34_F",1,1,1,4,1,NA,NA
"1331",19,"A35_F",1,1,1,4,1,NA,NA
"1332",19,"A36_F",1,1,1,4,1,NA,NA
"1333",19,"A37_T",1,1,1,4,0,NA,NA
"1334",19,"A38_T",1,1,1,3,0,NA,NA
"1335",19,"A39_T",1,1,1,2,0,NA,NA
"1336",19,"A40_T",1,1,1,4,0,NA,NA
"1337",19,"A41_T",1,1,1,2,0,NA,NA
"1338",19,"A42_T",1,1,1,4,0,NA,NA
"1339",19,"A43_T",1,1,1,2,0,NA,NA
"1340",19,"A44_T",1,1,1,3,0,NA,NA
"1341",19,"A45_T",1,1,1,3,0,NA,NA
"1342",19,"A46_T",1,1,1,3,0,NA,NA
"1343",19,"A47_T",1,1,1,5,0,NA,NA
"1344",19,"A48_T",1,1,1,6,0,NA,NA
"1345",19,"A49_T",1,1,1,5,0,NA,NA
"1346",19,"A50_T",1,1,1,2,0,NA,NA
"1347",19,"A51_T",1,1,1,3,0,NA,NA
"1348",19,"A52_T",1,1,1,3,0,NA,NA
"1349",19,"A53_T",1,1,1,1,0,NA,NA
"1350",19,"A54_T",1,1,1,3,0,NA,NA
"1351",19,"A55_F",1,1,1,4,0,NA,NA
"1352",19,"A56_F",1,1,1,3,0,NA,NA
"1353",19,"A57_F",1,1,1,4,0,NA,NA
"1354",19,"A58_F",1,1,1,2,0,NA,NA
"1355",19,"A59_F",1,1,1,1,0,NA,NA
"1356",19,"A60_F",1,1,1,4,0,NA,NA
"1357",19,"A61_F",1,1,1,3,0,NA,NA
"1358",19,"A62_F",1,1,1,3,0,NA,NA
"1359",19,"A63_F",1,1,1,3,0,NA,NA
"1360",19,"A64_F",1,1,1,3,0,NA,NA
"1361",19,"A65_F",1,1,1,4,0,NA,NA
"1362",19,"A66_F",1,1,1,3,0,NA,NA
"1363",19,"A67_F",1,1,1,3,0,NA,NA
"1364",19,"A68_F",1,1,1,4,0,NA,NA
"1365",19,"A69_F",1,1,1,2,0,NA,NA
"1366",19,"A70_F",1,1,1,4,0,NA,NA
"1367",19,"A71_F",1,1,1,4,0,NA,NA
"1368",19,"A72_F",1,1,1,4,0,NA,NA
"1369",20,"A1_T",1,1,1,3,1,NA,NA
"1370",20,"A2_T",1,1,1,3,1,NA,NA
"1371",20,"A3_T",1,1,1,4,1,NA,NA
"1372",20,"A4_T",1,1,1,2,1,NA,NA
"1373",20,"A5_T",1,1,1,5,1,NA,NA
"1374",20,"A6_T",1,1,1,4,1,NA,NA
"1375",20,"A7_T",1,1,1,5,1,NA,NA
"1376",20,"A8_T",1,1,1,3,1,NA,NA
"1377",20,"A9_T",1,1,1,2,1,NA,NA
"1378",20,"A10_T",1,1,1,5,1,NA,NA
"1379",20,"A11_T",1,1,1,1,1,NA,NA
"1380",20,"A12_T",1,1,1,3,1,NA,NA
"1381",20,"A13_T",1,1,1,4,1,NA,NA
"1382",20,"A14_T",1,1,1,4,1,NA,NA
"1383",20,"A15_T",1,1,1,1,1,NA,NA
"1384",20,"A16_T",1,1,1,5,1,NA,NA
"1385",20,"A17_T",1,1,1,3,1,NA,NA
"1386",20,"A18_T",1,1,1,6,1,NA,NA
"1387",20,"A19_F",1,1,1,3,1,NA,NA
"1388",20,"A20_F",1,1,1,2,1,NA,NA
"1389",20,"A21_F",1,1,1,5,1,NA,NA
"1390",20,"A22_F",1,1,1,2,1,NA,NA
"1391",20,"A23_F",1,1,1,2,1,NA,NA
"1392",20,"A24_F",1,1,1,2,1,NA,NA
"1393",20,"A25_F",1,1,1,4,1,NA,NA
"1394",20,"A26_F",1,1,1,2,1,NA,NA
"1395",20,"A27_F",1,1,1,4,1,NA,NA
"1396",20,"A28_F",1,1,1,2,1,NA,NA
"1397",20,"A29_F",1,1,1,5,1,NA,NA
"1398",20,"A30_F",1,1,1,6,1,NA,NA
"1399",20,"A31_F",1,1,1,1,1,NA,NA
"1400",20,"A32_F",1,1,1,2,1,NA,NA
"1401",20,"A33_F",1,1,1,3,1,NA,NA
"1402",20,"A34_F",1,1,1,3,1,NA,NA
"1403",20,"A35_F",1,1,1,6,1,NA,NA
"1404",20,"A36_F",1,1,1,4,1,NA,NA
"1405",20,"A37_T",1,1,1,5,0,NA,NA
"1406",20,"A38_T",1,1,1,3,0,NA,NA
"1407",20,"A39_T",1,1,1,1,0,NA,NA
"1408",20,"A40_T",1,1,1,3,0,NA,NA
"1409",20,"A41_T",1,1,1,5,0,NA,NA
"1410",20,"A42_T",1,1,1,3,0,NA,NA
"1411",20,"A43_T",1,1,1,4,0,NA,NA
"1412",20,"A44_T",1,1,1,2,0,NA,NA
"1413",20,"A45_T",1,1,1,5,0,NA,NA
"1414",20,"A46_T",1,1,1,5,0,NA,NA
"1415",20,"A47_T",1,1,1,3,0,NA,NA
"1416",20,"A48_T",1,1,1,2,0,NA,NA
"1417",20,"A49_T",1,1,1,5,0,NA,NA
"1418",20,"A50_T",1,1,1,4,0,NA,NA
"1419",20,"A51_T",1,1,1,3,0,NA,NA
"1420",20,"A52_T",1,1,1,5,0,NA,NA
"1421",20,"A53_T",1,1,1,4,0,NA,NA
"1422",20,"A54_T",1,1,1,5,0,NA,NA
"1423",20,"A55_F",1,1,1,3,0,NA,NA
"1424",20,"A56_F",1,1,1,2,0,NA,NA
"1425",20,"A57_F",1,1,1,2,0,NA,NA
"1426",20,"A58_F",1,1,1,1,0,NA,NA
"1427",20,"A59_F",1,1,1,5,0,NA,NA
"1428",20,"A60_F",1,1,1,5,0,NA,NA
"1429",20,"A61_F",1,1,1,2,0,NA,NA
"1430",20,"A62_F",1,1,1,4,0,NA,NA
"1431",20,"A63_F",1,1,1,2,0,NA,NA
"1432",20,"A64_F",1,1,1,6,0,NA,NA
"1433",20,"A65_F",1,1,1,5,0,NA,NA
"1434",20,"A66_F",1,1,1,5,0,NA,NA
"1435",20,"A67_F",1,1,1,4,0,NA,NA
"1436",20,"A68_F",1,1,1,5,0,NA,NA
"1437",20,"A69_F",1,1,1,3,0,NA,NA
"1438",20,"A70_F",1,1,1,5,0,NA,NA
"1439",20,"A71_F",1,1,1,5,0,NA,NA
"1440",20,"A72_F",1,1,1,1,0,NA,NA
"1441",21,"A1_T",1,1,2,2,0,NA,NA
"1442",21,"A2_T",1,1,2,5,0,NA,NA
"1443",21,"A3_T",1,1,2,4,0,NA,NA
"1444",21,"A4_T",1,1,2,4,0,NA,NA
"1445",21,"A5_T",1,1,2,6,0,NA,NA
"1446",21,"A6_T",1,1,2,5,0,NA,NA
"1447",21,"A7_T",1,1,2,5,0,NA,NA
"1448",21,"A8_T",1,1,2,3,0,NA,NA
"1449",21,"A9_T",1,1,2,4,0,NA,NA
"1450",21,"A10_T",1,1,2,2,0,NA,NA
"1451",21,"A11_T",1,1,2,4,0,NA,NA
"1452",21,"A12_T",1,1,2,5,0,NA,NA
"1453",21,"A13_T",1,1,2,3,0,NA,NA
"1454",21,"A14_T",1,1,2,2,0,NA,NA
"1455",21,"A15_T",1,1,2,5,0,NA,NA
"1456",21,"A16_T",1,1,2,1,0,NA,NA
"1457",21,"A17_T",1,1,2,4,0,NA,NA
"1458",21,"A18_T",1,1,2,6,0,NA,NA
"1459",21,"A19_F",1,1,2,1,0,NA,NA
"1460",21,"A20_F",1,1,2,2,0,NA,NA
"1461",21,"A21_F",1,1,2,4,0,NA,NA
"1462",21,"A22_F",1,1,2,3,0,NA,NA
"1463",21,"A23_F",1,1,2,4,0,NA,NA
"1464",21,"A24_F",1,1,2,2,0,NA,NA
"1465",21,"A25_F",1,1,2,5,0,NA,NA
"1466",21,"A26_F",1,1,2,2,0,NA,NA
"1467",21,"A27_F",1,1,2,1,0,NA,NA
"1468",21,"A28_F",1,1,2,1,0,NA,NA
"1469",21,"A29_F",1,1,2,4,0,NA,NA
"1470",21,"A30_F",1,1,2,2,0,NA,NA
"1471",21,"A31_F",1,1,2,6,0,NA,NA
"1472",21,"A32_F",1,1,2,4,0,NA,NA
"1473",21,"A33_F",1,1,2,2,0,NA,NA
"1474",21,"A34_F",1,1,2,6,0,NA,NA
"1475",21,"A35_F",1,1,2,4,0,NA,NA
"1476",21,"A36_F",1,1,2,1,0,NA,NA
"1477",21,"A37_T",1,1,2,3,1,NA,NA
"1478",21,"A38_T",1,1,2,3,1,NA,NA
"1479",21,"A39_T",1,1,2,2,1,NA,NA
"1480",21,"A40_T",1,1,2,5,1,NA,NA
"1481",21,"A41_T",1,1,2,2,1,NA,NA
"1482",21,"A42_T",1,1,2,3,1,NA,NA
"1483",21,"A43_T",1,1,2,5,1,NA,NA
"1484",21,"A44_T",1,1,2,4,1,NA,NA
"1485",21,"A45_T",1,1,2,2,1,NA,NA
"1486",21,"A46_T",1,1,2,4,1,NA,NA
"1487",21,"A47_T",1,1,2,1,1,NA,NA
"1488",21,"A48_T",1,1,2,5,1,NA,NA
"1489",21,"A49_T",1,1,2,6,1,NA,NA
"1490",21,"A50_T",1,1,2,4,1,NA,NA
"1491",21,"A51_T",1,1,2,6,1,NA,NA
"1492",21,"A52_T",1,1,2,5,1,NA,NA
"1493",21,"A53_T",1,1,2,4,1,NA,NA
"1494",21,"A54_T",1,1,2,2,1,NA,NA
"1495",21,"A55_F",1,1,2,5,1,NA,NA
"1496",21,"A56_F",1,1,2,2,1,NA,NA
"1497",21,"A57_F",1,1,2,5,1,NA,NA
"1498",21,"A58_F",1,1,2,2,1,NA,NA
"1499",21,"A59_F",1,1,2,5,1,NA,NA
"1500",21,"A60_F",1,1,2,2,1,NA,NA
"1501",21,"A61_F",1,1,2,1,1,NA,NA
"1502",21,"A62_F",1,1,2,1,1,NA,NA
"1503",21,"A63_F",1,1,2,4,1,NA,NA
"1504",21,"A64_F",1,1,2,5,1,NA,NA
"1505",21,"A65_F",1,1,2,5,1,NA,NA
"1506",21,"A66_F",1,1,2,5,1,NA,NA
"1507",21,"A67_F",1,1,2,4,1,NA,NA
"1508",21,"A68_F",1,1,2,5,1,NA,NA
"1509",21,"A69_F",1,1,2,6,1,NA,NA
"1510",21,"A70_F",1,1,2,4,1,NA,NA
"1511",21,"A71_F",1,1,2,6,1,NA,NA
"1512",21,"A72_F",1,1,2,6,1,NA,NA
"1513",22,"A1_T",1,1,1,3,1,NA,NA
"1514",22,"A2_T",1,1,1,1,1,NA,NA
"1515",22,"A3_T",1,1,1,4,1,NA,NA
"1516",22,"A4_T",1,1,1,4,1,NA,NA
"1517",22,"A5_T",1,1,1,3,1,NA,NA
"1518",22,"A6_T",1,1,1,3,1,NA,NA
"1519",22,"A7_T",1,1,1,4,1,NA,NA
"1520",22,"A8_T",1,1,1,4,1,NA,NA
"1521",22,"A9_T",1,1,1,5,1,NA,NA
"1522",22,"A10_T",1,1,1,4,1,NA,NA
"1523",22,"A11_T",1,1,1,4,1,NA,NA
"1524",22,"A12_T",1,1,1,4,1,NA,NA
"1525",22,"A13_T",1,1,1,4,1,NA,NA
"1526",22,"A14_T",1,1,1,5,1,NA,NA
"1527",22,"A15_T",1,1,1,4,1,NA,NA
"1528",22,"A16_T",1,1,1,4,1,NA,NA
"1529",22,"A17_T",1,1,1,5,1,NA,NA
"1530",22,"A18_T",1,1,1,6,1,NA,NA
"1531",22,"A19_F",1,1,1,4,1,NA,NA
"1532",22,"A20_F",1,1,1,4,1,NA,NA
"1533",22,"A21_F",1,1,1,4,1,NA,NA
"1534",22,"A22_F",1,1,1,4,1,NA,NA
"1535",22,"A23_F",1,1,1,2,1,NA,NA
"1536",22,"A24_F",1,1,1,2,1,NA,NA
"1537",22,"A25_F",1,1,1,2,1,NA,NA
"1538",22,"A26_F",1,1,1,3,1,NA,NA
"1539",22,"A27_F",1,1,1,4,1,NA,NA
"1540",22,"A28_F",1,1,1,3,1,NA,NA
"1541",22,"A29_F",1,1,1,2,1,NA,NA
"1542",22,"A30_F",1,1,1,5,1,NA,NA
"1543",22,"A31_F",1,1,1,4,1,NA,NA
"1544",22,"A32_F",1,1,1,2,1,NA,NA
"1545",22,"A33_F",1,1,1,5,1,NA,NA
"1546",22,"A34_F",1,1,1,4,1,NA,NA
"1547",22,"A35_F",1,1,1,3,1,NA,NA
"1548",22,"A36_F",1,1,1,1,1,NA,NA
"1549",22,"A37_T",1,1,1,4,0,NA,NA
"1550",22,"A38_T",1,1,1,4,0,NA,NA
"1551",22,"A39_T",1,1,1,5,0,NA,NA
"1552",22,"A40_T",1,1,1,2,0,NA,NA
"1553",22,"A41_T",1,1,1,1,0,NA,NA
"1554",22,"A42_T",1,1,1,4,0,NA,NA
"1555",22,"A43_T",1,1,1,2,0,NA,NA
"1556",22,"A44_T",1,1,1,4,0,NA,NA
"1557",22,"A45_T",1,1,1,2,0,NA,NA
"1558",22,"A46_T",1,1,1,4,0,NA,NA
"1559",22,"A47_T",1,1,1,5,0,NA,NA
"1560",22,"A48_T",1,1,1,6,0,NA,NA
"1561",22,"A49_T",1,1,1,4,0,NA,NA
"1562",22,"A50_T",1,1,1,4,0,NA,NA
"1563",22,"A51_T",1,1,1,4,0,NA,NA
"1564",22,"A52_T",1,1,1,4,0,NA,NA
"1565",22,"A53_T",1,1,1,6,0,NA,NA
"1566",22,"A54_T",1,1,1,5,0,NA,NA
"1567",22,"A55_F",1,1,1,5,0,NA,NA
"1568",22,"A56_F",1,1,1,1,0,NA,NA
"1569",22,"A57_F",1,1,1,4,0,NA,NA
"1570",22,"A58_F",1,1,1,3,0,NA,NA
"1571",22,"A59_F",1,1,1,3,0,NA,NA
"1572",22,"A60_F",1,1,1,4,0,NA,NA
"1573",22,"A61_F",1,1,1,1,0,NA,NA
"1574",22,"A62_F",1,1,1,3,0,NA,NA
"1575",22,"A63_F",1,1,1,3,0,NA,NA
"1576",22,"A64_F",1,1,1,4,0,NA,NA
"1577",22,"A65_F",1,1,1,5,0,NA,NA
"1578",22,"A66_F",1,1,1,4,0,NA,NA
"1579",22,"A67_F",1,1,1,4,0,NA,NA
"1580",22,"A68_F",1,1,1,4,0,NA,NA
"1581",22,"A69_F",1,1,1,1,0,NA,NA
"1582",22,"A70_F",1,1,1,4,0,NA,NA
"1583",22,"A71_F",1,1,1,4,0,NA,NA
"1584",22,"A72_F",1,1,1,4,0,NA,NA
"1585",23,"A1_T",1,1,2,6,1,NA,NA
"1586",23,"A2_T",1,1,2,6,1,NA,NA
"1587",23,"A3_T",1,1,2,5,1,NA,NA
"1588",23,"A4_T",1,1,2,3,1,NA,NA
"1589",23,"A5_T",1,1,2,6,1,NA,NA
"1590",23,"A6_T",1,1,2,6,1,NA,NA
"1591",23,"A7_T",1,1,2,6,1,NA,NA
"1592",23,"A8_T",1,1,2,4,1,NA,NA
"1593",23,"A9_T",1,1,2,5,1,NA,NA
"1594",23,"A10_T",1,1,2,6,1,NA,NA
"1595",23,"A11_T",1,1,2,6,1,NA,NA
"1596",23,"A12_T",1,1,2,6,1,NA,NA
"1597",23,"A13_T",1,1,2,3,1,NA,NA
"1598",23,"A14_T",1,1,2,6,1,NA,NA
"1599",23,"A15_T",1,1,2,6,1,NA,NA
"1600",23,"A16_T",1,1,2,6,1,NA,NA
"1601",23,"A17_T",1,1,2,6,1,NA,NA
"1602",23,"A18_T",1,1,2,6,1,NA,NA
"1603",23,"A19_F",1,1,2,5,1,NA,NA
"1604",23,"A20_F",1,1,2,5,1,NA,NA
"1605",23,"A21_F",1,1,2,6,1,NA,NA
"1606",23,"A22_F",1,1,2,6,1,NA,NA
"1607",23,"A23_F",1,1,2,1,1,NA,NA
"1608",23,"A24_F",1,1,2,6,1,NA,NA
"1609",23,"A25_F",1,1,2,6,1,NA,NA
"1610",23,"A26_F",1,1,2,5,1,NA,NA
"1611",23,"A27_F",1,1,2,6,1,NA,NA
"1612",23,"A28_F",1,1,2,4,1,NA,NA
"1613",23,"A29_F",1,1,2,6,1,NA,NA
"1614",23,"A30_F",1,1,2,6,1,NA,NA
"1615",23,"A31_F",1,1,2,6,1,NA,NA
"1616",23,"A32_F",1,1,2,6,1,NA,NA
"1617",23,"A33_F",1,1,2,6,1,NA,NA
"1618",23,"A34_F",1,1,2,4,1,NA,NA
"1619",23,"A35_F",1,1,2,6,1,NA,NA
"1620",23,"A36_F",1,1,2,1,1,NA,NA
"1621",23,"A37_T",1,1,2,3,0,NA,NA
"1622",23,"A38_T",1,1,2,2,0,NA,NA
"1623",23,"A39_T",1,1,2,2,0,NA,NA
"1624",23,"A40_T",1,1,2,3,0,NA,NA
"1625",23,"A41_T",1,1,2,6,0,NA,NA
"1626",23,"A42_T",1,1,2,4,0,NA,NA
"1627",23,"A43_T",1,1,2,4,0,NA,NA
"1628",23,"A44_T",1,1,2,6,0,NA,NA
"1629",23,"A45_T",1,1,2,6,0,NA,NA
"1630",23,"A46_T",1,1,2,4,0,NA,NA
"1631",23,"A47_T",1,1,2,6,0,NA,NA
"1632",23,"A48_T",1,1,2,4,0,NA,NA
"1633",23,"A49_T",1,1,2,6,0,NA,NA
"1634",23,"A50_T",1,1,2,6,0,NA,NA
"1635",23,"A51_T",1,1,2,4,0,NA,NA
"1636",23,"A52_T",1,1,2,6,0,NA,NA
"1637",23,"A53_T",1,1,2,5,0,NA,NA
"1638",23,"A54_T",1,1,2,4,0,NA,NA
"1639",23,"A55_F",1,1,2,1,0,NA,NA
"1640",23,"A56_F",1,1,2,3,0,NA,NA
"1641",23,"A57_F",1,1,2,4,0,NA,NA
"1642",23,"A58_F",1,1,2,5,0,NA,NA
"1643",23,"A59_F",1,1,2,2,0,NA,NA
"1644",23,"A60_F",1,1,2,3,0,NA,NA
"1645",23,"A61_F",1,1,2,1,0,NA,NA
"1646",23,"A62_F",1,1,2,1,0,NA,NA
"1647",23,"A63_F",1,1,2,3,0,NA,NA
"1648",23,"A64_F",1,1,2,4,0,NA,NA
"1649",23,"A65_F",1,1,2,2,0,NA,NA
"1650",23,"A66_F",1,1,2,4,0,NA,NA
"1651",23,"A67_F",1,1,2,4,0,NA,NA
"1652",23,"A68_F",1,1,2,4,0,NA,NA
"1653",23,"A69_F",1,1,2,1,0,NA,NA
"1654",23,"A70_F",1,1,2,1,0,NA,NA
"1655",23,"A71_F",1,1,2,6,0,NA,NA
"1656",23,"A72_F",1,1,2,2,0,NA,NA
"1657",24,"A1_T",1,1,2,6,1,NA,NA
"1658",24,"A2_T",1,1,2,6,1,NA,NA
"1659",24,"A3_T",1,1,2,6,1,NA,NA
"1660",24,"A4_T",1,1,2,2,1,NA,NA
"1661",24,"A5_T",1,1,2,1,1,NA,NA
"1662",24,"A6_T",1,1,2,4,1,NA,NA
"1663",24,"A7_T",1,1,2,2,1,NA,NA
"1664",24,"A8_T",1,1,2,6,1,NA,NA
"1665",24,"A9_T",1,1,2,6,1,NA,NA
"1666",24,"A10_T",1,1,2,3,1,NA,NA
"1667",24,"A11_T",1,1,2,5,1,NA,NA
"1668",24,"A12_T",1,1,2,6,1,NA,NA
"1669",24,"A13_T",1,1,2,6,1,NA,NA
"1670",24,"A14_T",1,1,2,6,1,NA,NA
"1671",24,"A15_T",1,1,2,6,1,NA,NA
"1672",24,"A16_T",1,1,2,6,1,NA,NA
"1673",24,"A17_T",1,1,2,6,1,NA,NA
"1674",24,"A18_T",1,1,2,6,1,NA,NA
"1675",24,"A19_F",1,1,2,2,1,NA,NA
"1676",24,"A20_F",1,1,2,6,1,NA,NA
"1677",24,"A21_F",1,1,2,6,1,NA,NA
"1678",24,"A22_F",1,1,2,6,1,NA,NA
"1679",24,"A23_F",1,1,2,3,1,NA,NA
"1680",24,"A24_F",1,1,2,6,1,NA,NA
"1681",24,"A25_F",1,1,2,6,1,NA,NA
"1682",24,"A26_F",1,1,2,6,1,NA,NA
"1683",24,"A27_F",1,1,2,6,1,NA,NA
"1684",24,"A28_F",1,1,2,6,1,NA,NA
"1685",24,"A29_F",1,1,2,4,1,NA,NA
"1686",24,"A30_F",1,1,2,6,1,NA,NA
"1687",24,"A31_F",1,1,2,6,1,NA,NA
"1688",24,"A32_F",1,1,2,6,1,NA,NA
"1689",24,"A33_F",1,1,2,6,1,NA,NA
"1690",24,"A34_F",1,1,2,6,1,NA,NA
"1691",24,"A35_F",1,1,2,6,1,NA,NA
"1692",24,"A36_F",1,1,2,1,1,NA,NA
"1693",24,"A37_T",1,1,2,2,0,NA,NA
"1694",24,"A38_T",1,1,2,4,0,NA,NA
"1695",24,"A39_T",1,1,2,2,0,NA,NA
"1696",24,"A40_T",1,1,2,3,0,NA,NA
"1697",24,"A41_T",1,1,2,4,0,NA,NA
"1698",24,"A42_T",1,1,2,4,0,NA,NA
"1699",24,"A43_T",1,1,2,1,0,NA,NA
"1700",24,"A44_T",1,1,2,4,0,NA,NA
"1701",24,"A45_T",1,1,2,2,0,NA,NA
"1702",24,"A46_T",1,1,2,3,0,NA,NA
"1703",24,"A47_T",1,1,2,6,0,NA,NA
"1704",24,"A48_T",1,1,2,2,0,NA,NA
"1705",24,"A49_T",1,1,2,2,0,NA,NA
"1706",24,"A50_T",1,1,2,2,0,NA,NA
"1707",24,"A51_T",1,1,2,4,0,NA,NA
"1708",24,"A52_T",1,1,2,5,0,NA,NA
"1709",24,"A53_T",1,1,2,3,0,NA,NA
"1710",24,"A54_T",1,1,2,5,0,NA,NA
"1711",24,"A55_F",1,1,2,2,0,NA,NA
"1712",24,"A56_F",1,1,2,4,0,NA,NA
"1713",24,"A57_F",1,1,2,3,0,NA,NA
"1714",24,"A58_F",1,1,2,2,0,NA,NA
"1715",24,"A59_F",1,1,2,3,0,NA,NA
"1716",24,"A60_F",1,1,2,3,0,NA,NA
"1717",24,"A61_F",1,1,2,1,0,NA,NA
"1718",24,"A62_F",1,1,2,3,0,NA,NA
"1719",24,"A63_F",1,1,2,3,0,NA,NA
"1720",24,"A64_F",1,1,2,3,0,NA,NA
"1721",24,"A65_F",1,1,2,2,0,NA,NA
"1722",24,"A66_F",1,1,2,4,0,NA,NA
"1723",24,"A67_F",1,1,2,1,0,NA,NA
"1724",24,"A68_F",1,1,2,6,0,NA,NA
"1725",24,"A69_F",1,1,2,3,0,NA,NA
"1726",24,"A70_F",1,1,2,4,0,NA,NA
"1727",24,"A71_F",1,1,2,2,0,NA,NA
"1728",24,"A72_F",1,1,2,5,0,NA,NA
"1729",25,"A1_T",1,1,1,4,1,NA,NA
"1730",25,"A2_T",1,1,1,3,1,NA,NA
"1731",25,"A3_T",1,1,1,2,1,NA,NA
"1732",25,"A4_T",1,1,1,4,1,NA,NA
"1733",25,"A5_T",1,1,1,4,1,NA,NA
"1734",25,"A6_T",1,1,1,4,1,NA,NA
"1735",25,"A7_T",1,1,1,4,1,NA,NA
"1736",25,"A8_T",1,1,1,3,1,NA,NA
"1737",25,"A9_T",1,1,1,2,1,NA,NA
"1738",25,"A10_T",1,1,1,3,1,NA,NA
"1739",25,"A11_T",1,1,1,4,1,NA,NA
"1740",25,"A12_T",1,1,1,3,1,NA,NA
"1741",25,"A13_T",1,1,1,4,1,NA,NA
"1742",25,"A14_T",1,1,1,5,1,NA,NA
"1743",25,"A15_T",1,1,1,2,1,NA,NA
"1744",25,"A16_T",1,1,1,2,1,NA,NA
"1745",25,"A17_T",1,1,1,3,1,NA,NA
"1746",25,"A18_T",1,1,1,5,1,NA,NA
"1747",25,"A19_F",1,1,1,3,1,NA,NA
"1748",25,"A20_F",1,1,1,3,1,NA,NA
"1749",25,"A21_F",1,1,1,4,1,NA,NA
"1750",25,"A22_F",1,1,1,4,1,NA,NA
"1751",25,"A23_F",1,1,1,2,1,NA,NA
"1752",25,"A24_F",1,1,1,2,1,NA,NA
"1753",25,"A25_F",1,1,1,2,1,NA,NA
"1754",25,"A26_F",1,1,1,3,1,NA,NA
"1755",25,"A27_F",1,1,1,3,1,NA,NA
"1756",25,"A28_F",1,1,1,2,1,NA,NA
"1757",25,"A29_F",1,1,1,3,1,NA,NA
"1758",25,"A30_F",1,1,1,4,1,NA,NA
"1759",25,"A31_F",1,1,1,3,1,NA,NA
"1760",25,"A32_F",1,1,1,5,1,NA,NA
"1761",25,"A33_F",1,1,1,2,1,NA,NA
"1762",25,"A34_F",1,1,1,4,1,NA,NA
"1763",25,"A35_F",1,1,1,3,1,NA,NA
"1764",25,"A36_F",1,1,1,1,1,NA,NA
"1765",25,"A37_T",1,1,1,3,0,NA,NA
"1766",25,"A38_T",1,1,1,3,0,NA,NA
"1767",25,"A39_T",1,1,1,3,0,NA,NA
"1768",25,"A40_T",1,1,1,3,0,NA,NA
"1769",25,"A41_T",1,1,1,4,0,NA,NA
"1770",25,"A42_T",1,1,1,4,0,NA,NA
"1771",25,"A43_T",1,1,1,3,0,NA,NA
"1772",25,"A44_T",1,1,1,4,0,NA,NA
"1773",25,"A45_T",1,1,1,5,0,NA,NA
"1774",25,"A46_T",1,1,1,4,0,NA,NA
"1775",25,"A47_T",1,1,1,6,0,NA,NA
"1776",25,"A48_T",1,1,1,5,0,NA,NA
"1777",25,"A49_T",1,1,1,5,0,NA,NA
"1778",25,"A50_T",1,1,1,3,0,NA,NA
"1779",25,"A51_T",1,1,1,2,0,NA,NA
"1780",25,"A52_T",1,1,1,4,0,NA,NA
"1781",25,"A53_T",1,1,1,5,0,NA,NA
"1782",25,"A54_T",1,1,1,4,0,NA,NA
"1783",25,"A55_F",1,1,1,3,0,NA,NA
"1784",25,"A56_F",1,1,1,4,0,NA,NA
"1785",25,"A57_F",1,1,1,4,0,NA,NA
"1786",25,"A58_F",1,1,1,4,0,NA,NA
"1787",25,"A59_F",1,1,1,3,0,NA,NA
"1788",25,"A60_F",1,1,1,3,0,NA,NA
"1789",25,"A61_F",1,1,1,2,0,NA,NA
"1790",25,"A62_F",1,1,1,3,0,NA,NA
"1791",25,"A63_F",1,1,1,4,0,NA,NA
"1792",25,"A64_F",1,1,1,3,0,NA,NA
"1793",25,"A65_F",1,1,1,3,0,NA,NA
"1794",25,"A66_F",1,1,1,3,0,NA,NA
"1795",25,"A67_F",1,1,1,4,0,NA,NA
"1796",25,"A68_F",1,1,1,4,0,NA,NA
"1797",25,"A69_F",1,1,1,5,0,NA,NA
"1798",25,"A70_F",1,1,1,2,0,NA,NA
"1799",25,"A71_F",1,1,1,3,0,NA,NA
"1800",25,"A72_F",1,1,1,2,0,NA,NA
"1801",26,"A1_T",1,1,2,3,0,NA,NA
"1802",26,"A2_T",1,1,2,5,0,NA,NA
"1803",26,"A3_T",1,1,2,4,0,NA,NA
"1804",26,"A4_T",1,1,2,5,0,NA,NA
"1805",26,"A5_T",1,1,2,2,0,NA,NA
"1806",26,"A6_T",1,1,2,3,0,NA,NA
"1807",26,"A7_T",1,1,2,3,0,NA,NA
"1808",26,"A8_T",1,1,2,5,0,NA,NA
"1809",26,"A9_T",1,1,2,2,0,NA,NA
"1810",26,"A10_T",1,1,2,3,0,NA,NA
"1811",26,"A11_T",1,1,2,5,0,NA,NA
"1812",26,"A12_T",1,1,2,4,0,NA,NA
"1813",26,"A13_T",1,1,2,5,0,NA,NA
"1814",26,"A14_T",1,1,2,6,0,NA,NA
"1815",26,"A15_T",1,1,2,4,0,NA,NA
"1816",26,"A16_T",1,1,2,4,0,NA,NA
"1817",26,"A17_T",1,1,2,3,0,NA,NA
"1818",26,"A18_T",1,1,2,1,0,NA,NA
"1819",26,"A19_F",1,1,2,5,0,NA,NA
"1820",26,"A20_F",1,1,2,4,0,NA,NA
"1821",26,"A21_F",1,1,2,4,0,NA,NA
"1822",26,"A22_F",1,1,2,5,0,NA,NA
"1823",26,"A23_F",1,1,2,3,0,NA,NA
"1824",26,"A24_F",1,1,2,2,0,NA,NA
"1825",26,"A25_F",1,1,2,5,0,NA,NA
"1826",26,"A26_F",1,1,2,4,0,NA,NA
"1827",26,"A27_F",1,1,2,4,0,NA,NA
"1828",26,"A28_F",1,1,2,4,0,NA,NA
"1829",26,"A29_F",1,1,2,1,0,NA,NA
"1830",26,"A30_F",1,1,2,5,0,NA,NA
"1831",26,"A31_F",1,1,2,6,0,NA,NA
"1832",26,"A32_F",1,1,2,6,0,NA,NA
"1833",26,"A33_F",1,1,2,2,0,NA,NA
"1834",26,"A34_F",1,1,2,3,0,NA,NA
"1835",26,"A35_F",1,1,2,3,0,NA,NA
"1836",26,"A36_F",1,1,2,5,0,NA,NA
"1837",26,"A37_T",1,1,2,6,1,NA,NA
"1838",26,"A38_T",1,1,2,1,1,NA,NA
"1839",26,"A39_T",1,1,2,5,1,NA,NA
"1840",26,"A40_T",1,1,2,2,1,NA,NA
"1841",26,"A41_T",1,1,2,6,1,NA,NA
"1842",26,"A42_T",1,1,2,3,1,NA,NA
"1843",26,"A43_T",1,1,2,5,1,NA,NA
"1844",26,"A44_T",1,1,2,6,1,NA,NA
"1845",26,"A45_T",1,1,2,4,1,NA,NA
"1846",26,"A46_T",1,1,2,5,1,NA,NA
"1847",26,"A47_T",1,1,2,3,1,NA,NA
"1848",26,"A48_T",1,1,2,6,1,NA,NA
"1849",26,"A49_T",1,1,2,6,1,NA,NA
"1850",26,"A50_T",1,1,2,5,1,NA,NA
"1851",26,"A51_T",1,1,2,5,1,NA,NA
"1852",26,"A52_T",1,1,2,6,1,NA,NA
"1853",26,"A53_T",1,1,2,6,1,NA,NA
"1854",26,"A54_T",1,1,2,2,1,NA,NA
"1855",26,"A55_F",1,1,2,1,1,NA,NA
"1856",26,"A56_F",1,1,2,1,1,NA,NA
"1857",26,"A57_F",1,1,2,6,1,NA,NA
"1858",26,"A58_F",1,1,2,6,1,NA,NA
"1859",26,"A59_F",1,1,2,5,1,NA,NA
"1860",26,"A60_F",1,1,2,6,1,NA,NA
"1861",26,"A61_F",1,1,2,2,1,NA,NA
"1862",26,"A62_F",1,1,2,5,1,NA,NA
"1863",26,"A63_F",1,1,2,4,1,NA,NA
"1864",26,"A64_F",1,1,2,3,1,NA,NA
"1865",26,"A65_F",1,1,2,4,1,NA,NA
"1866",26,"A66_F",1,1,2,4,1,NA,NA
"1867",26,"A67_F",1,1,2,6,1,NA,NA
"1868",26,"A68_F",1,1,2,4,1,NA,NA
"1869",26,"A69_F",1,1,2,4,1,NA,NA
"1870",26,"A70_F",1,1,2,4,1,NA,NA
"1871",26,"A71_F",1,1,2,6,1,NA,NA
"1872",26,"A72_F",1,1,2,6,1,NA,NA
"1873",27,"A1_T",1,1,2,3,0,NA,NA
"1874",27,"A2_T",1,1,2,4,0,NA,NA
"1875",27,"A3_T",1,1,2,3,0,NA,NA
"1876",27,"A4_T",1,1,2,3,0,NA,NA
"1877",27,"A5_T",1,1,2,1,0,NA,NA
"1878",27,"A6_T",1,1,2,3,0,NA,NA
"1879",27,"A7_T",1,1,2,2,0,NA,NA
"1880",27,"A8_T",1,1,2,4,0,NA,NA
"1881",27,"A9_T",1,1,2,4,0,NA,NA
"1882",27,"A10_T",1,1,2,4,0,NA,NA
"1883",27,"A11_T",1,1,2,4,0,NA,NA
"1884",27,"A12_T",1,1,2,6,0,NA,NA
"1885",27,"A13_T",1,1,2,4,0,NA,NA
"1886",27,"A14_T",1,1,2,2,0,NA,NA
"1887",27,"A15_T",1,1,2,2,0,NA,NA
"1888",27,"A16_T",1,1,2,2,0,NA,NA
"1889",27,"A17_T",1,1,2,2,0,NA,NA
"1890",27,"A18_T",1,1,2,6,0,NA,NA
"1891",27,"A19_F",1,1,2,3,0,NA,NA
"1892",27,"A20_F",1,1,2,3,0,NA,NA
"1893",27,"A21_F",1,1,2,4,0,NA,NA
"1894",27,"A22_F",1,1,2,3,0,NA,NA
"1895",27,"A23_F",1,1,2,2,0,NA,NA
"1896",27,"A24_F",1,1,2,1,0,NA,NA
"1897",27,"A25_F",1,1,2,3,0,NA,NA
"1898",27,"A26_F",1,1,2,4,0,NA,NA
"1899",27,"A27_F",1,1,2,6,0,NA,NA
"1900",27,"A28_F",1,1,2,3,0,NA,NA
"1901",27,"A29_F",1,1,2,5,0,NA,NA
"1902",27,"A30_F",1,1,2,5,0,NA,NA
"1903",27,"A31_F",1,1,2,1,0,NA,NA
"1904",27,"A32_F",1,1,2,4,0,NA,NA
"1905",27,"A33_F",1,1,2,4,0,NA,NA
"1906",27,"A34_F",1,1,2,3,0,NA,NA
"1907",27,"A35_F",1,1,2,4,0,NA,NA
"1908",27,"A36_F",1,1,2,2,0,NA,NA
"1909",27,"A37_T",1,1,2,4,1,NA,NA
"1910",27,"A38_T",1,1,2,6,1,NA,NA
"1911",27,"A39_T",1,1,2,2,1,NA,NA
"1912",27,"A40_T",1,1,2,2,1,NA,NA
"1913",27,"A41_T",1,1,2,5,1,NA,NA
"1914",27,"A42_T",1,1,2,6,1,NA,NA
"1915",27,"A43_T",1,1,2,3,1,NA,NA
"1916",27,"A44_T",1,1,2,6,1,NA,NA
"1917",27,"A45_T",1,1,2,6,1,NA,NA
"1918",27,"A46_T",1,1,2,3,1,NA,NA
"1919",27,"A47_T",1,1,2,6,1,NA,NA
"1920",27,"A48_T",1,1,2,3,1,NA,NA
"1921",27,"A49_T",1,1,2,4,1,NA,NA
"1922",27,"A50_T",1,1,2,2,1,NA,NA
"1923",27,"A51_T",1,1,2,6,1,NA,NA
"1924",27,"A52_T",1,1,2,6,1,NA,NA
"1925",27,"A53_T",1,1,2,6,1,NA,NA
"1926",27,"A54_T",1,1,2,4,1,NA,NA
"1927",27,"A55_F",1,1,2,6,1,NA,NA
"1928",27,"A56_F",1,1,2,6,1,NA,NA
"1929",27,"A57_F",1,1,2,5,1,NA,NA
"1930",27,"A58_F",1,1,2,3,1,NA,NA
"1931",27,"A59_F",1,1,2,2,1,NA,NA
"1932",27,"A60_F",1,1,2,4,1,NA,NA
"1933",27,"A61_F",1,1,2,1,1,NA,NA
"1934",27,"A62_F",1,1,2,1,1,NA,NA
"1935",27,"A63_F",1,1,2,3,1,NA,NA
"1936",27,"A64_F",1,1,2,4,1,NA,NA
"1937",27,"A65_F",1,1,2,3,1,NA,NA
"1938",27,"A66_F",1,1,2,4,1,NA,NA
"1939",27,"A67_F",1,1,2,2,1,NA,NA
"1940",27,"A68_F",1,1,2,6,1,NA,NA
"1941",27,"A69_F",1,1,2,5,1,NA,NA
"1942",27,"A70_F",1,1,2,6,1,NA,NA
"1943",27,"A71_F",1,1,2,6,1,NA,NA
"1944",27,"A72_F",1,1,2,2,1,NA,NA
"1945",28,"A1_T",1,1,1,6,1,NA,NA
"1946",28,"A2_T",1,1,1,6,1,NA,NA
"1947",28,"A3_T",1,1,1,6,1,NA,NA
"1948",28,"A4_T",1,1,1,6,1,NA,NA
"1949",28,"A5_T",1,1,1,6,1,NA,NA
"1950",28,"A6_T",1,1,1,6,1,NA,NA
"1951",28,"A7_T",1,1,1,4,1,NA,NA
"1952",28,"A8_T",1,1,1,3,1,NA,NA
"1953",28,"A9_T",1,1,1,4,1,NA,NA
"1954",28,"A10_T",1,1,1,3,1,NA,NA
"1955",28,"A11_T",1,1,1,4,1,NA,NA
"1956",28,"A12_T",1,1,1,4,1,NA,NA
"1957",28,"A13_T",1,1,1,5,1,NA,NA
"1958",28,"A14_T",1,1,1,4,1,NA,NA
"1959",28,"A15_T",1,1,1,6,1,NA,NA
"1960",28,"A16_T",1,1,1,6,1,NA,NA
"1961",28,"A17_T",1,1,1,6,1,NA,NA
"1962",28,"A18_T",1,1,1,4,1,NA,NA
"1963",28,"A19_F",1,1,1,3,1,NA,NA
"1964",28,"A20_F",1,1,1,3,1,NA,NA
"1965",28,"A21_F",1,1,1,4,1,NA,NA
"1966",28,"A22_F",1,1,1,4,1,NA,NA
"1967",28,"A23_F",1,1,1,2,1,NA,NA
"1968",28,"A24_F",1,1,1,6,1,NA,NA
"1969",28,"A25_F",1,1,1,3,1,NA,NA
"1970",28,"A26_F",1,1,1,3,1,NA,NA
"1971",28,"A27_F",1,1,1,1,1,NA,NA
"1972",28,"A28_F",1,1,1,4,1,NA,NA
"1973",28,"A29_F",1,1,1,6,1,NA,NA
"1974",28,"A30_F",1,1,1,3,1,NA,NA
"1975",28,"A31_F",1,1,1,3,1,NA,NA
"1976",28,"A32_F",1,1,1,4,1,NA,NA
"1977",28,"A33_F",1,1,1,1,1,NA,NA
"1978",28,"A34_F",1,1,1,5,1,NA,NA
"1979",28,"A35_F",1,1,1,6,1,NA,NA
"1980",28,"A36_F",1,1,1,1,1,NA,NA
"1981",28,"A37_T",1,1,1,4,0,NA,NA
"1982",28,"A38_T",1,1,1,4,0,NA,NA
"1983",28,"A39_T",1,1,1,5,0,NA,NA
"1984",28,"A40_T",1,1,1,4,0,NA,NA
"1985",28,"A41_T",1,1,1,4,0,NA,NA
"1986",28,"A42_T",1,1,1,4,0,NA,NA
"1987",28,"A43_T",1,1,1,3,0,NA,NA
"1988",28,"A44_T",1,1,1,3,0,NA,NA
"1989",28,"A45_T",1,1,1,6,0,NA,NA
"1990",28,"A46_T",1,1,1,4,0,NA,NA
"1991",28,"A47_T",1,1,1,1,0,NA,NA
"1992",28,"A48_T",1,1,1,4,0,NA,NA
"1993",28,"A49_T",1,1,1,6,0,NA,NA
"1994",28,"A50_T",1,1,1,3,0,NA,NA
"1995",28,"A51_T",1,1,1,1,0,NA,NA
"1996",28,"A52_T",1,1,1,5,0,NA,NA
"1997",28,"A53_T",1,1,1,1,0,NA,NA
"1998",28,"A54_T",1,1,1,4,0,NA,NA
"1999",28,"A55_F",1,1,1,1,0,NA,NA
"2000",28,"A56_F",1,1,1,3,0,NA,NA
"2001",28,"A57_F",1,1,1,3,0,NA,NA
"2002",28,"A58_F",1,1,1,3,0,NA,NA
"2003",28,"A59_F",1,1,1,3,0,NA,NA
"2004",28,"A60_F",1,1,1,3,0,NA,NA
"2005",28,"A61_F",1,1,1,1,0,NA,NA
"2006",28,"A62_F",1,1,1,3,0,NA,NA
"2007",28,"A63_F",1,1,1,5,0,NA,NA
"2008",28,"A64_F",1,1,1,1,0,NA,NA
"2009",28,"A65_F",1,1,1,4,0,NA,NA
"2010",28,"A66_F",1,1,1,3,0,NA,NA
"2011",28,"A67_F",1,1,1,1,0,NA,NA
"2012",28,"A68_F",1,1,1,4,0,NA,NA
"2013",28,"A69_F",1,1,1,4,0,NA,NA
"2014",28,"A70_F",1,1,1,1,0,NA,NA
"2015",28,"A71_F",1,1,1,6,0,NA,NA
"2016",28,"A72_F",1,1,1,3,0,NA,NA
"2017",29,"A1_T",1,1,2,1,0,NA,NA
"2018",29,"A2_T",1,1,2,2,0,NA,NA
"2019",29,"A3_T",1,1,2,3,0,NA,NA
"2020",29,"A4_T",1,1,2,2,0,NA,NA
"2021",29,"A5_T",1,1,2,3,0,NA,NA
"2022",29,"A6_T",1,1,2,1,0,NA,NA
"2023",29,"A7_T",1,1,2,1,0,NA,NA
"2024",29,"A8_T",1,1,2,5,0,NA,NA
"2025",29,"A9_T",1,1,2,4,0,NA,NA
"2026",29,"A10_T",1,1,2,4,0,NA,NA
"2027",29,"A11_T",1,1,2,6,0,NA,NA
"2028",29,"A12_T",1,1,2,3,0,NA,NA
"2029",29,"A13_T",1,1,2,4,0,NA,NA
"2030",29,"A14_T",1,1,2,3,0,NA,NA
"2031",29,"A15_T",1,1,2,5,0,NA,NA
"2032",29,"A16_T",1,1,2,1,0,NA,NA
"2033",29,"A17_T",1,1,2,5,0,NA,NA
"2034",29,"A18_T",1,1,2,6,0,NA,NA
"2035",29,"A19_F",1,1,2,2,0,NA,NA
"2036",29,"A20_F",1,1,2,3,0,NA,NA
"2037",29,"A21_F",1,1,2,4,0,NA,NA
"2038",29,"A22_F",1,1,2,5,0,NA,NA
"2039",29,"A23_F",1,1,2,5,0,NA,NA
"2040",29,"A24_F",1,1,2,2,0,NA,NA
"2041",29,"A25_F",1,1,2,5,0,NA,NA
"2042",29,"A26_F",1,1,2,4,0,NA,NA
"2043",29,"A27_F",1,1,2,5,0,NA,NA
"2044",29,"A28_F",1,1,2,5,0,NA,NA
"2045",29,"A29_F",1,1,2,2,0,NA,NA
"2046",29,"A30_F",1,1,2,4,0,NA,NA
"2047",29,"A31_F",1,1,2,5,0,NA,NA
"2048",29,"A32_F",1,1,2,5,0,NA,NA
"2049",29,"A33_F",1,1,2,5,0,NA,NA
"2050",29,"A34_F",1,1,2,4,0,NA,NA
"2051",29,"A35_F",1,1,2,4,0,NA,NA
"2052",29,"A36_F",1,1,2,4,0,NA,NA
"2053",29,"A37_T",1,1,2,5,1,NA,NA
"2054",29,"A38_T",1,1,2,3,1,NA,NA
"2055",29,"A39_T",1,1,2,6,1,NA,NA
"2056",29,"A40_T",1,1,2,2,1,NA,NA
"2057",29,"A41_T",1,1,2,5,1,NA,NA
"2058",29,"A42_T",1,1,2,4,1,NA,NA
"2059",29,"A43_T",1,1,2,6,1,NA,NA
"2060",29,"A44_T",1,1,2,4,1,NA,NA
"2061",29,"A45_T",1,1,2,4,1,NA,NA
"2062",29,"A46_T",1,1,2,2,1,NA,NA
"2063",29,"A47_T",1,1,2,2,1,NA,NA
"2064",29,"A48_T",1,1,2,6,1,NA,NA
"2065",29,"A49_T",1,1,2,2,1,NA,NA
"2066",29,"A50_T",1,1,2,5,1,NA,NA
"2067",29,"A51_T",1,1,2,3,1,NA,NA
"2068",29,"A52_T",1,1,2,6,1,NA,NA
"2069",29,"A53_T",1,1,2,6,1,NA,NA
"2070",29,"A54_T",1,1,2,6,1,NA,NA
"2071",29,"A55_F",1,1,2,5,1,NA,NA
"2072",29,"A56_F",1,1,2,2,1,NA,NA
"2073",29,"A57_F",1,1,2,4,1,NA,NA
"2074",29,"A58_F",1,1,2,4,1,NA,NA
"2075",29,"A59_F",1,1,2,6,1,NA,NA
"2076",29,"A60_F",1,1,2,6,1,NA,NA
"2077",29,"A61_F",1,1,2,6,1,NA,NA
"2078",29,"A62_F",1,1,2,3,1,NA,NA
"2079",29,"A63_F",1,1,2,4,1,NA,NA
"2080",29,"A64_F",1,1,2,4,1,NA,NA
"2081",29,"A65_F",1,1,2,4,1,NA,NA
"2082",29,"A66_F",1,1,2,6,1,NA,NA
"2083",29,"A67_F",1,1,2,4,1,NA,NA
"2084",29,"A68_F",1,1,2,2,1,NA,NA
"2085",29,"A69_F",1,1,2,4,1,NA,NA
"2086",29,"A70_F",1,1,2,5,1,NA,NA
"2087",29,"A71_F",1,1,2,3,1,NA,NA
"2088",29,"A72_F",1,1,2,1,1,NA,NA
"2089",30,"A1_T",1,1,1,3,0,NA,NA
"2090",30,"A2_T",1,1,1,5,0,NA,NA
"2091",30,"A3_T",1,1,1,3,0,NA,NA
"2092",30,"A4_T",1,1,1,4,0,NA,NA
"2093",30,"A5_T",1,1,1,3,0,NA,NA
"2094",30,"A6_T",1,1,1,2,0,NA,NA
"2095",30,"A7_T",1,1,1,4,0,NA,NA
"2096",30,"A8_T",1,1,1,4,0,NA,NA
"2097",30,"A9_T",1,1,1,4,0,NA,NA
"2098",30,"A10_T",1,1,1,4,0,NA,NA
"2099",30,"A11_T",1,1,1,2,0,NA,NA
"2100",30,"A12_T",1,1,1,4,0,NA,NA
"2101",30,"A13_T",1,1,1,2,0,NA,NA
"2102",30,"A14_T",1,1,1,2,0,NA,NA
"2103",30,"A15_T",1,1,1,4,0,NA,NA
"2104",30,"A16_T",1,1,1,4,0,NA,NA
"2105",30,"A17_T",1,1,1,4,0,NA,NA
"2106",30,"A18_T",1,1,1,4,0,NA,NA
"2107",30,"A19_F",1,1,1,3,0,NA,NA
"2108",30,"A20_F",1,1,1,2,0,NA,NA
"2109",30,"A21_F",1,1,1,2,0,NA,NA
"2110",30,"A22_F",1,1,1,4,0,NA,NA
"2111",30,"A23_F",1,1,1,3,0,NA,NA
"2112",30,"A24_F",1,1,1,5,0,NA,NA
"2113",30,"A25_F",1,1,1,3,0,NA,NA
"2114",30,"A26_F",1,1,1,4,0,NA,NA
"2115",30,"A27_F",1,1,1,4,0,NA,NA
"2116",30,"A28_F",1,1,1,6,0,NA,NA
"2117",30,"A29_F",1,1,1,6,0,NA,NA
"2118",30,"A30_F",1,1,1,4,0,NA,NA
"2119",30,"A31_F",1,1,1,3,0,NA,NA
"2120",30,"A32_F",1,1,1,4,0,NA,NA
"2121",30,"A33_F",1,1,1,4,0,NA,NA
"2122",30,"A34_F",1,1,1,2,0,NA,NA
"2123",30,"A35_F",1,1,1,4,0,NA,NA
"2124",30,"A36_F",1,1,1,4,0,NA,NA
"2125",30,"A37_T",1,1,1,4,1,NA,NA
"2126",30,"A38_T",1,1,1,1,1,NA,NA
"2127",30,"A39_T",1,1,1,4,1,NA,NA
"2128",30,"A40_T",1,1,1,5,1,NA,NA
"2129",30,"A41_T",1,1,1,2,1,NA,NA
"2130",30,"A42_T",1,1,1,4,1,NA,NA
"2131",30,"A43_T",1,1,1,6,1,NA,NA
"2132",30,"A44_T",1,1,1,4,1,NA,NA
"2133",30,"A45_T",1,1,1,6,1,NA,NA
"2134",30,"A46_T",1,1,1,5,1,NA,NA
"2135",30,"A47_T",1,1,1,1,1,NA,NA
"2136",30,"A48_T",1,1,1,6,1,NA,NA
"2137",30,"A49_T",1,1,1,4,1,NA,NA
"2138",30,"A50_T",1,1,1,2,1,NA,NA
"2139",30,"A51_T",1,1,1,4,1,NA,NA
"2140",30,"A52_T",1,1,1,3,1,NA,NA
"2141",30,"A53_T",1,1,1,5,1,NA,NA
"2142",30,"A54_T",1,1,1,4,1,NA,NA
"2143",30,"A55_F",1,1,1,5,1,NA,NA
"2144",30,"A56_F",1,1,1,4,1,NA,NA
"2145",30,"A57_F",1,1,1,4,1,NA,NA
"2146",30,"A58_F",1,1,1,1,1,NA,NA
"2147",30,"A59_F",1,1,1,2,1,NA,NA
"2148",30,"A60_F",1,1,1,4,1,NA,NA
"2149",30,"A61_F",1,1,1,5,1,NA,NA
"2150",30,"A62_F",1,1,1,4,1,NA,NA
"2151",30,"A63_F",1,1,1,4,1,NA,NA
"2152",30,"A64_F",1,1,1,2,1,NA,NA
"2153",30,"A65_F",1,1,1,4,1,NA,NA
"2154",30,"A66_F",1,1,1,5,1,NA,NA
"2155",30,"A67_F",1,1,1,4,1,NA,NA
"2156",30,"A68_F",1,1,1,6,1,NA,NA
"2157",30,"A69_F",1,1,1,5,1,NA,NA
"2158",30,"A70_F",1,1,1,5,1,NA,NA
"2159",30,"A71_F",1,1,1,6,1,NA,NA
"2160",30,"A72_F",1,1,1,5,1,NA,NA
"2161",31,"A1_T",1,1,2,5,1,NA,NA
"2162",31,"A2_T",1,1,2,6,1,NA,NA
"2163",31,"A3_T",1,1,2,6,1,NA,NA
"2164",31,"A4_T",1,1,2,3,1,NA,NA
"2165",31,"A5_T",1,1,2,6,1,NA,NA
"2166",31,"A6_T",1,1,2,6,1,NA,NA
"2167",31,"A7_T",1,1,2,6,1,NA,NA
"2168",31,"A8_T",1,1,2,5,1,NA,NA
"2169",31,"A9_T",1,1,2,3,1,NA,NA
"2170",31,"A10_T",1,1,2,6,1,NA,NA
"2171",31,"A11_T",1,1,2,6,1,NA,NA
"2172",31,"A12_T",1,1,2,6,1,NA,NA
"2173",31,"A13_T",1,1,2,6,1,NA,NA
"2174",31,"A14_T",1,1,2,5,1,NA,NA
"2175",31,"A15_T",1,1,2,2,1,NA,NA
"2176",31,"A16_T",1,1,2,5,1,NA,NA
"2177",31,"A17_T",1,1,2,6,1,NA,NA
"2178",31,"A18_T",1,1,2,2,1,NA,NA
"2179",31,"A19_F",1,1,2,6,1,NA,NA
"2180",31,"A20_F",1,1,2,6,1,NA,NA
"2181",31,"A21_F",1,1,2,4,1,NA,NA
"2182",31,"A22_F",1,1,2,6,1,NA,NA
"2183",31,"A23_F",1,1,2,1,1,NA,NA
"2184",31,"A24_F",1,1,2,5,1,NA,NA
"2185",31,"A25_F",1,1,2,3,1,NA,NA
"2186",31,"A26_F",1,1,2,6,1,NA,NA
"2187",31,"A27_F",1,1,2,3,1,NA,NA
"2188",31,"A28_F",1,1,2,6,1,NA,NA
"2189",31,"A29_F",1,1,2,6,1,NA,NA
"2190",31,"A30_F",1,1,2,6,1,NA,NA
"2191",31,"A31_F",1,1,2,6,1,NA,NA
"2192",31,"A32_F",1,1,2,6,1,NA,NA
"2193",31,"A33_F",1,1,2,6,1,NA,NA
"2194",31,"A34_F",1,1,2,6,1,NA,NA
"2195",31,"A35_F",1,1,2,6,1,NA,NA
"2196",31,"A36_F",1,1,2,1,1,NA,NA
"2197",31,"A37_T",1,1,2,2,0,NA,NA
"2198",31,"A38_T",1,1,2,3,0,NA,NA
"2199",31,"A39_T",1,1,2,1,0,NA,NA
"2200",31,"A40_T",1,1,2,5,0,NA,NA
"2201",31,"A41_T",1,1,2,1,0,NA,NA
"2202",31,"A42_T",1,1,2,4,0,NA,NA
"2203",31,"A43_T",1,1,2,5,0,NA,NA
"2204",31,"A44_T",1,1,2,6,0,NA,NA
"2205",31,"A45_T",1,1,2,1,0,NA,NA
"2206",31,"A46_T",1,1,2,3,0,NA,NA
"2207",31,"A47_T",1,1,2,6,0,NA,NA
"2208",31,"A48_T",1,1,2,4,0,NA,NA
"2209",31,"A49_T",1,1,2,3,0,NA,NA
"2210",31,"A50_T",1,1,2,5,0,NA,NA
"2211",31,"A51_T",1,1,2,5,0,NA,NA
"2212",31,"A52_T",1,1,2,3,0,NA,NA
"2213",31,"A53_T",1,1,2,4,0,NA,NA
"2214",31,"A54_T",1,1,2,4,0,NA,NA
"2215",31,"A55_F",1,1,2,3,0,NA,NA
"2216",31,"A56_F",1,1,2,3,0,NA,NA
"2217",31,"A57_F",1,1,2,1,0,NA,NA
"2218",31,"A58_F",1,1,2,1,0,NA,NA
"2219",31,"A59_F",1,1,2,5,0,NA,NA
"2220",31,"A60_F",1,1,2,1,0,NA,NA
"2221",31,"A61_F",1,1,2,3,0,NA,NA
"2222",31,"A62_F",1,1,2,3,0,NA,NA
"2223",31,"A63_F",1,1,2,4,0,NA,NA
"2224",31,"A64_F",1,1,2,3,0,NA,NA
"2225",31,"A65_F",1,1,2,4,0,NA,NA
"2226",31,"A66_F",1,1,2,4,0,NA,NA
"2227",31,"A67_F",1,1,2,1,0,NA,NA
"2228",31,"A68_F",1,1,2,2,0,NA,NA
"2229",31,"A69_F",1,1,2,4,0,NA,NA
"2230",31,"A70_F",1,1,2,3,0,NA,NA
"2231",31,"A71_F",1,1,2,2,0,NA,NA
"2232",31,"A72_F",1,1,2,3,0,NA,NA
"2233",32,"A1_T",1,1,1,5,0,NA,NA
"2234",32,"A2_T",1,1,1,4,0,NA,NA
"2235",32,"A3_T",1,1,1,5,0,NA,NA
"2236",32,"A4_T",1,1,1,3,0,NA,NA
"2237",32,"A5_T",1,1,1,4,0,NA,NA
"2238",32,"A6_T",1,1,1,3,0,NA,NA
"2239",32,"A7_T",1,1,1,4,0,NA,NA
"2240",32,"A8_T",1,1,1,6,0,NA,NA
"2241",32,"A9_T",1,1,1,4,0,NA,NA
"2242",32,"A10_T",1,1,1,3,0,NA,NA
"2243",32,"A11_T",1,1,1,3,0,NA,NA
"2244",32,"A12_T",1,1,1,4,0,NA,NA
"2245",32,"A13_T",1,1,1,4,0,NA,NA
"2246",32,"A14_T",1,1,1,5,0,NA,NA
"2247",32,"A15_T",1,1,1,5,0,NA,NA
"2248",32,"A16_T",1,1,1,6,0,NA,NA
"2249",32,"A17_T",1,1,1,3,0,NA,NA
"2250",32,"A18_T",1,1,1,5,0,NA,NA
"2251",32,"A19_F",1,1,1,3,0,NA,NA
"2252",32,"A20_F",1,1,1,5,0,NA,NA
"2253",32,"A21_F",1,1,1,4,0,NA,NA
"2254",32,"A22_F",1,1,1,4,0,NA,NA
"2255",32,"A23_F",1,1,1,3,0,NA,NA
"2256",32,"A24_F",1,1,1,1,0,NA,NA
"2257",32,"A25_F",1,1,1,1,0,NA,NA
"2258",32,"A26_F",1,1,1,5,0,NA,NA
"2259",32,"A27_F",1,1,1,1,0,NA,NA
"2260",32,"A28_F",1,1,1,4,0,NA,NA
"2261",32,"A29_F",1,1,1,4,0,NA,NA
"2262",32,"A30_F",1,1,1,3,0,NA,NA
"2263",32,"A31_F",1,1,1,4,0,NA,NA
"2264",32,"A32_F",1,1,1,4,0,NA,NA
"2265",32,"A33_F",1,1,1,4,0,NA,NA
"2266",32,"A34_F",1,1,1,4,0,NA,NA
"2267",32,"A35_F",1,1,1,4,0,NA,NA
"2268",32,"A36_F",1,1,1,1,0,NA,NA
"2269",32,"A37_T",1,1,1,5,1,NA,NA
"2270",32,"A38_T",1,1,1,6,1,NA,NA
"2271",32,"A39_T",1,1,1,6,1,NA,NA
"2272",32,"A40_T",1,1,1,5,1,NA,NA
"2273",32,"A41_T",1,1,1,6,1,NA,NA
"2274",32,"A42_T",1,1,1,5,1,NA,NA
"2275",32,"A43_T",1,1,1,6,1,NA,NA
"2276",32,"A44_T",1,1,1,2,1,NA,NA
"2277",32,"A45_T",1,1,1,6,1,NA,NA
"2278",32,"A46_T",1,1,1,5,1,NA,NA
"2279",32,"A47_T",1,1,1,6,1,NA,NA
"2280",32,"A48_T",1,1,1,6,1,NA,NA
"2281",32,"A49_T",1,1,1,6,1,NA,NA
"2282",32,"A50_T",1,1,1,6,1,NA,NA
"2283",32,"A51_T",1,1,1,5,1,NA,NA
"2284",32,"A52_T",1,1,1,5,1,NA,NA
"2285",32,"A53_T",1,1,1,6,1,NA,NA
"2286",32,"A54_T",1,1,1,5,1,NA,NA
"2287",32,"A55_F",1,1,1,4,1,NA,NA
"2288",32,"A56_F",1,1,1,6,1,NA,NA
"2289",32,"A57_F",1,1,1,6,1,NA,NA
"2290",32,"A58_F",1,1,1,6,1,NA,NA
"2291",32,"A59_F",1,1,1,6,1,NA,NA
"2292",32,"A60_F",1,1,1,5,1,NA,NA
"2293",32,"A61_F",1,1,1,6,1,NA,NA
"2294",32,"A62_F",1,1,1,3,1,NA,NA
"2295",32,"A63_F",1,1,1,2,1,NA,NA
"2296",32,"A64_F",1,1,1,5,1,NA,NA
"2297",32,"A65_F",1,1,1,6,1,NA,NA
"2298",32,"A66_F",1,1,1,6,1,NA,NA
"2299",32,"A67_F",1,1,1,3,1,NA,NA
"2300",32,"A68_F",1,1,1,4,1,NA,NA
"2301",32,"A69_F",1,1,1,6,1,NA,NA
"2302",32,"A70_F",1,1,1,6,1,NA,NA
"2303",32,"A71_F",1,1,1,6,1,NA,NA
"2304",32,"A72_F",1,1,1,4,1,NA,NA
"2305",33,"A1_T",1,1,1,3,1,NA,NA
"2306",33,"A2_T",1,1,1,5,1,NA,NA
"2307",33,"A3_T",1,1,1,1,1,NA,NA
"2308",33,"A4_T",1,1,1,5,1,NA,NA
"2309",33,"A5_T",1,1,1,5,1,NA,NA
"2310",33,"A6_T",1,1,1,3,1,NA,NA
"2311",33,"A7_T",1,1,1,3,1,NA,NA
"2312",33,"A8_T",1,1,1,5,1,NA,NA
"2313",33,"A9_T",1,1,1,4,1,NA,NA
"2314",33,"A10_T",1,1,1,2,1,NA,NA
"2315",33,"A11_T",1,1,1,4,1,NA,NA
"2316",33,"A12_T",1,1,1,5,1,NA,NA
"2317",33,"A13_T",1,1,1,4,1,NA,NA
"2318",33,"A14_T",1,1,1,2,1,NA,NA
"2319",33,"A15_T",1,1,1,3,1,NA,NA
"2320",33,"A16_T",1,1,1,6,1,NA,NA
"2321",33,"A17_T",1,1,1,3,1,NA,NA
"2322",33,"A18_T",1,1,1,5,1,NA,NA
"2323",33,"A19_F",1,1,1,3,1,NA,NA
"2324",33,"A20_F",1,1,1,2,1,NA,NA
"2325",33,"A21_F",1,1,1,3,1,NA,NA
"2326",33,"A22_F",1,1,1,3,1,NA,NA
"2327",33,"A23_F",1,1,1,2,1,NA,NA
"2328",33,"A24_F",1,1,1,1,1,NA,NA
"2329",33,"A25_F",1,1,1,3,1,NA,NA
"2330",33,"A26_F",1,1,1,2,1,NA,NA
"2331",33,"A27_F",1,1,1,4,1,NA,NA
"2332",33,"A28_F",1,1,1,6,1,NA,NA
"2333",33,"A29_F",1,1,1,2,1,NA,NA
"2334",33,"A30_F",1,1,1,2,1,NA,NA
"2335",33,"A31_F",1,1,1,6,1,NA,NA
"2336",33,"A32_F",1,1,1,2,1,NA,NA
"2337",33,"A33_F",1,1,1,3,1,NA,NA
"2338",33,"A34_F",1,1,1,6,1,NA,NA
"2339",33,"A35_F",1,1,1,5,1,NA,NA
"2340",33,"A36_F",1,1,1,3,1,NA,NA
"2341",33,"A37_T",1,1,1,3,0,NA,NA
"2342",33,"A38_T",1,1,1,4,0,NA,NA
"2343",33,"A39_T",1,1,1,4,0,NA,NA
"2344",33,"A40_T",1,1,1,4,0,NA,NA
"2345",33,"A41_T",1,1,1,3,0,NA,NA
"2346",33,"A42_T",1,1,1,5,0,NA,NA
"2347",33,"A43_T",1,1,1,3,0,NA,NA
"2348",33,"A44_T",1,1,1,3,0,NA,NA
"2349",33,"A45_T",1,1,1,4,0,NA,NA
"2350",33,"A46_T",1,1,1,3,0,NA,NA
"2351",33,"A47_T",1,1,1,3,0,NA,NA
"2352",33,"A48_T",1,1,1,3,0,NA,NA
"2353",33,"A49_T",1,1,1,5,0,NA,NA
"2354",33,"A50_T",1,1,1,3,0,NA,NA
"2355",33,"A51_T",1,1,1,3,0,NA,NA
"2356",33,"A52_T",1,1,1,4,0,NA,NA
"2357",33,"A53_T",1,1,1,4,0,NA,NA
"2358",33,"A54_T",1,1,1,5,0,NA,NA
"2359",33,"A55_F",1,1,1,3,0,NA,NA
"2360",33,"A56_F",1,1,1,2,0,NA,NA
"2361",33,"A57_F",1,1,1,4,0,NA,NA
"2362",33,"A58_F",1,1,1,4,0,NA,NA
"2363",33,"A59_F",1,1,1,2,0,NA,NA
"2364",33,"A60_F",1,1,1,5,0,NA,NA
"2365",33,"A61_F",1,1,1,4,0,NA,NA
"2366",33,"A62_F",1,1,1,4,0,NA,NA
"2367",33,"A63_F",1,1,1,4,0,NA,NA
"2368",33,"A64_F",1,1,1,3,0,NA,NA
"2369",33,"A65_F",1,1,1,3,0,NA,NA
"2370",33,"A66_F",1,1,1,3,0,NA,NA
"2371",33,"A67_F",1,1,1,5,0,NA,NA
"2372",33,"A68_F",1,1,1,4,0,NA,NA
"2373",33,"A69_F",1,1,1,5,0,NA,NA
"2374",33,"A70_F",1,1,1,4,0,NA,NA
"2375",33,"A71_F",1,1,1,2,0,NA,NA
"2376",33,"A72_F",1,1,1,4,0,NA,NA
"2377",34,"A1_T",1,1,2,6,1,NA,NA
"2378",34,"A2_T",1,1,2,1,1,NA,NA
"2379",34,"A3_T",1,1,2,1,1,NA,NA
"2380",34,"A4_T",1,1,2,1,1,NA,NA
"2381",34,"A5_T",1,1,2,6,1,NA,NA
"2382",34,"A6_T",1,1,2,6,1,NA,NA
"2383",34,"A7_T",1,1,2,6,1,NA,NA
"2384",34,"A8_T",1,1,2,1,1,NA,NA
"2385",34,"A9_T",1,1,2,6,1,NA,NA
"2386",34,"A10_T",1,1,2,6,1,NA,NA
"2387",34,"A11_T",1,1,2,6,1,NA,NA
"2388",34,"A12_T",1,1,2,6,1,NA,NA
"2389",34,"A13_T",1,1,2,6,1,NA,NA
"2390",34,"A14_T",1,1,2,6,1,NA,NA
"2391",34,"A15_T",1,1,2,6,1,NA,NA
"2392",34,"A16_T",1,1,2,6,1,NA,NA
"2393",34,"A17_T",1,1,2,1,1,NA,NA
"2394",34,"A18_T",1,1,2,1,1,NA,NA
"2395",34,"A19_F",1,1,2,6,1,NA,NA
"2396",34,"A20_F",1,1,2,6,1,NA,NA
"2397",34,"A21_F",1,1,2,6,1,NA,NA
"2398",34,"A22_F",1,1,2,6,1,NA,NA
"2399",34,"A23_F",1,1,2,1,1,NA,NA
"2400",34,"A24_F",1,1,2,6,1,NA,NA
"2401",34,"A25_F",1,1,2,1,1,NA,NA
"2402",34,"A26_F",1,1,2,1,1,NA,NA
"2403",34,"A27_F",1,1,2,1,1,NA,NA
"2404",34,"A28_F",1,1,2,6,1,NA,NA
"2405",34,"A29_F",1,1,2,1,1,NA,NA
"2406",34,"A30_F",1,1,2,1,1,NA,NA
"2407",34,"A31_F",1,1,2,6,1,NA,NA
"2408",34,"A32_F",1,1,2,1,1,NA,NA
"2409",34,"A33_F",1,1,2,6,1,NA,NA
"2410",34,"A34_F",1,1,2,1,1,NA,NA
"2411",34,"A35_F",1,1,2,1,1,NA,NA
"2412",34,"A36_F",1,1,2,1,1,NA,NA
"2413",34,"A37_T",1,1,2,1,0,NA,NA
"2414",34,"A38_T",1,1,2,1,0,NA,NA
"2415",34,"A39_T",1,1,2,1,0,NA,NA
"2416",34,"A40_T",1,1,2,1,0,NA,NA
"2417",34,"A41_T",1,1,2,1,0,NA,NA
"2418",34,"A42_T",1,1,2,1,0,NA,NA
"2419",34,"A43_T",1,1,2,1,0,NA,NA
"2420",34,"A44_T",1,1,2,6,0,NA,NA
"2421",34,"A45_T",1,1,2,1,0,NA,NA
"2422",34,"A46_T",1,1,2,2,0,NA,NA
"2423",34,"A47_T",1,1,2,1,0,NA,NA
"2424",34,"A48_T",1,1,2,6,0,NA,NA
"2425",34,"A49_T",1,1,2,1,0,NA,NA
"2426",34,"A50_T",1,1,2,1,0,NA,NA
"2427",34,"A51_T",1,1,2,1,0,NA,NA
"2428",34,"A52_T",1,1,2,1,0,NA,NA
"2429",34,"A53_T",1,1,2,1,0,NA,NA
"2430",34,"A54_T",1,1,2,6,0,NA,NA
"2431",34,"A55_F",1,1,2,1,0,NA,NA
"2432",34,"A56_F",1,1,2,1,0,NA,NA
"2433",34,"A57_F",1,1,2,1,0,NA,NA
"2434",34,"A58_F",1,1,2,1,0,NA,NA
"2435",34,"A59_F",1,1,2,6,0,NA,NA
"2436",34,"A60_F",1,1,2,1,0,NA,NA
"2437",34,"A61_F",1,1,2,1,0,NA,NA
"2438",34,"A62_F",1,1,2,1,0,NA,NA
"2439",34,"A63_F",1,1,2,6,0,NA,NA
"2440",34,"A64_F",1,1,2,1,0,NA,NA
"2441",34,"A65_F",1,1,2,1,0,NA,NA
"2442",34,"A66_F",1,1,2,1,0,NA,NA
"2443",34,"A67_F",1,1,2,6,0,NA,NA
"2444",34,"A68_F",1,1,2,1,0,NA,NA
"2445",34,"A69_F",1,1,2,1,0,NA,NA
"2446",34,"A70_F",1,1,2,1,0,NA,NA
"2447",34,"A71_F",1,1,2,1,0,NA,NA
"2448",34,"A72_F",1,1,2,1,0,NA,NA
"2449",35,"A1_T",1,1,1,3,1,NA,NA
"2450",35,"A2_T",1,1,1,6,1,NA,NA
"2451",35,"A3_T",1,1,1,1,1,NA,NA
"2452",35,"A4_T",1,1,1,3,1,NA,NA
"2453",35,"A5_T",1,1,1,1,1,NA,NA
"2454",35,"A6_T",1,1,1,5,1,NA,NA
"2455",35,"A7_T",1,1,1,3,1,NA,NA
"2456",35,"A8_T",1,1,1,4,1,NA,NA
"2457",35,"A9_T",1,1,1,3,1,NA,NA
"2458",35,"A10_T",1,1,1,6,1,NA,NA
"2459",35,"A11_T",1,1,1,4,1,NA,NA
"2460",35,"A12_T",1,1,1,5,1,NA,NA
"2461",35,"A13_T",1,1,1,3,1,NA,NA
"2462",35,"A14_T",1,1,1,1,1,NA,NA
"2463",35,"A15_T",1,1,1,5,1,NA,NA
"2464",35,"A16_T",1,1,1,4,1,NA,NA
"2465",35,"A17_T",1,1,1,6,1,NA,NA
"2466",35,"A18_T",1,1,1,2,1,NA,NA
"2467",35,"A19_F",1,1,1,4,1,NA,NA
"2468",35,"A20_F",1,1,1,6,1,NA,NA
"2469",35,"A21_F",1,1,1,4,1,NA,NA
"2470",35,"A22_F",1,1,1,3,1,NA,NA
"2471",35,"A23_F",1,1,1,1,1,NA,NA
"2472",35,"A24_F",1,1,1,3,1,NA,NA
"2473",35,"A25_F",1,1,1,6,1,NA,NA
"2474",35,"A26_F",1,1,1,5,1,NA,NA
"2475",35,"A27_F",1,1,1,4,1,NA,NA
"2476",35,"A28_F",1,1,1,6,1,NA,NA
"2477",35,"A29_F",1,1,1,1,1,NA,NA
"2478",35,"A30_F",1,1,1,4,1,NA,NA
"2479",35,"A31_F",1,1,1,6,1,NA,NA
"2480",35,"A32_F",1,1,1,1,1,NA,NA
"2481",35,"A33_F",1,1,1,6,1,NA,NA
"2482",35,"A34_F",1,1,1,3,1,NA,NA
"2483",35,"A35_F",1,1,1,3,1,NA,NA
"2484",35,"A36_F",1,1,1,5,1,NA,NA
"2485",35,"A37_T",1,1,1,3,0,NA,NA
"2486",35,"A38_T",1,1,1,3,0,NA,NA
"2487",35,"A39_T",1,1,1,1,0,NA,NA
"2488",35,"A40_T",1,1,1,1,0,NA,NA
"2489",35,"A41_T",1,1,1,6,0,NA,NA
"2490",35,"A42_T",1,1,1,4,0,NA,NA
"2491",35,"A43_T",1,1,1,4,0,NA,NA
"2492",35,"A44_T",1,1,1,3,0,NA,NA
"2493",35,"A45_T",1,1,1,6,0,NA,NA
"2494",35,"A46_T",1,1,1,1,0,NA,NA
"2495",35,"A47_T",1,1,1,6,0,NA,NA
"2496",35,"A48_T",1,1,1,4,0,NA,NA
"2497",35,"A49_T",1,1,1,2,0,NA,NA
"2498",35,"A50_T",1,1,1,6,0,NA,NA
"2499",35,"A51_T",1,1,1,3,0,NA,NA
"2500",35,"A52_T",1,1,1,1,0,NA,NA
"2501",35,"A53_T",1,1,1,6,0,NA,NA
"2502",35,"A54_T",1,1,1,6,0,NA,NA
"2503",35,"A55_F",1,1,1,4,0,NA,NA
"2504",35,"A56_F",1,1,1,6,0,NA,NA
"2505",35,"A57_F",1,1,1,6,0,NA,NA
"2506",35,"A58_F",1,1,1,6,0,NA,NA
"2507",35,"A59_F",1,1,1,6,0,NA,NA
"2508",35,"A60_F",1,1,1,6,0,NA,NA
"2509",35,"A61_F",1,1,1,1,0,NA,NA
"2510",35,"A62_F",1,1,1,6,0,NA,NA
"2511",35,"A63_F",1,1,1,6,0,NA,NA
"2512",35,"A64_F",1,1,1,3,0,NA,NA
"2513",35,"A65_F",1,1,1,4,0,NA,NA
"2514",35,"A66_F",1,1,1,1,0,NA,NA
"2515",35,"A67_F",1,1,1,6,0,NA,NA
"2516",35,"A68_F",1,1,1,6,0,NA,NA
"2517",35,"A69_F",1,1,1,5,0,NA,NA
"2518",35,"A70_F",1,1,1,6,0,NA,NA
"2519",35,"A71_F",1,1,1,6,0,NA,NA
"2520",35,"A72_F",1,1,1,6,0,NA,NA
"2521",36,"A1_T",1,1,1,3,0,NA,NA
"2522",36,"A2_T",1,1,1,2,0,NA,NA
"2523",36,"A3_T",1,1,1,4,0,NA,NA
"2524",36,"A4_T",1,1,1,4,0,NA,NA
"2525",36,"A5_T",1,1,1,4,0,NA,NA
"2526",36,"A6_T",1,1,1,3,0,NA,NA
"2527",36,"A7_T",1,1,1,4,0,NA,NA
"2528",36,"A8_T",1,1,1,2,0,NA,NA
"2529",36,"A9_T",1,1,1,4,0,NA,NA
"2530",36,"A10_T",1,1,1,4,0,NA,NA
"2531",36,"A11_T",1,1,1,4,0,NA,NA
"2532",36,"A12_T",1,1,1,4,0,NA,NA
"2533",36,"A13_T",1,1,1,1,0,NA,NA
"2534",36,"A14_T",1,1,1,1,0,NA,NA
"2535",36,"A15_T",1,1,1,3,0,NA,NA
"2536",36,"A16_T",1,1,1,1,0,NA,NA
"2537",36,"A17_T",1,1,1,4,0,NA,NA
"2538",36,"A18_T",1,1,1,6,0,NA,NA
"2539",36,"A19_F",1,1,1,3,0,NA,NA
"2540",36,"A20_F",1,1,1,4,0,NA,NA
"2541",36,"A21_F",1,1,1,6,0,NA,NA
"2542",36,"A22_F",1,1,1,4,0,NA,NA
"2543",36,"A23_F",1,1,1,4,0,NA,NA
"2544",36,"A24_F",1,1,1,5,0,NA,NA
"2545",36,"A25_F",1,1,1,3,0,NA,NA
"2546",36,"A26_F",1,1,1,6,0,NA,NA
"2547",36,"A27_F",1,1,1,1,0,NA,NA
"2548",36,"A28_F",1,1,1,4,0,NA,NA
"2549",36,"A29_F",1,1,1,3,0,NA,NA
"2550",36,"A30_F",1,1,1,2,0,NA,NA
"2551",36,"A31_F",1,1,1,6,0,NA,NA
"2552",36,"A32_F",1,1,1,3,0,NA,NA
"2553",36,"A33_F",1,1,1,4,0,NA,NA
"2554",36,"A34_F",1,1,1,2,0,NA,NA
"2555",36,"A35_F",1,1,1,4,0,NA,NA
"2556",36,"A36_F",1,1,1,1,0,NA,NA
"2557",36,"A37_T",1,1,1,5,1,NA,NA
"2558",36,"A38_T",1,1,1,3,1,NA,NA
"2559",36,"A39_T",1,1,1,6,1,NA,NA
"2560",36,"A40_T",1,1,1,6,1,NA,NA
"2561",36,"A41_T",1,1,1,6,1,NA,NA
"2562",36,"A42_T",1,1,1,5,1,NA,NA
"2563",36,"A43_T",1,1,1,6,1,NA,NA
"2564",36,"A44_T",1,1,1,6,1,NA,NA
"2565",36,"A45_T",1,1,1,6,1,NA,NA
"2566",36,"A46_T",1,1,1,6,1,NA,NA
"2567",36,"A47_T",1,1,1,6,1,NA,NA
"2568",36,"A48_T",1,1,1,6,1,NA,NA
"2569",36,"A49_T",1,1,1,2,1,NA,NA
"2570",36,"A50_T",1,1,1,6,1,NA,NA
"2571",36,"A51_T",1,1,1,6,1,NA,NA
"2572",36,"A52_T",1,1,1,5,1,NA,NA
"2573",36,"A53_T",1,1,1,6,1,NA,NA
"2574",36,"A54_T",1,1,1,6,1,NA,NA
"2575",36,"A55_F",1,1,1,6,1,NA,NA
"2576",36,"A56_F",1,1,1,6,1,NA,NA
"2577",36,"A57_F",1,1,1,6,1,NA,NA
"2578",36,"A58_F",1,1,1,6,1,NA,NA
"2579",36,"A59_F",1,1,1,5,1,NA,NA
"2580",36,"A60_F",1,1,1,5,1,NA,NA
"2581",36,"A61_F",1,1,1,5,1,NA,NA
"2582",36,"A62_F",1,1,1,6,1,NA,NA
"2583",36,"A63_F",1,1,1,6,1,NA,NA
"2584",36,"A64_F",1,1,1,5,1,NA,NA
"2585",36,"A65_F",1,1,1,6,1,NA,NA
"2586",36,"A66_F",1,1,1,6,1,NA,NA
"2587",36,"A67_F",1,1,1,2,1,NA,NA
"2588",36,"A68_F",1,1,1,6,1,NA,NA
"2589",36,"A69_F",1,1,1,6,1,NA,NA
"2590",36,"A70_F",1,1,1,6,1,NA,NA
"2591",36,"A71_F",1,1,1,6,1,NA,NA
"2592",36,"A72_F",1,1,1,5,1,NA,NA
"2593",37,"A1_T",1,1,2,3,0,NA,NA
"2594",37,"A2_T",1,1,2,1,0,NA,NA
"2595",37,"A3_T",1,1,2,1,0,NA,NA
"2596",37,"A4_T",1,1,2,3,0,NA,NA
"2597",37,"A5_T",1,1,2,1,0,NA,NA
"2598",37,"A6_T",1,1,2,3,0,NA,NA
"2599",37,"A7_T",1,1,2,3,0,NA,NA
"2600",37,"A8_T",1,1,2,3,0,NA,NA
"2601",37,"A9_T",1,1,2,3,0,NA,NA
"2602",37,"A10_T",1,1,2,1,0,NA,NA
"2603",37,"A11_T",1,1,2,3,0,NA,NA
"2604",37,"A12_T",1,1,2,3,0,NA,NA
"2605",37,"A13_T",1,1,2,3,0,NA,NA
"2606",37,"A14_T",1,1,2,3,0,NA,NA
"2607",37,"A15_T",1,1,2,3,0,NA,NA
"2608",37,"A16_T",1,1,2,1,0,NA,NA
"2609",37,"A17_T",1,1,2,3,0,NA,NA
"2610",37,"A18_T",1,1,2,2,0,NA,NA
"2611",37,"A19_F",1,1,2,3,0,NA,NA
"2612",37,"A20_F",1,1,2,1,0,NA,NA
"2613",37,"A21_F",1,1,2,3,0,NA,NA
"2614",37,"A22_F",1,1,2,3,0,NA,NA
"2615",37,"A23_F",1,1,2,2,0,NA,NA
"2616",37,"A24_F",1,1,2,3,0,NA,NA
"2617",37,"A25_F",1,1,2,1,0,NA,NA
"2618",37,"A26_F",1,1,2,3,0,NA,NA
"2619",37,"A27_F",1,1,2,3,0,NA,NA
"2620",37,"A28_F",1,1,2,4,0,NA,NA
"2621",37,"A29_F",1,1,2,1,0,NA,NA
"2622",37,"A30_F",1,1,2,6,0,NA,NA
"2623",37,"A31_F",1,1,2,3,0,NA,NA
"2624",37,"A32_F",1,1,2,3,0,NA,NA
"2625",37,"A33_F",1,1,2,4,0,NA,NA
"2626",37,"A34_F",1,1,2,3,0,NA,NA
"2627",37,"A35_F",1,1,2,3,0,NA,NA
"2628",37,"A36_F",1,1,2,4,0,NA,NA
"2629",37,"A37_T",1,1,2,1,1,NA,NA
"2630",37,"A38_T",1,1,2,1,1,NA,NA
"2631",37,"A39_T",1,1,2,6,1,NA,NA
"2632",37,"A40_T",1,1,2,1,1,NA,NA
"2633",37,"A41_T",1,1,2,3,1,NA,NA
"2634",37,"A42_T",1,1,2,4,1,NA,NA
"2635",37,"A43_T",1,1,2,6,1,NA,NA
"2636",37,"A44_T",1,1,2,3,1,NA,NA
"2637",37,"A45_T",1,1,2,1,1,NA,NA
"2638",37,"A46_T",1,1,2,3,1,NA,NA
"2639",37,"A47_T",1,1,2,6,1,NA,NA
"2640",37,"A48_T",1,1,2,1,1,NA,NA
"2641",37,"A49_T",1,1,2,4,1,NA,NA
"2642",37,"A50_T",1,1,2,1,1,NA,NA
"2643",37,"A51_T",1,1,2,1,1,NA,NA
"2644",37,"A52_T",1,1,2,1,1,NA,NA
"2645",37,"A53_T",1,1,2,6,1,NA,NA
"2646",37,"A54_T",1,1,2,4,1,NA,NA
"2647",37,"A55_F",1,1,2,4,1,NA,NA
"2648",37,"A56_F",1,1,2,6,1,NA,NA
"2649",37,"A57_F",1,1,2,1,1,NA,NA
"2650",37,"A58_F",1,1,2,3,1,NA,NA
"2651",37,"A59_F",1,1,2,1,1,NA,NA
"2652",37,"A60_F",1,1,2,3,1,NA,NA
"2653",37,"A61_F",1,1,2,3,1,NA,NA
"2654",37,"A62_F",1,1,2,3,1,NA,NA
"2655",37,"A63_F",1,1,2,1,1,NA,NA
"2656",37,"A64_F",1,1,2,6,1,NA,NA
"2657",37,"A65_F",1,1,2,3,1,NA,NA
"2658",37,"A66_F",1,1,2,3,1,NA,NA
"2659",37,"A67_F",1,1,2,3,1,NA,NA
"2660",37,"A68_F",1,1,2,3,1,NA,NA
"2661",37,"A69_F",1,1,2,4,1,NA,NA
"2662",37,"A70_F",1,1,2,3,1,NA,NA
"2663",37,"A71_F",1,1,2,6,1,NA,NA
"2664",37,"A72_F",1,1,2,1,1,NA,NA
"2665",38,"A1_T",1,1,2,3,1,NA,NA
"2666",38,"A2_T",1,1,2,4,1,NA,NA
"2667",38,"A3_T",1,1,2,4,1,NA,NA
"2668",38,"A4_T",1,1,2,4,1,NA,NA
"2669",38,"A5_T",1,1,2,2,1,NA,NA
"2670",38,"A6_T",1,1,2,3,1,NA,NA
"2671",38,"A7_T",1,1,2,4,1,NA,NA
"2672",38,"A8_T",1,1,2,4,1,NA,NA
"2673",38,"A9_T",1,1,2,5,1,NA,NA
"2674",38,"A10_T",1,1,2,4,1,NA,NA
"2675",38,"A11_T",1,1,2,4,1,NA,NA
"2676",38,"A12_T",1,1,2,4,1,NA,NA
"2677",38,"A13_T",1,1,2,3,1,NA,NA
"2678",38,"A14_T",1,1,2,6,1,NA,NA
"2679",38,"A15_T",1,1,2,4,1,NA,NA
"2680",38,"A16_T",1,1,2,4,1,NA,NA
"2681",38,"A17_T",1,1,2,4,1,NA,NA
"2682",38,"A18_T",1,1,2,5,1,NA,NA
"2683",38,"A19_F",1,1,2,3,1,NA,NA
"2684",38,"A20_F",1,1,2,4,1,NA,NA
"2685",38,"A21_F",1,1,2,4,1,NA,NA
"2686",38,"A22_F",1,1,2,3,1,NA,NA
"2687",38,"A23_F",1,1,2,3,1,NA,NA
"2688",38,"A24_F",1,1,2,5,1,NA,NA
"2689",38,"A25_F",1,1,2,3,1,NA,NA
"2690",38,"A26_F",1,1,2,3,1,NA,NA
"2691",38,"A27_F",1,1,2,1,1,NA,NA
"2692",38,"A28_F",1,1,2,5,1,NA,NA
"2693",38,"A29_F",1,1,2,4,1,NA,NA
"2694",38,"A30_F",1,1,2,3,1,NA,NA
"2695",38,"A31_F",1,1,2,2,1,NA,NA
"2696",38,"A32_F",1,1,2,1,1,NA,NA
"2697",38,"A33_F",1,1,2,3,1,NA,NA
"2698",38,"A34_F",1,1,2,3,1,NA,NA
"2699",38,"A35_F",1,1,2,3,1,NA,NA
"2700",38,"A36_F",1,1,2,1,1,NA,NA
"2701",38,"A37_T",1,1,2,4,0,NA,NA
"2702",38,"A38_T",1,1,2,4,0,NA,NA
"2703",38,"A39_T",1,1,2,2,0,NA,NA
"2704",38,"A40_T",1,1,2,4,0,NA,NA
"2705",38,"A41_T",1,1,2,3,0,NA,NA
"2706",38,"A42_T",1,1,2,3,0,NA,NA
"2707",38,"A43_T",1,1,2,3,0,NA,NA
"2708",38,"A44_T",1,1,2,3,0,NA,NA
"2709",38,"A45_T",1,1,2,5,0,NA,NA
"2710",38,"A46_T",1,1,2,4,0,NA,NA
"2711",38,"A47_T",1,1,2,4,0,NA,NA
"2712",38,"A48_T",1,1,2,4,0,NA,NA
"2713",38,"A49_T",1,1,2,6,0,NA,NA
"2714",38,"A50_T",1,1,2,4,0,NA,NA
"2715",38,"A51_T",1,1,2,2,0,NA,NA
"2716",38,"A52_T",1,1,2,5,0,NA,NA
"2717",38,"A53_T",1,1,2,3,0,NA,NA
"2718",38,"A54_T",1,1,2,4,0,NA,NA
"2719",38,"A55_F",1,1,2,2,0,NA,NA
"2720",38,"A56_F",1,1,2,3,0,NA,NA
"2721",38,"A57_F",1,1,2,4,0,NA,NA
"2722",38,"A58_F",1,1,2,4,0,NA,NA
"2723",38,"A59_F",1,1,2,2,0,NA,NA
"2724",38,"A60_F",1,1,2,4,0,NA,NA
"2725",38,"A61_F",1,1,2,1,0,NA,NA
"2726",38,"A62_F",1,1,2,1,0,NA,NA
"2727",38,"A63_F",1,1,2,3,0,NA,NA
"2728",38,"A64_F",1,1,2,4,0,NA,NA
"2729",38,"A65_F",1,1,2,5,0,NA,NA
"2730",38,"A66_F",1,1,2,3,0,NA,NA
"2731",38,"A67_F",1,1,2,4,0,NA,NA
"2732",38,"A68_F",1,1,2,4,0,NA,NA
"2733",38,"A69_F",1,1,2,3,0,NA,NA
"2734",38,"A70_F",1,1,2,4,0,NA,NA
"2735",38,"A71_F",1,1,2,4,0,NA,NA
"2736",38,"A72_F",1,1,2,3,0,NA,NA
"2737",39,"A1_T",1,1,2,6,1,NA,NA
"2738",39,"A2_T",1,1,2,6,1,NA,NA
"2739",39,"A3_T",1,1,2,6,1,NA,NA
"2740",39,"A4_T",1,1,2,2,1,NA,NA
"2741",39,"A5_T",1,1,2,3,1,NA,NA
"2742",39,"A6_T",1,1,2,6,1,NA,NA
"2743",39,"A7_T",1,1,2,4,1,NA,NA
"2744",39,"A8_T",1,1,2,5,1,NA,NA
"2745",39,"A9_T",1,1,2,2,1,NA,NA
"2746",39,"A10_T",1,1,2,6,1,NA,NA
"2747",39,"A11_T",1,1,2,4,1,NA,NA
"2748",39,"A12_T",1,1,2,6,1,NA,NA
"2749",39,"A13_T",1,1,2,5,1,NA,NA
"2750",39,"A14_T",1,1,2,1,1,NA,NA
"2751",39,"A15_T",1,1,2,6,1,NA,NA
"2752",39,"A16_T",1,1,2,4,1,NA,NA
"2753",39,"A17_T",1,1,2,6,1,NA,NA
"2754",39,"A18_T",1,1,2,6,1,NA,NA
"2755",39,"A19_F",1,1,2,4,1,NA,NA
"2756",39,"A20_F",1,1,2,4,1,NA,NA
"2757",39,"A21_F",1,1,2,6,1,NA,NA
"2758",39,"A22_F",1,1,2,5,1,NA,NA
"2759",39,"A23_F",1,1,2,5,1,NA,NA
"2760",39,"A24_F",1,1,2,6,1,NA,NA
"2761",39,"A25_F",1,1,2,2,1,NA,NA
"2762",39,"A26_F",1,1,2,4,1,NA,NA
"2763",39,"A27_F",1,1,2,2,1,NA,NA
"2764",39,"A28_F",1,1,2,5,1,NA,NA
"2765",39,"A29_F",1,1,2,6,1,NA,NA
"2766",39,"A30_F",1,1,2,6,1,NA,NA
"2767",39,"A31_F",1,1,2,6,1,NA,NA
"2768",39,"A32_F",1,1,2,6,1,NA,NA
"2769",39,"A33_F",1,1,2,6,1,NA,NA
"2770",39,"A34_F",1,1,2,6,1,NA,NA
"2771",39,"A35_F",1,1,2,1,1,NA,NA
"2772",39,"A36_F",1,1,2,4,1,NA,NA
"2773",39,"A37_T",1,1,2,2,0,NA,NA
"2774",39,"A38_T",1,1,2,4,0,NA,NA
"2775",39,"A39_T",1,1,2,5,0,NA,NA
"2776",39,"A40_T",1,1,2,5,0,NA,NA
"2777",39,"A41_T",1,1,2,6,0,NA,NA
"2778",39,"A42_T",1,1,2,6,0,NA,NA
"2779",39,"A43_T",1,1,2,5,0,NA,NA
"2780",39,"A44_T",1,1,2,5,0,NA,NA
"2781",39,"A45_T",1,1,2,1,0,NA,NA
"2782",39,"A46_T",1,1,2,4,0,NA,NA
"2783",39,"A47_T",1,1,2,4,0,NA,NA
"2784",39,"A48_T",1,1,2,6,0,NA,NA
"2785",39,"A49_T",1,1,2,4,0,NA,NA
"2786",39,"A50_T",1,1,2,5,0,NA,NA
"2787",39,"A51_T",1,1,2,2,0,NA,NA
"2788",39,"A52_T",1,1,2,3,0,NA,NA
"2789",39,"A53_T",1,1,2,1,0,NA,NA
"2790",39,"A54_T",1,1,2,6,0,NA,NA
"2791",39,"A55_F",1,1,2,5,0,NA,NA
"2792",39,"A56_F",1,1,2,2,0,NA,NA
"2793",39,"A57_F",1,1,2,6,0,NA,NA
"2794",39,"A58_F",1,1,2,5,0,NA,NA
"2795",39,"A59_F",1,1,2,5,0,NA,NA
"2796",39,"A60_F",1,1,2,5,0,NA,NA
"2797",39,"A61_F",1,1,2,5,0,NA,NA
"2798",39,"A62_F",1,1,2,1,0,NA,NA
"2799",39,"A63_F",1,1,2,4,0,NA,NA
"2800",39,"A64_F",1,1,2,6,0,NA,NA
"2801",39,"A65_F",1,1,2,4,0,NA,NA
"2802",39,"A66_F",1,1,2,5,0,NA,NA
"2803",39,"A67_F",1,1,2,4,0,NA,NA
"2804",39,"A68_F",1,1,2,5,0,NA,NA
"2805",39,"A69_F",1,1,2,4,0,NA,NA
"2806",39,"A70_F",1,1,2,3,0,NA,NA
"2807",39,"A71_F",1,1,2,6,0,NA,NA
"2808",39,"A72_F",1,1,2,3,0,NA,NA
"2809",40,"A1_T",1,1,2,5,0,NA,NA
"2810",40,"A2_T",1,1,2,5,0,NA,NA
"2811",40,"A3_T",1,1,2,5,0,NA,NA
"2812",40,"A4_T",1,1,2,4,0,NA,NA
"2813",40,"A5_T",1,1,2,4,0,NA,NA
"2814",40,"A6_T",1,1,2,5,0,NA,NA
"2815",40,"A7_T",1,1,2,5,0,NA,NA
"2816",40,"A8_T",1,1,2,2,0,NA,NA
"2817",40,"A9_T",1,1,2,3,0,NA,NA
"2818",40,"A10_T",1,1,2,2,0,NA,NA
"2819",40,"A11_T",1,1,2,4,0,NA,NA
"2820",40,"A12_T",1,1,2,5,0,NA,NA
"2821",40,"A13_T",1,1,2,3,0,NA,NA
"2822",40,"A14_T",1,1,2,4,0,NA,NA
"2823",40,"A15_T",1,1,2,2,0,NA,NA
"2824",40,"A16_T",1,1,2,2,0,NA,NA
"2825",40,"A17_T",1,1,2,6,0,NA,NA
"2826",40,"A18_T",1,1,2,3,0,NA,NA
"2827",40,"A19_F",1,1,2,5,0,NA,NA
"2828",40,"A20_F",1,1,2,5,0,NA,NA
"2829",40,"A21_F",1,1,2,5,0,NA,NA
"2830",40,"A22_F",1,1,2,4,0,NA,NA
"2831",40,"A23_F",1,1,2,5,0,NA,NA
"2832",40,"A24_F",1,1,2,2,0,NA,NA
"2833",40,"A25_F",1,1,2,5,0,NA,NA
"2834",40,"A26_F",1,1,2,4,0,NA,NA
"2835",40,"A27_F",1,1,2,4,0,NA,NA
"2836",40,"A28_F",1,1,2,4,0,NA,NA
"2837",40,"A29_F",1,1,2,5,0,NA,NA
"2838",40,"A30_F",1,1,2,5,0,NA,NA
"2839",40,"A31_F",1,1,2,5,0,NA,NA
"2840",40,"A32_F",1,1,2,4,0,NA,NA
"2841",40,"A33_F",1,1,2,5,0,NA,NA
"2842",40,"A34_F",1,1,2,5,0,NA,NA
"2843",40,"A35_F",1,1,2,3,0,NA,NA
"2844",40,"A36_F",1,1,2,4,0,NA,NA
"2845",40,"A37_T",1,1,2,5,1,NA,NA
"2846",40,"A38_T",1,1,2,5,1,NA,NA
"2847",40,"A39_T",1,1,2,2,1,NA,NA
"2848",40,"A40_T",1,1,2,4,1,NA,NA
"2849",40,"A41_T",1,1,2,2,1,NA,NA
"2850",40,"A42_T",1,1,2,5,1,NA,NA
"2851",40,"A43_T",1,1,2,4,1,NA,NA
"2852",40,"A44_T",1,1,2,6,1,NA,NA
"2853",40,"A45_T",1,1,2,2,1,NA,NA
"2854",40,"A46_T",1,1,2,3,1,NA,NA
"2855",40,"A47_T",1,1,2,6,1,NA,NA
"2856",40,"A48_T",1,1,2,3,1,NA,NA
"2857",40,"A49_T",1,1,2,5,1,NA,NA
"2858",40,"A50_T",1,1,2,6,1,NA,NA
"2859",40,"A51_T",1,1,2,4,1,NA,NA
"2860",40,"A52_T",1,1,2,2,1,NA,NA
"2861",40,"A53_T",1,1,2,5,1,NA,NA
"2862",40,"A54_T",1,1,2,6,1,NA,NA
"2863",40,"A55_F",1,1,2,6,1,NA,NA
"2864",40,"A56_F",1,1,2,5,1,NA,NA
"2865",40,"A57_F",1,1,2,2,1,NA,NA
"2866",40,"A58_F",1,1,2,1,1,NA,NA
"2867",40,"A59_F",1,1,2,4,1,NA,NA
"2868",40,"A60_F",1,1,2,5,1,NA,NA
"2869",40,"A61_F",1,1,2,6,1,NA,NA
"2870",40,"A62_F",1,1,2,3,1,NA,NA
"2871",40,"A63_F",1,1,2,3,1,NA,NA
"2872",40,"A64_F",1,1,2,6,1,NA,NA
"2873",40,"A65_F",1,1,2,4,1,NA,NA
"2874",40,"A66_F",1,1,2,6,1,NA,NA
"2875",40,"A67_F",1,1,2,3,1,NA,NA
"2876",40,"A68_F",1,1,2,2,1,NA,NA
"2877",40,"A69_F",1,1,2,6,1,NA,NA
"2878",40,"A70_F",1,1,2,5,1,NA,NA
"2879",40,"A71_F",1,1,2,3,1,NA,NA
"2880",40,"A72_F",1,1,2,4,1,NA,NA
"2881",41,"A1_T",1,1,1,1,0,NA,NA
"2882",41,"A2_T",1,1,1,6,0,NA,NA
"2883",41,"A3_T",1,1,1,1,0,NA,NA
"2884",41,"A4_T",1,1,1,1,0,NA,NA
"2885",41,"A5_T",1,1,1,1,0,NA,NA
"2886",41,"A6_T",1,1,1,1,0,NA,NA
"2887",41,"A7_T",1,1,1,3,0,NA,NA
"2888",41,"A8_T",1,1,1,6,0,NA,NA
"2889",41,"A9_T",1,1,1,1,0,NA,NA
"2890",41,"A10_T",1,1,1,6,0,NA,NA
"2891",41,"A11_T",1,1,1,1,0,NA,NA
"2892",41,"A12_T",1,1,1,6,0,NA,NA
"2893",41,"A13_T",1,1,1,2,0,NA,NA
"2894",41,"A14_T",1,1,1,1,0,NA,NA
"2895",41,"A15_T",1,1,1,2,0,NA,NA
"2896",41,"A16_T",1,1,1,4,0,NA,NA
"2897",41,"A17_T",1,1,1,6,0,NA,NA
"2898",41,"A18_T",1,1,1,6,0,NA,NA
"2899",41,"A19_F",1,1,1,1,0,NA,NA
"2900",41,"A20_F",1,1,1,6,0,NA,NA
"2901",41,"A21_F",1,1,1,1,0,NA,NA
"2902",41,"A22_F",1,1,1,1,0,NA,NA
"2903",41,"A23_F",1,1,1,4,0,NA,NA
"2904",41,"A24_F",1,1,1,4,0,NA,NA
"2905",41,"A25_F",1,1,1,6,0,NA,NA
"2906",41,"A26_F",1,1,1,6,0,NA,NA
"2907",41,"A27_F",1,1,1,6,0,NA,NA
"2908",41,"A28_F",1,1,1,3,0,NA,NA
"2909",41,"A29_F",1,1,1,1,0,NA,NA
"2910",41,"A30_F",1,1,1,2,0,NA,NA
"2911",41,"A31_F",1,1,1,6,0,NA,NA
"2912",41,"A32_F",1,1,1,1,0,NA,NA
"2913",41,"A33_F",1,1,1,2,0,NA,NA
"2914",41,"A34_F",1,1,1,3,0,NA,NA
"2915",41,"A35_F",1,1,1,4,0,NA,NA
"2916",41,"A36_F",1,1,1,6,0,NA,NA
"2917",41,"A37_T",1,1,1,1,1,NA,NA
"2918",41,"A38_T",1,1,1,3,1,NA,NA
"2919",41,"A39_T",1,1,1,1,1,NA,NA
"2920",41,"A40_T",1,1,1,5,1,NA,NA
"2921",41,"A41_T",1,1,1,6,1,NA,NA
"2922",41,"A42_T",1,1,1,6,1,NA,NA
"2923",41,"A43_T",1,1,1,4,1,NA,NA
"2924",41,"A44_T",1,1,1,6,1,NA,NA
"2925",41,"A45_T",1,1,1,6,1,NA,NA
"2926",41,"A46_T",1,1,1,1,1,NA,NA
"2927",41,"A47_T",1,1,1,6,1,NA,NA
"2928",41,"A48_T",1,1,1,6,1,NA,NA
"2929",41,"A49_T",1,1,1,3,1,NA,NA
"2930",41,"A50_T",1,1,1,6,1,NA,NA
"2931",41,"A51_T",1,1,1,1,1,NA,NA
"2932",41,"A52_T",1,1,1,2,1,NA,NA
"2933",41,"A53_T",1,1,1,6,1,NA,NA
"2934",41,"A54_T",1,1,1,6,1,NA,NA
"2935",41,"A55_F",1,1,1,2,1,NA,NA
"2936",41,"A56_F",1,1,1,5,1,NA,NA
"2937",41,"A57_F",1,1,1,6,1,NA,NA
"2938",41,"A58_F",1,1,1,6,1,NA,NA
"2939",41,"A59_F",1,1,1,6,1,NA,NA
"2940",41,"A60_F",1,1,1,6,1,NA,NA
"2941",41,"A61_F",1,1,1,6,1,NA,NA
"2942",41,"A62_F",1,1,1,1,1,NA,NA
"2943",41,"A63_F",1,1,1,6,1,NA,NA
"2944",41,"A64_F",1,1,1,6,1,NA,NA
"2945",41,"A65_F",1,1,1,6,1,NA,NA
"2946",41,"A66_F",1,1,1,1,1,NA,NA
"2947",41,"A67_F",1,1,1,6,1,NA,NA
"2948",41,"A68_F",1,1,1,6,1,NA,NA
"2949",41,"A69_F",1,1,1,6,1,NA,NA
"2950",41,"A70_F",1,1,1,6,1,NA,NA
"2951",41,"A71_F",1,1,1,6,1,NA,NA
"2952",41,"A72_F",1,1,1,6,1,NA,NA
"2953",42,"A1_T",1,1,2,3,1,NA,NA
"2954",42,"A2_T",1,1,2,4,1,NA,NA
"2955",42,"A3_T",1,1,2,4,1,NA,NA
"2956",42,"A4_T",1,1,2,3,1,NA,NA
"2957",42,"A5_T",1,1,2,5,1,NA,NA
"2958",42,"A6_T",1,1,2,3,1,NA,NA
"2959",42,"A7_T",1,1,2,4,1,NA,NA
"2960",42,"A8_T",1,1,2,2,1,NA,NA
"2961",42,"A9_T",1,1,2,3,1,NA,NA
"2962",42,"A10_T",1,1,2,4,1,NA,NA
"2963",42,"A11_T",1,1,2,3,1,NA,NA
"2964",42,"A12_T",1,1,2,2,1,NA,NA
"2965",42,"A13_T",1,1,2,3,1,NA,NA
"2966",42,"A14_T",1,1,2,2,1,NA,NA
"2967",42,"A15_T",1,1,2,5,1,NA,NA
"2968",42,"A16_T",1,1,2,6,1,NA,NA
"2969",42,"A17_T",1,1,2,2,1,NA,NA
"2970",42,"A18_T",1,1,2,4,1,NA,NA
"2971",42,"A19_F",1,1,2,2,1,NA,NA
"2972",42,"A20_F",1,1,2,3,1,NA,NA
"2973",42,"A21_F",1,1,2,3,1,NA,NA
"2974",42,"A22_F",1,1,2,4,1,NA,NA
"2975",42,"A23_F",1,1,2,2,1,NA,NA
"2976",42,"A24_F",1,1,2,6,1,NA,NA
"2977",42,"A25_F",1,1,2,5,1,NA,NA
"2978",42,"A26_F",1,1,2,3,1,NA,NA
"2979",42,"A27_F",1,1,2,2,1,NA,NA
"2980",42,"A28_F",1,1,2,2,1,NA,NA
"2981",42,"A29_F",1,1,2,5,1,NA,NA
"2982",42,"A30_F",1,1,2,4,1,NA,NA
"2983",42,"A31_F",1,1,2,4,1,NA,NA
"2984",42,"A32_F",1,1,2,4,1,NA,NA
"2985",42,"A33_F",1,1,2,4,1,NA,NA
"2986",42,"A34_F",1,1,2,4,1,NA,NA
"2987",42,"A35_F",1,1,2,4,1,NA,NA
"2988",42,"A36_F",1,1,2,4,1,NA,NA
"2989",42,"A37_T",1,1,2,4,0,NA,NA
"2990",42,"A38_T",1,1,2,3,0,NA,NA
"2991",42,"A39_T",1,1,2,5,0,NA,NA
"2992",42,"A40_T",1,1,2,3,0,NA,NA
"2993",42,"A41_T",1,1,2,4,0,NA,NA
"2994",42,"A42_T",1,1,2,3,0,NA,NA
"2995",42,"A43_T",1,1,2,3,0,NA,NA
"2996",42,"A44_T",1,1,2,4,0,NA,NA
"2997",42,"A45_T",1,1,2,2,0,NA,NA
"2998",42,"A46_T",1,1,2,4,0,NA,NA
"2999",42,"A47_T",1,1,2,5,0,NA,NA
