{"publication_info":{"0":{"publication_name":"Publication 1","study_info":{"0":{"study_name":"Study 1","study_data":{"truth_rating_scale":"likert","truth_rating_scale_details":"","truth_rating_steps":"6","subjective_certainty":"0","rt_measured":"1","rt_onset":"stimulus_onset","n_participants":"82","participant_age":"24.86","percentage_female":"99","physiological_measures":"0","cognitive_models":"0","open_data_link":"https://osf.io/26sm3/files/osfstorage","study_comment":"","statementset_name":"Statementset 1","secondary_tasks":"1","secondary_task_type":"non-verbal","secondary_task_name":"","student_sample":"1","validated":true},"measurement_data":{"measures":[{"construct":"language experience","details":"to assess their use of English in several contexts and rate their profciency skills (in writing, reading, listening, and speaking) on a 10-point Likert scale."},{"construct":"math task","details":"(distractor) math-task with simple arithmetic equations"}],"additional_measures":"1","validated":true},"raw_data":{"raw_data_file":{},"data":[{"":1,"subject":499714,"statement_identifier":221031,"procedure_identifier":1,"within_identifier":1,"between_identifier":"different","response":5,"repeated":1,"rt":3.933,"trial":82},{"":2,"subject":499714,"statement_identifier":221032,"procedure_identifier":1,"within_identifier":1,"between_identifier":"different","response":5,"repeated":1,"rt":3.262,"trial":44},{"":3,"subject":499714,"statement_identifier":221033,"procedure_identifier":1,"within_identifier":1,"between_identifier":"different","response":3,"repeated":1,"rt":4.501,"trial":100},{"":4,"subject":499714,"statement_identifier":221034,"procedure_identifier":1,"within_identifier":1,"between_identifier":"different","response":4,"repeated":1,"rt":4.173,"trial":81},{"":5,"subject":499714,"statement_identifier":221035,"procedure_identifier":1,"within_identifier":1,"between_identifier":"different","response":4,"repeated":1,"rt":5.216,"trial":21},{"":6,"subject":499714,"statement_identifier":221036,"procedure_identifier":1,"within_identifier":1,"between_identifier":"different","response":5,"repeated":1,"rt":4.248,"trial":31},{"":7,"subject":499714,"statement_identifier":221037,"procedure_identifier":1,"within_identifier":1,"between_identifier":"different","response":1,"repeated":1,"rt":6.09,"trial":105},{"":8,"subject":499714,"statement_identifier":221038,"procedure_identifier":1,"within_identifier":1,"between_identifier":"different","response":2,"repeated":1,"rt":7.973,"trial":34},{"":9,"subject":499714,"statement_identifier":221039,"procedure_identifier":1,"within_identifier":1,"between_identifier":"different","response":2,"repeated":1,"rt":4.053,"trial":118},{"":10,"subject":499714,"statement_identifier":221040,"procedure_identifier":1,"within_identifier":1,"between_identifier":"different","response":2,"repeated":1,"rt":5.226,"trial":10},{"":11,"subject":499714,"statement_identifier":221041,"procedure_identifier":1,"within_identifier":1,"between_identifier":"different","response":5,"repeated":1,"rt":4.18,"trial":38},{"":12,"subject":499714,"statement_identifier":221042,"procedure_identifier":1,"within_identifier":1,"between_identifier":"different","response":5,"repeated":1,"rt":4.834,"trial":28},{"":13,"subject":499714,"statement_identifier":221043,"procedure_identifier":1,"within_identifier":1,"between_identifier":"different","response":2,"repeated":1,"rt":6.417,"trial":36},{"":14,"subject":499714,"statement_identifier":221044,"procedure_identifier":1,"within_identifier":1,"between_identifier":"different","response":2,"repeated":1,"rt":4.731,"trial":53},{"":15,"subject":499714,"statement_identifier":221045,"procedure_identifier":1,"within_identifier":1,"between_identifier":"different","response":4,"repeated":1,"rt":4.792,"trial":101},{"":16,"subject":499714,"statement_identifier":221046,"procedure_identifier":1,"within_identifier":1,"between_identifier":"different","response":4,"repeated":1,"rt":4.338,"trial":120},{"":17,"subject":499714,"statement_identifier":221047,"procedure_identifier":1,"within_identifier":1,"between_identifier":"different","response":2,"repeated":1,"rt":6.889,"trial":13},{"":18,"subject":499714,"statement_identifier":221048,"procedure_identifier":1,"within_identifier":1,"between_identifier":"different","response":3,"repeated":1,"rt":5.355,"trial":110},{"":19,"subject":499714,"statement_identifier":221049,"procedure_identifier":1,"within_identifier":1,"between_identifier":"different","response":4,"repeated":1,"rt":4.486,"trial":96},{"":20,"subject":499714,"statement_identifier":221050,"procedure_identifier":1,"within_identifier":1,"between_identifier":"different","response":6,"repeated":1,"rt":7.511,"trial":50},{"":21,"subject":499714,"statement_identifier":221051,"procedure_identifier":1,"within_identifier":1,"between_identifier":"different","response":2,"repeated":1,"rt":3.717,"trial":69},{"":22,"subject":499714,"statement_identifier":221052,"procedure_identifier":1,"within_identifier":1,"between_identifier":"different","response":3,"repeated":1,"rt":5.707,"trial":48},{"":23,"subject":499714,"statement_identifier":221053,"procedure_identifier":1,"within_identifier":1,"between_identifier":"different","response":1,"repeated":1,"rt":4.184,"trial":18},{"":24,"subject":499714,"statement_identifier":221054,"procedure_identifier":1,"within_identifier":1,"between_identifier":"different","response":3,"repeated":1,"rt":7.185,"trial":113},{"":25,"subject":499714,"statement_identifier":221055,"procedure_identifier":1,"within_identifier":1,"between_identifier":"different","response":4,"repeated":1,"rt":6.296,"trial":106},{"":26,"subject":499714,"statement_identifier":221056,"procedure_identifier":1,"within_identifier":1,"between_identifier":"different","response":5,"repeated":1,"rt":4.324,"trial":25},{"":27,"subject":499714,"statement_identifier":221057,"procedure_identifier":1,"within_identifier":1,"between_identifier":"different","response":2,"repeated":1,"rt":6.877,"trial":72},{"":28,"subject":499714,"statement_identifier":221058,"procedure_identifier":1,"within_identifier":1,"between_identifier":"different","response":2,"repeated":1,"rt":5.073,"trial":45},{"":29,"subject":499714,"statement_identifier":221059,"procedure_identifier":1,"within_identifier":1,"between_identifier":"different","response":4,"repeated":1,"rt":5.317,"trial":111},{"":30,"subject":499714,"statement_identifier":221060,"procedure_identifier":1,"within_identifier":1,"between_identifier":"different","response":4,"repeated":1,"rt":5.778,"trial":6},{"":31,"subject":499714,"statement_identifier":411001,"procedure_identifier":1,"within_identifier":1,"between_identifier":"different","response":3,"repeated":1,"rt":3.971,"trial":35},{"":32,"subject":499714,"statement_identifier":411002,"procedure_identifier":1,"within_identifier":1,"between_identifier":"different","response":3,"repeated":1,"rt":4.808,"trial":94},{"":33,"subject":499714,"statement_identifier":411003,"procedure_identifier":1,"within_identifier":1,"between_identifier":"different","response":4,"repeated":1,"rt":5.437,"trial":47},{"":34,"subject":499714,"statement_identifier":411004,"procedure_identifier":1,"within_identifier":1,"between_identifier":"different","response":4,"repeated":1,"rt":3.925,"trial":2},{"":35,"subject":499714,"statement_identifier":411005,"procedure_identifier":1,"within_identifier":1,"between_identifier":"different","response":2,"repeated":1,"rt":4.177,"trial":39},{"":36,"subject":499714,"statement_identifier":411006,"procedure_identifier":1,"within_identifier":1,"between_identifier":"different","response":1,"repeated":1,"rt":4.622,"trial":107},{"":37,"subject":499714,"statement_identifier":411007,"procedure_identifier":1,"within_identifier":1,"between_identifier":"different","response":1,"repeated":1,"rt":4.152,"trial":4},{"":38,"subject":499714,"statement_identifier":411008,"procedure_identifier":1,"within_identifier":1,"between_identifier":"different","response":2,"repeated":1,"rt":5.233,"trial":102},{"":39,"subject":499714,"statement_identifier":411009,"procedure_identifier":1,"within_identifier":1,"between_identifier":"different","response":3,"repeated":1,"rt":5.315,"trial":98},{"":40,"subject":499714,"statement_identifier":411010,"procedure_identifier":1,"within_identifier":1,"between_identifier":"different","response":3,"repeated":1,"rt":4.921,"trial":23},{"":41,"subject":499714,"statement_identifier":411011,"procedure_identifier":1,"within_identifier":1,"between_identifier":"different","response":6,"repeated":1,"rt":5.332,"trial":1},{"":42,"subject":499714,"statement_identifier":411012,"procedure_identifier":1,"within_identifier":1,"between_identifier":"different","response":2,"repeated":1,"rt":7.889,"trial":20},{"":43,"subject":499714,"statement_identifier":411013,"procedure_identifier":1,"within_identifier":1,"between_identifier":"different","response":1,"repeated":1,"rt":6.264,"trial":64},{"":44,"subject":499714,"statement_identifier":411014,"procedure_identifier":1,"within_identifier":1,"between_identifier":"different","response":2,"repeated":1,"rt":5.011,"trial":17},{"":45,"subject":499714,"statement_identifier":411015,"procedure_identifier":1,"within_identifier":1,"between_identifier":"different","response":4,"repeated":1,"rt":6.06,"trial":93},{"":46,"subject":499714,"statement_identifier":411016,"procedure_identifier":1,"within_identifier":1,"between_identifier":"different","response":4,"repeated":1,"rt":5.066,"trial":115},{"":47,"subject":499714,"statement_identifier":411017,"procedure_identifier":1,"within_identifier":1,"between_identifier":"different","response":3,"repeated":1,"rt":4.171,"trial":51},{"":48,"subject":499714,"statement_identifier":411018,"procedure_identifier":1,"within_identifier":1,"between_identifier":"different","response":4,"repeated":1,"rt":3.837,"trial":88},{"":49,"subject":499714,"statement_identifier":411019,"procedure_identifier":1,"within_identifier":1,"between_identifier":"different","response":3,"repeated":1,"rt":4.972,"trial":14},{"":50,"subject":499714,"statement_identifier":411020,"procedure_identifier":1,"within_identifier":1,"between_identifier":"different","response":2,"repeated":1,"rt":9.315,"trial":114},{"":51,"subject":499714,"statement_identifier":411021,"procedure_identifier":1,"within_identifier":1,"between_identifier":"different","response":5,"repeated":1,"rt":5.118,"trial":32},{"":52,"subject":499714,"statement_identifier":411022,"procedure_identifier":1,"within_identifier":1,"between_identifier":"different","response":4,"repeated":1,"rt":3.663,"trial":19},{"":53,"subject":499714,"statement_identifier":411023,"procedure_identifier":1,"within_identifier":1,"between_identifier":"different","response":6,"repeated":1,"rt":3.726,"trial":37},{"":54,"subject":499714,"statement_identifier":411024,"procedure_identifier":1,"within_identifier":1,"between_identifier":"different","response":3,"repeated":1,"rt":5.604,"trial":5},{"":55,"subject":499714,"statement_identifier":411025,"procedure_identifier":1,"within_identifier":1,"between_identifier":"different","response":4,"repeated":1,"rt":6.462,"trial":86},{"":56,"subject":499714,"statement_identifier":411026,"procedure_identifier":1,"within_identifier":1,"between_identifier":"different","response":4,"repeated":1,"rt":4.307,"trial":3},{"":57,"subject":499714,"statement_identifier":411027,"procedure_identifier":1,"within_identifier":1,"between_identifier":"different","response":1,"repeated":1,"rt":7.61,"trial":71},{"":58,"subject":499714,"statement_identifier":411028,"procedure_identifier":1,"within_identifier":1,"between_identifier":"different","response":3,"repeated":1,"rt":5.589,"trial":112},{"":59,"subject":499714,"statement_identifier":411029,"procedure_identifier":1,"within_identifier":1,"between_identifier":"different","response":2,"repeated":1,"rt":5.168,"trial":63},{"":60,"subject":499714,"statement_identifier":411030,"procedure_identifier":1,"within_identifier":1,"between_identifier":"different","response":1,"repeated":1,"rt":6.891,"trial":92},{"":61,"subject":499723,"statement_identifier":211001,"procedure_identifier":1,"within_identifier":1,"between_identifier":"different","response":2,"repeated":1,"rt":"NA","trial":110},{"":62,"subject":499723,"statement_identifier":211002,"procedure_identifier":1,"within_identifier":1,"between_identifier":"different","response":6,"repeated":1,"rt":7.599,"trial":19},{"":63,"subject":499723,"statement_identifier":211003,"procedure_identifier":1,"within_identifier":1,"between_identifier":"different","response":6,"repeated":1,"rt":3.623,"trial":45},{"":64,"subject":499723,"statement_identifier":211004,"procedure_identifier":1,"within_identifier":1,"between_identifier":"different","response":6,"repeated":1,"rt":3.244,"trial":17},{"":65,"subject":499723,"statement_identifier":211005,"procedure_identifier":1,"within_identifier":1,"between_identifier":"different","response":6,"repeated":1,"rt":3.796,"trial":79},{"":66,"subject":499723,"statement_identifier":211006,"procedure_identifier":1,"within_identifier":1,"between_identifier":"different","response":6,"repeated":1,"rt":4.376,"trial":48},{"":67,"subject":499723,"statement_identifier":211007,"procedure_identifier":1,"within_identifier":1,"between_identifier":"different","response":2,"repeated":1,"rt":5.944,"trial":69},{"":68,"subject":499723,"statement_identifier":211008,"procedure_identifier":1,"within_identifier":1,"between_identifier":"different","response":6,"repeated":1,"rt":5.036,"trial":59},{"":69,"subject":499723,"statement_identifier":211009,"procedure_identifier":1,"within_identifier":1,"between_identifier":"different","response":6,"repeated":1,"rt":3.316,"trial":7},{"":70,"subject":499723,"statement_identifier":211010,"procedure_identifier":1,"within_identifier":1,"between_identifier":"different","response":6,"repeated":1,"rt":6.448,"trial":96},{"":71,"subject":499723,"statement_identifier":211011,"procedure_identifier":1,"within_identifier":1,"between_identifier":"different","response":1,"repeated":1,"rt":8.351,"trial":94},{"":72,"subject":499723,"statement_identifier":211012,"procedure_identifier":1,"within_identifier":1,"between_identifier":"different","response":6,"repeated":1,"rt":5.763,"trial":23},{"":73,"subject":499723,"statement_identifier":211013,"procedure_identifier":1,"within_identifier":1,"between_identifier":"different","response":6,"repeated":1,"rt":6.625,"trial":24},{"":74,"subject":499723,"statement_identifier":211014,"procedure_identifier":1,"within_identifier":1,"between_identifier":"different","response":6,"repeated":1,"rt":3.61,"trial":20},{"":75,"subject":499723,"statement_identifier":211015,"procedure_identifier":1,"within_identifier":1,"between_identifier":"different","response":2,"repeated":1,"rt":8.35,"trial":1},{"":76,"subject":499723,"statement_identifier":211016,"procedure_identifier":1,"within_identifier":1,"between_identifier":"different","response":4,"repeated":1,"rt":4.594,"trial":57},{"":77,"subject":499723,"statement_identifier":211017,"procedure_identifier":1,"within_identifier":1,"between_identifier":"different","response":4,"repeated":1,"rt":6.734,"trial":85},{"":78,"subject":499723,"statement_identifier":211018,"procedure_identifier":1,"within_identifier":1,"between_identifier":"different","response":6,"repeated":1,"rt":5.315,"trial":55},{"":79,"subject":499723,"statement_identifier":211019,"procedure_identifier":1,"within_identifier":1,"between_identifier":"different","response":3,"repeated":1,"rt":5.18,"trial":73},{"":80,"subject":499723,"statement_identifier":211020,"procedure_identifier":1,"within_identifier":1,"between_identifier":"different","response":6,"repeated":1,"rt":4.97,"trial":44},{"":81,"subject":499723,"statement_identifier":211021,"procedure_identifier":1,"within_identifier":1,"between_identifier":"different","response":6,"repeated":1,"rt":5.186,"trial":49},{"":82,"subject":499723,"statement_identifier":211022,"procedure_identifier":1,"within_identifier":1,"between_identifier":"different","response":6,"repeated":1,"rt":4.313,"trial":51},{"":83,"subject":499723,"statement_identifier":211023,"procedure_identifier":1,"within_identifier":1,"between_identifier":"different","response":6,"repeated":1,"rt":6.01,"trial":29},{"":84,"subject":499723,"statement_identifier":211024,"procedure_identifier":1,"within_identifier":1,"between_identifier":"different","response":6,"repeated":1,"rt":4.604,"trial":40},{"":85,"subject":499723,"statement_identifier":211025,"procedure_identifier":1,"within_identifier":1,"between_identifier":"different","response":6,"repeated":1,"rt":5.621,"trial":64},{"":86,"subject":499723,"statement_identifier":211026,"procedure_identifier":1,"within_identifier":1,"between_identifier":"different","response":3,"repeated":1,"rt":5.403,"trial":42},{"":87,"subject":499723,"statement_identifier":211027,"procedure_identifier":1,"within_identifier":1,"between_identifier":"different","response":1,"repeated":1,"rt":4.879,"trial":39},{"":88,"subject":499723,"statement_identifier":211028,"procedure_identifier":1,"within_identifier":1,"between_identifier":"different","response":6,"repeated":1,"rt":4.908,"trial":63},{"":89,"subject":499723,"statement_identifier":211029,"procedure_identifier":1,"within_identifier":1,"between_identifier":"different","response":6,"repeated":1,"rt":4.148,"trial":41},{"":90,"subject":499723,"statement_identifier":211030,"procedure_identifier":1,"within_identifier":1,"between_identifier":"different","response":6,"repeated":1,"rt":5.672,"trial":86},{"":91,"subject":499723,"statement_identifier":421031,"procedure_identifier":1,"within_identifier":1,"between_identifier":"different","response":6,"repeated":1,"rt":3.388,"trial":75},{"":92,"subject":499723,"statement_identifier":421032,"procedure_identifier":1,"within_identifier":1,"between_identifier":"different","response":6,"repeated":1,"rt":3.619,"trial":25},{"":93,"subject":499723,"statement_identifier":421033,"procedure_identifier":1,"within_identifier":1,"between_identifier":"different","response":6,"repeated":1,"rt":3.662,"trial":47},{"":94,"subject":499723,"statement_identifier":421034,"procedure_identifier":1,"within_identifier":1,"between_identifier":"different","response":2,"repeated":1,"rt":8.272,"trial":72},{"":95,"subject":499723,"statement_identifier":421035,"procedure_identifier":1,"within_identifier":1,"between_identifier":"different","response":1,"repeated":1,"rt":4.165,"trial":18},{"":96,"subject":499723,"statement_identifier":421036,"procedure_identifier":1,"within_identifier":1,"between_identifier":"different","response":6,"repeated":1,"rt":6.491,"trial":12},{"":97,"subject":499723,"statement_identifier":421037,"procedure_identifier":1,"within_identifier":1,"between_identifier":"different","response":6,"repeated":1,"rt":5.432,"trial":5},{"":98,"subject":499723,"statement_identifier":421038,"procedure_identifier":1,"within_identifier":1,"between_identifier":"different","response":6,"repeated":1,"rt":"NA","trial":3},{"":99,"subject":499723,"statement_identifier":421039,"procedure_identifier":1,"within_identifier":1,"between_identifier":"different","response":1,"repeated":1,"rt":5.152,"trial":109},{"":100,"subject":499723,"statement_identifier":421040,"procedure_identifier":1,"within_identifier":1,"between_identifier":"different","response":3,"repeated":1,"rt":6.195,"trial":104},{"":101,"subject":499723,"statement_identifier":421041,"procedure_identifier":1,"within_identifier":1,"between_identifier":"different","response":6,"repeated":1,"rt":5.258,"trial":67},{"":102,"subject":499723,"statement_identifier":421042,"procedure_identifier":1,"within_identifier":1,"between_identifier":"different","response":6,"repeated":1,"rt":4.388,"trial":56},{"":103,"subject":499723,"statement_identifier":421043,"procedure_identifier":1,"within_identifier":1,"between_identifier":"different","response":1,"repeated":1,"rt":6.123,"trial":36},{"":104,"subject":499723,"statement_identifier":421044,"procedure_identifier":1,"within_identifier":1,"between_identifier":"different","response":1,"repeated":1,"rt":6.23,"trial":92},{"":105,"subject":499723,"statement_identifier":421045,"procedure_identifier":1,"within_identifier":1,"between_identifier":"different","response":6,"repeated":1,"rt":5.234,"trial":83},{"":106,"subject":499723,"statement_identifier":421046,"procedure_identifier":1,"within_identifier":1,"between_identifier":"different","response":4,"repeated":1,"rt":7.119,"trial":43},{"":107,"subject":499723,"statement_identifier":421047,"procedure_identifier":1,"within_identifier":1,"between_identifier":"different","response":6,"repeated":1,"rt":4.852,"trial":6},{"":108,"subject":499723,"statement_identifier":421048,"procedure_identifier":1,"within_identifier":1,"between_identifier":"different","response":6,"repeated":1,"rt":4.674,"trial":9},{"":109,"subject":499723,"statement_identifier":421049,"procedure_identifier":1,"within_identifier":1,"between_identifier":"different","response":2,"repeated":1,"rt":3.95,"trial":60},{"":110,"subject":499723,"statement_identifier":421050,"procedure_identifier":1,"within_identifier":1,"between_identifier":"different","response":3,"repeated":1,"rt":6.955,"trial":53},{"":111,"subject":499723,"statement_identifier":421051,"procedure_identifier":1,"within_identifier":1,"between_identifier":"different","response":6,"repeated":1,"rt":4.25,"trial":46},{"":112,"subject":499723,"statement_identifier":421052,"procedure_identifier":1,"within_identifier":1,"between_identifier":"different","response":6,"repeated":1,"rt":5.908,"trial":91},{"":113,"subject":499723,"statement_identifier":421053,"procedure_identifier":1,"within_identifier":1,"between_identifier":"different","response":6,"repeated":1,"rt":4.979,"trial":82},{"":114,"subject":499723,"statement_identifier":421054,"procedure_identifier":1,"within_identifier":1,"between_identifier":"different","response":6,"repeated":1,"rt":5.221,"trial":13},{"":115,"subject":499723,"statement_identifier":421055,"procedure_identifier":1,"within_identifier":1,"between_identifier":"different","response":2,"repeated":1,"rt":5.012,"trial":111},{"":116,"subject":499723,"statement_identifier":421056,"procedure_identifier":1,"within_identifier":1,"between_identifier":"different","response":6,"repeated":1,"rt":4.288,"trial":50},{"":117,"subject":499723,"statement_identifier":421057,"procedure_identifier":1,"within_identifier":1,"between_identifier":"different","response":6,"repeated":1,"rt":4.934,"trial":16},{"":118,"subject":499723,"statement_identifier":421058,"procedure_identifier":1,"within_identifier":1,"between_identifier":"different","response":6,"repeated":1,"rt":3.895,"trial":84},{"":119,"subject":499723,"statement_identifier":421059,"procedure_identifier":1,"within_identifier":1,"between_identifier":"different","response":3,"repeated":1,"rt":6.28,"trial":2},{"":120,"subject":499723,"statement_identifier":421060,"procedure_identifier":1,"within_identifier":1,"between_identifier":"different","response":6,"repeated":1,"rt":5.677,"trial":71},{"":121,"subject":499733,"statement_identifier":310085,"procedure_identifier":1,"within_identifier":1,"between_identifier":"different","response":5,"repeated":1,"rt":5.253,"trial":60},{"":122,"subject":499733,"statement_identifier":311061,"procedure_identifier":1,"within_identifier":1,"between_identifier":"different","response":3,"repeated":1,"rt":3.621,"trial":34},{"":123,"subject":499733,"statement_identifier":311062,"procedure_identifier":1,"within_identifier":1,"between_identifier":"different","response":4,"repeated":1,"rt":4.22,"trial":6},{"":124,"subject":499733,"statement_identifier":311063,"procedure_identifier":1,"within_identifier":1,"between_identifier":"different","response":4,"repeated":1,"rt":3.437,"trial":30},{"":125,"subject":499733,"statement_identifier":311064,"procedure_identifier":1,"within_identifier":1,"between_identifier":"different","response":3,"repeated":1,"rt":2.72,"trial":81},{"":126,"subject":499733,"statement_identifier":311065,"procedure_identifier":1,"within_identifier":1,"between_identifier":"different","response":4,"repeated":1,"rt":2.753,"trial":51},{"":127,"subject":499733,"statement_identifier":311066,"procedure_identifier":1,"within_identifier":1,"between_identifier":"different","response":5,"repeated":1,"rt":4.055,"trial":56},{"":128,"subject":499733,"statement_identifier":311067,"procedure_identifier":1,"within_identifier":1,"between_identifier":"different","response":4,"repeated":1,"rt":3.287,"trial":74},{"":129,"subject":499733,"statement_identifier":311068,"procedure_identifier":1,"within_identifier":1,"between_identifier":"different","response":4,"repeated":1,"rt":5.271,"trial":93},{"":130,"subject":499733,"statement_identifier":311069,"procedure_identifier":1,"within_identifier":1,"between_identifier":"different","response":5,"repeated":1,"rt":3.637,"trial":26},{"":131,"subject":499733,"statement_identifier":311070,"procedure_identifier":1,"within_identifier":1,"between_identifier":"different","response":3,"repeated":1,"rt":2.387,"trial":23},{"":132,"subject":499733,"statement_identifier":311071,"procedure_identifier":1,"within_identifier":1,"between_identifier":"different","response":3,"repeated":1,"rt":"NA","trial":52},{"":133,"subject":499733,"statement_identifier":311072,"procedure_identifier":1,"within_identifier":1,"between_identifier":"different","response":5,"repeated":1,"rt":4.119,"trial":49},{"":134,"subject":499733,"statement_identifier":311073,"procedure_identifier":1,"within_identifier":1,"between_identifier":"different","response":3,"repeated":1,"rt":1.97,"trial":106},{"":135,"subject":499733,"statement_identifier":311074,"procedure_identifier":1,"within_identifier":1,"between_identifier":"different","response":3,"repeated":1,"rt":3.821,"trial":40},{"":136,"subject":499733,"statement_identifier":311075,"procedure_identifier":1,"within_identifier":1,"between_identifier":"different","response":3,"repeated":1,"rt":2.921,"trial":80},{"":137,"subject":499733,"statement_identifier":311076,"procedure_identifier":1,"within_identifier":1,"between_identifier":"different","response":2,"repeated":1,"rt":4.62,"trial":11},{"":138,"subject":499733,"statement_identifier":311077,"procedure_identifier":1,"within_identifier":1,"between_identifier":"different","response":5,"repeated":1,"rt":5.771,"trial":87},{"":139,"subject":499733,"statement_identifier":311078,"procedure_identifier":1,"within_identifier":1,"between_identifier":"different","response":3,"repeated":1,"rt":3.104,"trial":89},{"":140,"subject":499733,"statement_identifier":311079,"procedure_identifier":1,"within_identifier":1,"between_identifier":"different","response":3,"repeated":1,"rt":9.037,"trial":1},{"":141,"subject":499733,"statement_identifier":311080,"procedure_identifier":1,"within_identifier":1,"between_identifier":"different","response":3,"repeated":1,"rt":5.653,"trial":21},{"":142,"subject":499733,"statement_identifier":311081,"procedure_identifier":1,"within_identifier":1,"between_identifier":"different","response":3,"repeated":1,"rt":2.82,"trial":68},{"":143,"subject":499733,"statement_identifier":311082,"procedure_identifier":1,"within_identifier":1,"between_identifier":"different","response":4,"repeated":1,"rt":7.554,"trial":9},{"":144,"subject":499733,"statement_identifier":311083,"procedure_identifier":1,"within_identifier":1,"between_identifier":"different","response":3,"repeated":1,"rt":9.304,"trial":14},{"":145,"subject":499733,"statement_identifier":311084,"procedure_identifier":1,"within_identifier":1,"between_identifier":"different","response":3,"repeated":1,"rt":2.321,"trial":44},{"":146,"subject":499733,"statement_identifier":311086,"procedure_identifier":1,"within_identifier":1,"between_identifier":"different","response":3,"repeated":1,"rt":2.387,"trial":32},{"":147,"subject":499733,"statement_identifier":311087,"procedure_identifier":1,"within_identifier":1,"between_identifier":"different","response":3,"repeated":1,"rt":3.654,"trial":53},{"":148,"subject":499733,"statement_identifier":311088,"procedure_identifier":1,"within_identifier":1,"between_identifier":"different","response":3,"repeated":1,"rt":5.338,"trial":78},{"":149,"subject":499733,"statement_identifier":311089,"procedure_identifier":1,"within_identifier":1,"between_identifier":"different","response":4,"repeated":1,"rt":3.704,"trial":19},{"":150,"subject":499733,"statement_identifier":311090,"procedure_identifier":1,"within_identifier":1,"between_identifier":"different","response":3,"repeated":1,"rt":1.603,"trial":45},{"":151,"subject":499733,"statement_identifier":521091,"procedure_identifier":1,"within_identifier":1,"between_identifier":"different","response":4,"repeated":1,"rt":4.87,"trial":17},{"":152,"subject":499733,"statement_identifier":521092,"procedure_identifier":1,"within_identifier":1,"between_identifier":"different","response":2,"repeated":1,"rt":3.654,"trial":36},{"":153,"subject":499733,"statement_identifier":521093,"procedure_identifier":1,"within_identifier":1,"between_identifier":"different","response":2,"repeated":1,"rt":2.904,"trial":94},{"":154,"subject":499733,"statement_identifier":521094,"procedure_identifier":1,"within_identifier":1,"between_identifier":"different","response":3,"repeated":1,"rt":3.138,"trial":3},{"":155,"subject":499733,"statement_identifier":521095,"procedure_identifier":1,"within_identifier":1,"between_identifier":"different","response":4,"repeated":1,"rt":3.554,"trial":112},{"":156,"subject":499733,"statement_identifier":521096,"procedure_identifier":1,"within_identifier":1,"between_identifier":"different","response":3,"repeated":1,"rt":2.221,"trial":98},{"":157,"subject":499733,"statement_identifier":521097,"procedure_identifier":1,"within_identifier":1,"between_identifier":"different","response":3,"repeated":1,"rt":3.587,"trial":57},{"":158,"subject":499733,"statement_identifier":521098,"procedure_identifier":1,"within_identifier":1,"between_identifier":"different","response":3,"repeated":1,"rt":3.838,"trial":8},{"":159,"subject":499733,"statement_identifier":521099,"procedure_identifier":1,"within_identifier":1,"between_identifier":"different","response":5,"repeated":1,"rt":3.287,"trial":28},{"":160,"subject":499733,"statement_identifier":521100,"procedure_identifier":1,"within_identifier":1,"between_identifier":"different","response":3,"repeated":1,"rt":3.172,"trial":88},{"":161,"subject":499733,"statement_identifier":521101,"procedure_identifier":1,"within_identifier":1,"between_identifier":"different","response":4,"repeated":1,"rt":2.271,"trial":107},{"":162,"subject":499733,"statement_identifier":521102,"procedure_identifier":1,"within_identifier":1,"between_identifier":"different","response":3,"repeated":1,"rt":2.654,"trial":102},{"":163,"subject":499733,"statement_identifier":521103,"procedure_identifier":1,"within_identifier":1,"between_identifier":"different","response":3,"repeated":1,"rt":3.121,"trial":31},{"":164,"subject":499733,"statement_identifier":521104,"procedure_identifier":1,"within_identifier":1,"between_identifier":"different","response":4,"repeated":1,"rt":6.171,"trial":76},{"":165,"subject":499733,"statement_identifier":521105,"procedure_identifier":1,"within_identifier":1,"between_identifier":"different","response":3,"repeated":1,"rt":3.355,"trial":114},{"":166,"subject":499733,"statement_identifier":521106,"procedure_identifier":1,"within_identifier":1,"between_identifier":"different","response":3,"repeated":1,"rt":3.254,"trial":90},{"":167,"subject":499733,"statement_identifier":521107,"procedure_identifier":1,"within_identifier":1,"between_identifier":"different","response":3,"repeated":1,"rt":6.304,"trial":77},{"":168,"subject":499733,"statement_identifier":521108,"procedure_identifier":1,"within_identifier":1,"between_identifier":"different","response":3,"repeated":1,"rt":3.22,"trial":25},{"":169,"subject":499733,"statement_identifier":521109,"procedure_identifier":1,"within_identifier":1,"between_identifier":"different","response":4,"repeated":1,"rt":5.103,"trial":37},{"":170,"subject":499733,"statement_identifier":521110,"procedure_identifier":1,"within_identifier":1,"between_identifier":"different","response":3,"repeated":1,"rt":3.753,"trial":59},{"":171,"subject":499733,"statement_identifier":521111,"procedure_identifier":1,"within_identifier":1,"between_identifier":"different","response":3,"repeated":1,"rt":2.955,"trial":116},{"":172,"subject":499733,"statement_identifier":521112,"procedure_identifier":1,"within_identifier":1,"between_identifier":"different","response":5,"repeated":1,"rt":6.803,"trial":85},{"":173,"subject":499733,"statement_identifier":521113,"procedure_identifier":1,"within_identifier":1,"between_identifier":"different","response":5,"repeated":1,"rt":2.67,"trial":109},{"":174,"subject":499733,"statement_identifier":521114,"procedure_identifier":1,"within_identifier":1,"between_identifier":"different","response":5,"repeated":1,"rt":3.554,"trial":65},{"":175,"subject":499733,"statement_identifier":521115,"procedure_identifier":1,"within_identifier":1,"between_identifier":"different","response":3,"repeated":1,"rt":5.404,"trial":5},{"":176,"subject":499733,"statement_identifier":521116,"procedure_identifier":1,"within_identifier":1,"between_identifier":"different","response":3,"repeated":1,"rt":1.805,"trial":103},{"":177,"subject":499733,"statement_identifier":521117,"procedure_identifier":1,"within_identifier":1,"between_identifier":"different","response":3,"repeated":1,"rt":2.505,"trial":100},{"":178,"subject":499733,"statement_identifier":521118,"procedure_identifier":1,"within_identifier":1,"between_identifier":"different","response":4,"repeated":1,"rt":2.954,"trial":55},{"":179,"subject":499733,"statement_identifier":521119,"procedure_identifier":1,"within_identifier":1,"between_identifier":"different","response":3,"repeated":1,"rt":2.404,"trial":101},{"":180,"subject":499733,"statement_identifier":521120,"procedure_identifier":1,"within_identifier":1,"between_identifier":"different","response":3,"repeated":1,"rt":2.388,"trial":115},{"":181,"subject":499753,"statement_identifier":321091,"procedure_identifier":1,"within_identifier":1,"between_identifier":"different","response":5,"repeated":1,"rt":5.752,"trial":78},{"":182,"subject":499753,"statement_identifier":321092,"procedure_identifier":1,"within_identifier":1,"between_identifier":"different","response":6,"repeated":1,"rt":4.346,"trial":3},{"":183,"subject":499753,"statement_identifier":321093,"procedure_identifier":1,"within_identifier":1,"between_identifier":"different","response":6,"repeated":1,"rt":"NA","trial":2},{"":184,"subject":499753,"statement_identifier":321094,"procedure_identifier":1,"within_identifier":1,"between_identifier":"different","response":4,"repeated":1,"rt":3.753,"trial":100},{"":185,"subject":499753,"statement_identifier":321095,"procedure_identifier":1,"within_identifier":1,"between_identifier":"different","response":4,"repeated":1,"rt":5.355,"trial":11},{"":186,"subject":499753,"statement_identifier":321096,"procedure_identifier":1,"within_identifier":1,"between_identifier":"different","response":6,"repeated":1,"rt":7.967,"trial":59},{"":187,"subject":499753,"statement_identifier":321097,"procedure_identifier":1,"within_identifier":1,"between_identifier":"different","response":4,"repeated":1,"rt":5.207,"trial":114},{"":188,"subject":499753,"statement_identifier":321098,"procedure_identifier":1,"within_identifier":1,"between_identifier":"different","response":1,"repeated":1,"rt":7.757,"trial":60},{"":189,"subject":499753,"statement_identifier":321099,"procedure_identifier":1,"within_identifier":1,"between_identifier":"different","response":6,"repeated":1,"rt":5.598,"trial":10},{"":190,"subject":499753,"statement_identifier":321100,"procedure_identifier":1,"within_identifier":1,"between_identifier":"different","response":5,"repeated":1,"rt":6.594,"trial":18},{"":191,"subject":499753,"statement_identifier":321101,"procedure_identifier":1,"within_identifier":1,"between_identifier":"different","response":5,"repeated":1,"rt":4.127,"trial":52},{"":192,"subject":499753,"statement_identifier":321102,"procedure_identifier":1,"within_identifier":1,"between_identifier":"different","response":2,"repeated":1,"rt":4.773,"trial":74},{"":193,"subject":499753,"statement_identifier":321103,"procedure_identifier":1,"within_identifier":1,"between_identifier":"different","response":3,"repeated":1,"rt":4.387,"trial":53},{"":194,"subject":499753,"statement_identifier":321104,"procedure_identifier":1,"within_identifier":1,"between_identifier":"different","response":5,"repeated":1,"rt":6.763,"trial":77},{"":195,"subject":499753,"statement_identifier":321105,"procedure_identifier":1,"within_identifier":1,"between_identifier":"different","response":5,"repeated":1,"rt":4.557,"trial":101},{"":196,"subject":499753,"statement_identifier":321106,"procedure_identifier":1,"within_identifier":1,"between_identifier":"different","response":4,"repeated":1,"rt":5.038,"trial":89},{"":197,"subject":499753,"statement_identifier":321107,"procedure_identifier":1,"within_identifier":1,"between_identifier":"different","response":6,"repeated":1,"rt":4.531,"trial":13},{"":198,"subject":499753,"statement_identifier":321108,"procedure_identifier":1,"within_identifier":1,"between_identifier":"different","response":4,"repeated":1,"rt":5.4,"trial":86},{"":199,"subject":499753,"statement_identifier":321109,"procedure_identifier":1,"within_identifier":1,"between_identifier":"different","response":5,"repeated":1,"rt":3.991,"trial":4},{"":200,"subject":499753,"statement_identifier":321110,"procedure_identifier":1,"within_identifier":1,"between_identifier":"different","response":5,"repeated":1,"rt":3.141,"trial":38},{"":201,"subject":499753,"statement_identifier":321111,"procedure_identifier":1,"within_identifier":1,"between_identifier":"different","response":6,"repeated":1,"rt":5.339,"trial":16},{"":202,"subject":499753,"statement_identifier":321112,"procedure_identifier":1,"within_identifier":1,"between_identifier":"different","response":4,"repeated":1,"rt":4.566,"trial":70},{"":203,"subject":499753,"statement_identifier":321113,"procedure_identifier":1,"within_identifier":1,"between_identifier":"different","response":5,"repeated":1,"rt":4.102,"trial":57},{"":204,"subject":499753,"statement_identifier":321114,"procedure_identifier":1,"within_identifier":1,"between_identifier":"different","response":5,"repeated":1,"rt":4.263,"trial":46},{"":205,"subject":499753,"statement_identifier":321115,"procedure_identifier":1,"within_identifier":1,"between_identifier":"different","response":2,"repeated":1,"rt":6.394,"trial":93},{"":206,"subject":499753,"statement_identifier":321116,"procedure_identifier":1,"within_identifier":1,"between_identifier":"different","response":2,"repeated":1,"rt":5.055,"trial":24},{"":207,"subject":499753,"statement_identifier":321117,"procedure_identifier":1,"within_identifier":1,"between_identifier":"different","response":4,"repeated":1,"rt":5.654,"trial":51},{"":208,"subject":499753,"statement_identifier":321118,"procedure_identifier":1,"within_identifier":1,"between_identifier":"different","response":"NA","repeated":1,"rt":"NA","trial":12},{"":209,"subject":499753,"statement_identifier":321119,"procedure_identifier":1,"within_identifier":1,"between_identifier":"different","response":2,"repeated":1,"rt":7.131,"trial":105},{"":210,"subject":499753,"statement_identifier":321120,"procedure_identifier":1,"within_identifier":1,"between_identifier":"different","response":2,"repeated":1,"rt":4.559,"trial":21},{"":211,"subject":499753,"statement_identifier":511061,"procedure_identifier":1,"within_identifier":1,"between_identifier":"different","response":2,"repeated":1,"rt":8.22,"trial":67},{"":212,"subject":499753,"statement_identifier":511062,"procedure_identifier":1,"within_identifier":1,"between_identifier":"different","response":5,"repeated":1,"rt":3.728,"trial":40},{"":213,"subject":499753,"statement_identifier":511063,"procedure_identifier":1,"within_identifier":1,"between_identifier":"different","response":4,"repeated":1,"rt":3.854,"trial":71},{"":214,"subject":499753,"statement_identifier":511064,"procedure_identifier":1,"within_identifier":1,"between_identifier":"different","response":5,"repeated":1,"rt":7.006,"trial":15},{"":215,"subject":499753,"statement_identifier":511065,"procedure_identifier":1,"within_identifier":1,"between_identifier":"different","response":4,"repeated":1,"rt":"NA","trial":104},{"":216,"subject":499753,"statement_identifier":511066,"procedure_identifier":1,"within_identifier":1,"between_identifier":"different","response":6,"repeated":1,"rt":2.998,"trial":31},{"":217,"subject":499753,"statement_identifier":511067,"procedure_identifier":1,"within_identifier":1,"between_identifier":"different","response":5,"repeated":1,"rt":6.462,"trial":75},{"":218,"subject":499753,"statement_identifier":511068,"procedure_identifier":1,"within_identifier":1,"between_identifier":"different","response":4,"repeated":1,"rt":4.763,"trial":30},{"":219,"subject":499753,"statement_identifier":511069,"procedure_identifier":1,"within_identifier":1,"between_identifier":"different","response":1,"repeated":1,"rt":5.627,"trial":94},{"":220,"subject":499753,"statement_identifier":511070,"procedure_identifier":1,"within_identifier":1,"between_identifier":"different","response":6,"repeated":1,"rt":3.909,"trial":55},{"":221,"subject":499753,"statement_identifier":511071,"procedure_identifier":1,"within_identifier":1,"between_identifier":"different","response":3,"repeated":1,"rt":3.162,"trial":64},{"":222,"subject":499753,"statement_identifier":511072,"procedure_identifier":1,"within_identifier":1,"between_identifier":"different","response":4,"repeated":1,"rt":8.008,"trial":22},{"":223,"subject":499753,"statement_identifier":511073,"procedure_identifier":1,"within_identifier":1,"between_identifier":"different","response":3,"repeated":1,"rt":4.049,"trial":97},{"":224,"subject":499753,"statement_identifier":511074,"procedure_identifier":1,"within_identifier":1,"between_identifier":"different","response":6,"repeated":1,"rt":4.97,"trial":14},{"":225,"subject":499753,"statement_identifier":511075,"procedure_identifier":1,"within_identifier":1,"between_identifier":"different","response":4,"repeated":1,"rt":4.935,"trial":32},{"":226,"subject":499753,"statement_identifier":511076,"procedure_identifier":1,"within_identifier":1,"between_identifier":"different","response":4,"repeated":1,"rt":4.317,"trial":27},{"":227,"subject":499753,"statement_identifier":511077,"procedure_identifier":1,"within_identifier":1,"between_identifier":"different","response":5,"repeated":1,"rt":3.153,"trial":62},{"":228,"subject":499753,"statement_identifier":511078,"procedure_identifier":1,"within_identifier":1,"between_identifier":"different","response":3,"repeated":1,"rt":4.864,"trial":68},{"":229,"subject":499753,"statement_identifier":511079,"procedure_identifier":1,"within_identifier":1,"between_identifier":"different","response":4,"repeated":1,"rt":3.973,"trial":87},{"":230,"subject":499753,"statement_identifier":511080,"procedure_identifier":1,"within_identifier":1,"between_identifier":"different","response":4,"repeated":1,"rt":4.781,"trial":17},{"":231,"subject":499753,"statement_identifier":511081,"procedure_identifier":1,"within_identifier":1,"between_identifier":"different","response":4,"repeated":1,"rt":2.737,"trial":88},{"":232,"subject":499753,"statement_identifier":511082,"procedure_identifier":1,"within_identifier":1,"between_identifier":"different","response":3,"repeated":1,"rt":4.986,"trial":108},{"":233,"subject":499753,"statement_identifier":511083,"procedure_identifier":1,"within_identifier":1,"between_identifier":"different","response":3,"repeated":1,"rt":4.211,"trial":45},{"":234,"subject":499753,"statement_identifier":511084,"procedure_identifier":1,"within_identifier":1,"between_identifier":"different","response":4,"repeated":1,"rt":5.701,"trial":98},{"":235,"subject":499753,"statement_identifier":511085,"procedure_identifier":1,"within_identifier":1,"between_identifier":"different","response":5,"repeated":1,"rt":4.869,"trial":26},{"":236,"subject":499753,"statement_identifier":511086,"procedure_identifier":1,"within_identifier":1,"between_identifier":"different","response":4,"repeated":1,"rt":5.706,"trial":28},{"":237,"subject":499753,"statement_identifier":511087,"procedure_identifier":1,"within_identifier":1,"between_identifier":"different","response":6,"repeated":1,"rt":3.292,"trial":7},{"":238,"subject":499753,"statement_identifier":511088,"procedure_identifier":1,"within_identifier":1,"between_identifier":"different","response":4,"repeated":1,"rt":6.626,"trial":63},{"":239,"subject":499753,"statement_identifier":511089,"procedure_identifier":1,"within_identifier":1,"between_identifier":"different","response":5,"repeated":1,"rt":4.615,"trial":48},{"":240,"subject":499753,"statement_identifier":511090,"procedure_identifier":1,"within_identifier":1,"between_identifier":"different","response":4,"repeated":1,"rt":6.186,"trial":36},{"":241,"subject":499765,"statement_identifier":211001,"procedure_identifier":1,"within_identifier":1,"between_identifier":"different","response":6,"repeated":1,"rt":2.526,"trial":101},{"":242,"subject":499765,"statement_identifier":211002,"procedure_identifier":1,"within_identifier":1,"between_identifier":"different","response":6,"repeated":1,"rt":3.576,"trial":32},{"":243,"subject":499765,"statement_identifier":211003,"procedure_identifier":1,"within_identifier":1,"between_identifier":"different","response":6,"repeated":1,"rt":3.777,"trial":102},{"":244,"subject":499765,"statement_identifier":211004,"procedure_identifier":1,"within_identifier":1,"between_identifier":"different","response":5,"repeated":1,"rt":2.764,"trial":59},{"":245,"subject":499765,"statement_identifier":211005,"procedure_identifier":1,"within_identifier":1,"between_identifier":"different","response":6,"repeated":1,"rt":3.194,"trial":31},{"":246,"subject":499765,"statement_identifier":211006,"procedure_identifier":1,"within_identifier":1,"between_identifier":"different","response":4,"repeated":1,"rt":6.916,"trial":14},{"":247,"subject":499765,"statement_identifier":211007,"procedure_identifier":1,"within_identifier":1,"between_identifier":"different","response":6,"repeated":1,"rt":3.967,"trial":85},{"":248,"subject":499765,"statement_identifier":211008,"procedure_identifier":1,"within_identifier":1,"between_identifier":"different","response":6,"repeated":1,"rt":3.392,"trial":79},{"":249,"subject":499765,"statement_identifier":211009,"procedure_identifier":1,"within_identifier":1,"between_identifier":"different","response":6,"repeated":1,"rt":3.96,"trial":38},{"":250,"subject":499765,"statement_identifier":211010,"procedure_identifier":1,"within_identifier":1,"between_identifier":"different","response":6,"repeated":1,"rt":3.467,"trial":16},{"":251,"subject":499765,"statement_identifier":211011,"procedure_identifier":1,"within_identifier":1,"between_identifier":"different","response":4,"repeated":1,"rt":3.3,"trial":20},{"":252,"subject":499765,"statement_identifier":211012,"procedure_identifier":1,"within_identifier":1,"between_identifier":"different","response":4,"repeated":1,"rt":3.667,"trial":120},{"":253,"subject":499765,"statement_identifier":211013,"procedure_identifier":1,"within_identifier":1,"between_identifier":"different","response":5,"repeated":1,"rt":4.766,"trial":24},{"":254,"subject":499765,"statement_identifier":211014,"procedure_identifier":1,"within_identifier":1,"between_identifier":"different","response":5,"repeated":1,"rt":3.659,"trial":58},{"":255,"subject":499765,"statement_identifier":211015,"procedure_identifier":1,"within_identifier":1,"between_identifier":"different","response":6,"repeated":1,"rt":4.632,"trial":81},{"":256,"subject":499765,"statement_identifier":211016,"procedure_identifier":1,"within_identifier":1,"between_identifier":"different","response":5,"repeated":1,"rt":5.359,"trial":27},{"":257,"subject":499765,"statement_identifier":211017,"procedure_identifier":1,"within_identifier":1,"between_identifier":"different","response":4,"repeated":1,"rt":4.26,"trial":110},{"":258,"subject":499765,"statement_identifier":211018,"procedure_identifier":1,"within_identifier":1,"between_identifier":"different","response":6,"repeated":1,"rt":2.735,"trial":22},{"":259,"subject":499765,"statement_identifier":211019,"procedure_identifier":1,"within_identifier":1,"between_identifier":"different","response":4,"repeated":1,"rt":5.977,"trial":44},{"":260,"subject":499765,"statement_identifier":211020,"procedure_identifier":1,"within_identifier":1,"between_identifier":"different","response":6,"repeated":1,"rt":4.634,"trial":13},{"":261,"subject":499765,"statement_identifier":211021,"procedure_identifier":1,"within_identifier":1,"between_identifier":"different","response":6,"repeated":1,"rt":3.534,"trial":90},{"":262,"subject":499765,"statement_identifier":211022,"procedure_identifier":1,"within_identifier":1,"between_identifier":"different","response":6,"repeated":1,"rt":3.361,"trial":87},{"":263,"subject":499765,"statement_identifier":211023,"procedure_identifier":1,"within_identifier":1,"between_identifier":"different","response":5,"repeated":1,"rt":3.762,"trial":105},{"":264,"subject":499765,"statement_identifier":211024,"procedure_identifier":1,"within_identifier":1,"between_identifier":"different","response":5,"repeated":1,"rt":5.31,"trial":72},{"":265,"subject":499765,"statement_identifier":211025,"procedure_identifier":1,"within_identifier":1,"between_identifier":"different","response":6,"repeated":1,"rt":3.049,"trial":7},{"":266,"subject":499765,"statement_identifier":211026,"procedure_identifier":1,"within_identifier":1,"between_identifier":"different","response":4,"repeated":1,"rt":4.298,"trial":3},{"":267,"subject":499765,"statement_identifier":211027,"procedure_identifier":1,"within_identifier":1,"between_identifier":"different","response":6,"repeated":1,"rt":2.958,"trial":23},{"":268,"subject":499765,"statement_identifier":211028,"procedure_identifier":1,"within_identifier":1,"between_identifier":"different","response":6,"repeated":1,"rt":4.226,"trial":74},{"":269,"subject":499765,"statement_identifier":211029,"procedure_identifier":1,"within_identifier":1,"between_identifier":"different","response":6,"repeated":1,"rt":2.993,"trial":100},{"":270,"subject":499765,"statement_identifier":211030,"procedure_identifier":1,"within_identifier":1,"between_identifier":"different","response":5,"repeated":1,"rt":3.944,"trial":106},{"":271,"subject":499765,"statement_identifier":421031,"procedure_identifier":1,"within_identifier":1,"between_identifier":"different","response":6,"repeated":1,"rt":2.543,"trial":25},{"":272,"subject":499765,"statement_identifier":421032,"procedure_identifier":1,"within_identifier":1,"between_identifier":"different","response":6,"repeated":1,"rt":2.81,"trial":84},{"":273,"subject":499765,"statement_identifier":421033,"procedure_identifier":1,"within_identifier":1,"between_identifier":"different","response":6,"repeated":1,"rt":2.827,"trial":42},{"":274,"subject":499765,"statement_identifier":421034,"procedure_identifier":1,"within_identifier":1,"between_identifier":"different","response":6,"repeated":1,"rt":2.716,"trial":111},{"":275,"subject":499765,"statement_identifier":421035,"procedure_identifier":1,"within_identifier":1,"between_identifier":"different","response":5,"repeated":1,"rt":4.027,"trial":48},{"":276,"subject":499765,"statement_identifier":421036,"procedure_identifier":1,"within_identifier":1,"between_identifier":"different","response":6,"repeated":1,"rt":4.301,"trial":78},{"":277,"subject":499765,"statement_identifier":421037,"procedure_identifier":1,"within_identifier":1,"between_identifier":"different","response":6,"repeated":1,"rt":4.75,"trial":34},{"":278,"subject":499765,"statement_identifier":421038,"procedure_identifier":1,"within_identifier":1,"between_identifier":"different","response":6,"repeated":1,"rt":3.607,"trial":70},{"":279,"subject":499765,"statement_identifier":421039,"procedure_identifier":1,"within_identifier":1,"between_identifier":"different","response":2,"repeated":1,"rt":6.241,"trial":11},{"":280,"subject":499765,"statement_identifier":421040,"procedure_identifier":1,"within_identifier":1,"between_identifier":"different","response":4,"repeated":1,"rt":4.493,"trial":116},{"":281,"subject":499765,"statement_identifier":421041,"procedure_identifier":1,"within_identifier":1,"between_identifier":"different","response":6,"repeated":1,"rt":3.284,"trial":89},{"":282,"subject":499765,"statement_identifier":421042,"procedure_identifier":1,"within_identifier":1,"between_identifier":"different","response":5,"repeated":1,"rt":4.35,"trial":109},{"":283,"subject":499765,"statement_identifier":421043,"procedure_identifier":1,"within_identifier":1,"between_identifier":"different","response":6,"repeated":1,"rt":3.316,"trial":51},{"":284,"subject":499765,"statement_identifier":421044,"procedure_identifier":1,"within_identifier":1,"between_identifier":"different","response":6,"repeated":1,"rt":3.164,"trial":10},{"":285,"subject":499765,"statement_identifier":421045,"procedure_identifier":1,"within_identifier":1,"between_identifier":"different","response":6,"repeated":1,"rt":3.15,"trial":35},{"":286,"subject":499765,"statement_identifier":421046,"procedure_identifier":1,"within_identifier":1,"between_identifier":"different","response":3,"repeated":1,"rt":8.775,"trial":1},{"":287,"subject":499765,"statement_identifier":421047,"procedure_identifier":1,"within_identifier":1,"between_identifier":"different","response":6,"repeated":1,"rt":3.309,"trial":96},{"":288,"subject":499765,"statement_identifier":421048,"procedure_identifier":1,"within_identifier":1,"between_identifier":"different","response":6,"repeated":1,"rt":3.831,"trial":15},{"":289,"subject":499765,"statement_identifier":421049,"procedure_identifier":1,"within_identifier":1,"between_identifier":"different","response":6,"repeated":1,"rt":3.382,"trial":9},{"":290,"subject":499765,"statement_identifier":421050,"procedure_identifier":1,"within_identifier":1,"between_identifier":"different","response":6,"repeated":1,"rt":4.35,"trial":50},{"":291,"subject":499765,"statement_identifier":421051,"procedure_identifier":1,"within_identifier":1,"between_identifier":"different","response":6,"repeated":1,"rt":3.244,"trial":65},{"":292,"subject":499765,"statement_identifier":421052,"procedure_identifier":1,"within_identifier":1,"between_identifier":"different","response":6,"repeated":1,"rt":3.492,"trial":49},{"":293,"subject":499765,"statement_identifier":421053,"procedure_identifier":1,"within_identifier":1,"between_identifier":"different","response":6,"repeated":1,"rt":4.493,"trial":6},{"":294,"subject":499765,"statement_identifier":421054,"procedure_identifier":1,"within_identifier":1,"between_identifier":"different","response":6,"repeated":1,"rt":3.416,"trial":40},{"":295,"subject":499765,"statement_identifier":421055,"procedure_identifier":1,"within_identifier":1,"between_identifier":"different","response":6,"repeated":1,"rt":3.46,"trial":67},{"":296,"subject":499765,"statement_identifier":421056,"procedure_identifier":1,"within_identifier":1,"between_identifier":"different","response":6,"repeated":1,"rt":2.89,"trial":26},{"":297,"subject":499765,"statement_identifier":421057,"procedure_identifier":1,"within_identifier":1,"between_identifier":"different","response":6,"repeated":1,"rt":3.883,"trial":41},{"":298,"subject":499765,"statement_identifier":421058,"procedure_identifier":1,"within_identifier":1,"between_identifier":"different","response":6,"repeated":1,"rt":2.994,"trial":91},{"":299,"subject":499765,"statement_identifier":421059,"procedure_identifier":1,"within_identifier":1,"between_identifier":"different","response":4,"repeated":1,"rt":4.458,"trial":108},{"":300,"subject":499765,"statement_identifier":421060,"procedure_identifier":1,"within_identifier":1,"between_identifier":"different","response":6,"repeated":1,"rt":3.694,"trial":47},{"":301,"subject":499826,"statement_identifier":310085,"procedure_identifier":1,"within_identifier":1,"between_identifier":"different","response":5,"repeated":1,"rt":3.005,"trial":33},{"":302,"subject":499826,"statement_identifier":311061,"procedure_identifier":1,"within_identifier":1,"between_identifier":"different","response":4,"repeated":1,"rt":2.803,"trial":8},{"":303,"subject":499826,"statement_identifier":311062,"procedure_identifier":1,"within_identifier":1,"between_identifier":"different","response":"NA","repeated":1,"rt":"NA","trial":7},{"":304,"subject":499826,"statement_identifier":311063,"procedure_identifier":1,"within_identifier":1,"between_identifier":"different","response":3,"repeated":1,"rt":5.623,"trial":27},{"":305,"subject":499826,"statement_identifier":311064,"procedure_identifier":1,"within_identifier":1,"between_identifier":"different","response":5,"repeated":1,"rt":5.772,"trial":53},{"":306,"subject":499826,"statement_identifier":311065,"procedure_identifier":1,"within_identifier":1,"between_identifier":"different","response":6,"repeated":1,"rt":5.206,"trial":56},{"":307,"subject":499826,"statement_identifier":311066,"procedure_identifier":1,"within_identifier":1,"between_identifier":"different","response":1,"repeated":1,"rt":3.522,"trial":66},{"":308,"subject":499826,"statement_identifier":311067,"procedure_identifier":1,"within_identifier":1,"between_identifier":"different","response":6,"repeated":1,"rt":2.655,"trial":60},{"":309,"subject":499826,"statement_identifier":311068,"procedure_identifier":1,"within_identifier":1,"between_identifier":"different","response":6,"repeated":1,"rt":7.388,"trial":103},{"":310,"subject":499826,"statement_identifier":311069,"procedure_identifier":1,"within_identifier":1,"between_identifier":"different","response":6,"repeated":1,"rt":2.522,"trial":85},{"":311,"subject":499826,"statement_identifier":311070,"procedure_identifier":1,"within_identifier":1,"between_identifier":"different","response":5,"repeated":1,"rt":4.905,"trial":6},{"":312,"subject":499826,"statement_identifier":311071,"procedure_identifier":1,"within_identifier":1,"between_identifier":"different","response":2,"repeated":1,"rt":3.671,"trial":52},{"":313,"subject":499826,"statement_identifier":311072,"procedure_identifier":1,"within_identifier":1,"between_identifier":"different","response":5,"repeated":1,"rt":5.922,"trial":13},{"":314,"subject":499826,"statement_identifier":311073,"procedure_identifier":1,"within_identifier":1,"between_identifier":"different","response":3,"repeated":1,"rt":3.555,"trial":117},{"":315,"subject":499826,"statement_identifier":311074,"procedure_identifier":1,"within_identifier":1,"between_identifier":"different","response":4,"repeated":1,"rt":3.588,"trial":94},{"":316,"subject":499826,"statement_identifier":311075,"procedure_identifier":1,"within_identifier":1,"between_identifier":"different","response":4,"repeated":1,"rt":2.504,"trial":23},{"":317,"subject":499826,"statement_identifier":311076,"procedure_identifier":1,"within_identifier":1,"between_identifier":"different","response":5,"repeated":1,"rt":2.922,"trial":86},{"":318,"subject":499826,"statement_identifier":311077,"procedure_identifier":1,"within_identifier":1,"between_identifier":"different","response":3,"repeated":1,"rt":4.905,"trial":97},{"":319,"subject":499826,"statement_identifier":311078,"procedure_identifier":1,"within_identifier":1,"between_identifier":"different","response":5,"repeated":1,"rt":5.057,"trial":65},{"":320,"subject":499826,"statement_identifier":311079,"procedure_identifier":1,"within_identifier":1,"between_identifier":"different","response":3,"repeated":1,"rt":4.988,"trial":62},{"":321,"subject":499826,"statement_identifier":311080,"procedure_identifier":1,"within_identifier":1,"between_identifier":"different","response":4,"repeated":1,"rt":"NA","trial":5},{"":322,"subject":499826,"statement_identifier":311081,"procedure_identifier":1,"within_identifier":1,"between_identifier":"different","response":5,"repeated":1,"rt":3.423,"trial":80},{"":323,"subject":499826,"statement_identifier":311082,"procedure_identifier":1,"within_identifier":1,"between_identifier":"different","response":4,"repeated":1,"rt":3.172,"trial":55},{"":324,"subject":499826,"statement_identifier":311083,"procedure_identifier":1,"within_identifier":1,"between_identifier":"different","response":3,"repeated":1,"rt":3.687,"trial":20},{"":325,"subject":499826,"statement_identifier":311084,"procedure_identifier":1,"within_identifier":1,"between_identifier":"different","response":2,"repeated":1,"rt":8.021,"trial":19},{"":326,"subject":499826,"statement_identifier":311086,"procedure_identifier":1,"within_identifier":1,"between_identifier":"different","response":4,"repeated":1,"rt":3.921,"trial":28},{"":327,"subject":499826,"statement_identifier":311087,"procedure_identifier":1,"within_identifier":1,"between_identifier":"different","response":3,"repeated":1,"rt":4.338,"trial":26},{"":328,"subject":499826,"statement_identifier":311088,"procedure_identifier":1,"within_identifier":1,"between_identifier":"different","response":5,"repeated":1,"rt":2.038,"trial":116},{"":329,"subject":499826,"statement_identifier":311089,"procedure_identifier":1,"within_identifier":1,"between_identifier":"different","response":5,"repeated":1,"rt":4.022,"trial":69},{"":330,"subject":499826,"statement_identifier":311090,"procedure_identifier":1,"within_identifier":1,"between_identifier":"different","response":3,"repeated":1,"rt":6.706,"trial":74},{"":331,"subject":499826,"statement_identifier":521091,"procedure_identifier":1,"within_identifier":1,"between_identifier":"different","response":4,"repeated":1,"rt":4.055,"trial":9},{"":332,"subject":499826,"statement_identifier":521092,"procedure_identifier":1,"within_identifier":1,"between_identifier":"different","response":4,"repeated":1,"rt":2.637,"trial":110},{"":333,"subject":499826,"statement_identifier":521093,"procedure_identifier":1,"within_identifier":1,"between_identifier":"different","response":3,"repeated":1,"rt":4.89,"trial":42},{"":334,"subject":499826,"statement_identifier":521094,"procedure_identifier":1,"within_identifier":1,"between_identifier":"different","response":3,"repeated":1,"rt":4.305,"trial":113},{"":335,"subject":499826,"statement_identifier":521095,"procedure_identifier":1,"within_identifier":1,"between_identifier":"different","response":3,"repeated":1,"rt":7.106,"trial":98},{"":336,"subject":499826,"statement_identifier":521096,"procedure_identifier":1,"within_identifier":1,"between_identifier":"different","response":4,"repeated":1,"rt":9.289,"trial":2},{"":337,"subject":499826,"statement_identifier":521097,"procedure_identifier":1,"within_identifier":1,"between_identifier":"different","response":4,"repeated":1,"rt":3.405,"trial":83},{"":338,"subject":499826,"statement_identifier":521098,"procedure_identifier":1,"within_identifier":1,"between_identifier":"different","response":4,"repeated":1,"rt":5.638,"trial":15},{"":339,"subject":499826,"statement_identifier":521099,"procedure_identifier":1,"within_identifier":1,"between_identifier":"different","response":4,"repeated":1,"rt":6.372,"trial":10},{"":340,"subject":499826,"statement_identifier":521100,"procedure_identifier":1,"within_identifier":1,"between_identifier":"different","response":6,"repeated":1,"rt":3.09,"trial":61},{"":341,"subject":499826,"statement_identifier":521101,"procedure_identifier":1,"within_identifier":1,"between_identifier":"different","response":2,"repeated":1,"rt":4.773,"trial":49},{"":342,"subject":499826,"statement_identifier":521102,"procedure_identifier":1,"within_identifier":1,"between_identifier":"different","response":3,"repeated":1,"rt":3.955,"trial":68},{"":343,"subject":499826,"statement_identifier":521103,"procedure_identifier":1,"within_identifier":1,"between_identifier":"different","response":3,"repeated":1,"rt":4.439,"trial":104},{"":344,"subject":499826,"statement_identifier":521104,"procedure_identifier":1,"within_identifier":1,"between_identifier":"different","response":3,"repeated":1,"rt":4.938,"trial":24},{"":345,"subject":499826,"statement_identifier":521105,"procedure_identifier":1,"within_identifier":1,"between_identifier":"different","response":4,"repeated":1,"rt":3.156,"trial":29},{"":346,"subject":499826,"statement_identifier":521106,"procedure_identifier":1,"within_identifier":1,"between_identifier":"different","response":4,"repeated":1,"rt":3.52,"trial":91},{"":347,"subject":499826,"statement_identifier":521107,"procedure_identifier":1,"within_identifier":1,"between_identifier":"different","response":4,"repeated":1,"rt":3.339,"trial":99},{"":348,"subject":499826,"statement_identifier":521108,"procedure_identifier":1,"within_identifier":1,"between_identifier":"different","response":2,"repeated":1,"rt":7.222,"trial":93},{"":349,"subject":499826,"statement_identifier":521109,"procedure_identifier":1,"within_identifier":1,"between_identifier":"different","response":4,"repeated":1,"rt":2.221,"trial":118},{"":350,"subject":499826,"statement_identifier":521110,"procedure_identifier":1,"within_identifier":1,"between_identifier":"different","response":5,"repeated":1,"rt":6.039,"trial":63},{"":351,"subject":499826,"statement_identifier":521111,"procedure_identifier":1,"within_identifier":1,"between_identifier":"different","response":5,"repeated":1,"rt":2.287,"trial":87},{"":352,"subject":499826,"statement_identifier":521112,"procedure_identifier":1,"within_identifier":1,"between_identifier":"different","response":4,"repeated":1,"rt":2.571,"trial":109},{"":353,"subject":499826,"statement_identifier":521113,"procedure_identifier":1,"within_identifier":1,"between_identifier":"different","response":4,"repeated":1,"rt":3.089,"trial":40},{"":354,"subject":499826,"statement_identifier":521114,"procedure_identifier":1,"within_identifier":1,"between_identifier":"different","response":5,"repeated":1,"rt":2.89,"trial":64},{"":355,"subject":499826,"statement_identifier":521115,"procedure_identifier":1,"within_identifier":1,"between_identifier":"different","response":4,"repeated":1,"rt":3.154,"trial":43},{"":356,"subject":499826,"statement_identifier":521116,"procedure_identifier":1,"within_identifier":1,"between_identifier":"different","response":1,"repeated":1,"rt":4.639,"trial":30},{"":357,"subject":499826,"statement_identifier":521117,"procedure_identifier":1,"within_identifier":1,"between_identifier":"different","response":4,"repeated":1,"rt":6.306,"trial":88},{"":358,"subject":499826,"statement_identifier":521118,"procedure_identifier":1,"within_identifier":1,"between_identifier":"different","response":5,"repeated":1,"rt":2.64,"trial":38},{"":359,"subject":499826,"statement_identifier":521119,"procedure_identifier":1,"within_identifier":1,"between_identifier":"different","response":4,"repeated":1,"rt":5.288,"trial":32},{"":360,"subject":499826,"statement_identifier":521120,"procedure_identifier":1,"within_identifier":1,"between_identifier":"different","response":3,"repeated":1,"rt":5.273,"trial":47},{"":361,"subject":500027,"statement_identifier":321091,"procedure_identifier":1,"within_identifier":1,"between_identifier":"different","response":6,"repeated":1,"rt":4.177,"trial":110},{"":362,"subject":500027,"statement_identifier":321092,"procedure_identifier":1,"within_identifier":1,"between_identifier":"different","response":6,"repeated":1,"rt":3.563,"trial":15},{"":363,"subject":500027,"statement_identifier":321093,"procedure_identifier":1,"within_identifier":1,"between_identifier":"different","response":5,"repeated":1,"rt":4.485,"trial":73},{"":364,"subject":500027,"statement_identifier":321094,"procedure_identifier":1,"within_identifier":1,"between_identifier":"different","response":6,"repeated":1,"rt":3.256,"trial":98},{"":365,"subject":500027,"statement_identifier":321095,"procedure_identifier":1,"within_identifier":1,"between_identifier":"different","response":1,"repeated":1,"rt":5.362,"trial":95},{"":366,"subject":500027,"statement_identifier":321096,"procedure_identifier":1,"within_identifier":1,"between_identifier":"different","response":5,"repeated":1,"rt":8.204,"trial":8},{"":367,"subject":500027,"statement_identifier":321097,"procedure_identifier":1,"within_identifier":1,"between_identifier":"different","response":3,"repeated":1,"rt":8.142,"trial":1},{"":368,"subject":500027,"statement_identifier":321098,"procedure_identifier":1,"within_identifier":1,"between_identifier":"different","response":5,"repeated":1,"rt":2.534,"trial":80},{"":369,"subject":500027,"statement_identifier":321099,"procedure_identifier":1,"within_identifier":1,"between_identifier":"different","response":1,"repeated":1,"rt":5.3,"trial":19},{"":370,"subject":500027,"statement_identifier":321100,"procedure_identifier":1,"within_identifier":1,"between_identifier":"different","response":5,"repeated":1,"rt":4.682,"trial":61},{"":371,"subject":500027,"statement_identifier":321101,"procedure_identifier":1,"within_identifier":1,"between_identifier":"different","response":6,"repeated":1,"rt":2.294,"trial":81},{"":372,"subject":500027,"statement_identifier":321102,"procedure_identifier":1,"within_identifier":1,"between_identifier":"different","response":6,"repeated":1,"rt":3.817,"trial":118},{"":373,"subject":500027,"statement_identifier":321103,"procedure_identifier":1,"within_identifier":1,"between_identifier":"different","response":6,"repeated":1,"rt":3.329,"trial":62},{"":374,"subject":500027,"statement_identifier":321104,"procedure_identifier":1,"within_identifier":1,"between_identifier":"different","response":6,"repeated":1,"rt":4.65,"trial":70},{"":375,"subject":500027,"statement_identifier":321105,"procedure_identifier":1,"within_identifier":1,"between_identifier":"different","response":6,"repeated":1,"rt":4.351,"trial":90},{"":376,"subject":500027,"statement_identifier":321106,"procedure_identifier":1,"within_identifier":1,"between_identifier":"different","response":2,"repeated":1,"rt":4.059,"trial":59},{"":377,"subject":500027,"statement_identifier":321107,"procedure_identifier":1,"within_identifier":1,"between_identifier":"different","response":5,"repeated":1,"rt":2.798,"trial":79},{"":378,"subject":500027,"statement_identifier":321108,"procedure_identifier":1,"within_identifier":1,"between_identifier":"different","response":5,"repeated":1,"rt":4.172,"trial":2},{"":379,"subject":500027,"statement_identifier":321109,"procedure_identifier":1,"within_identifier":1,"between_identifier":"different","response":5,"repeated":1,"rt":3.235,"trial":64},{"":380,"subject":500027,"statement_identifier":321110,"procedure_identifier":1,"within_identifier":1,"between_identifier":"different","response":5,"repeated":1,"rt":5.326,"trial":89},{"":381,"subject":500027,"statement_identifier":321111,"procedure_identifier":1,"within_identifier":1,"between_identifier":"different","response":6,"repeated":1,"rt":4.018,"trial":28},{"":382,"subject":500027,"statement_identifier":321112,"procedure_identifier":1,"within_identifier":1,"between_identifier":"different","response":6,"repeated":1,"rt":7.389,"trial":6},{"":383,"subject":500027,"statement_identifier":321113,"procedure_identifier":1,"within_identifier":1,"between_identifier":"different","response":6,"repeated":1,"rt":2.978,"trial":24},{"":384,"subject":500027,"statement_identifier":321114,"procedure_identifier":1,"within_identifier":1,"between_identifier":"different","response":6,"repeated":1,"rt":3.34,"trial":84},{"":385,"subject":500027,"statement_identifier":321115,"procedure_identifier":1,"within_identifier":1,"between_identifier":"different","response":6,"repeated":1,"rt":8.021,"trial":91},{"":386,"subject":500027,"statement_identifier":321116,"procedure_identifier":1,"within_identifier":1,"between_identifier":"different","response":5,"repeated":1,"rt":3.987,"trial":112},{"":387,"subject":500027,"statement_identifier":321117,"procedure_identifier":1,"within_identifier":1,"between_identifier":"different","response":5,"repeated":1,"rt":4.145,"trial":113},{"":388,"subject":500027,"statement_identifier":321118,"procedure_identifier":1,"within_identifier":1,"between_identifier":"different","response":6,"repeated":1,"rt":4.003,"trial":53},{"":389,"subject":500027,"statement_identifier":321119,"procedure_identifier":1,"within_identifier":1,"between_identifier":"different","response":4,"repeated":1,"rt":6.061,"trial":12},{"":390,"subject":500027,"statement_identifier":321120,"procedure_identifier":1,"within_identifier":1,"between_identifier":"different","response":6,"repeated":1,"rt":2.846,"trial":86},{"":391,"subject":500027,"statement_identifier":511061,"procedure_identifier":1,"within_identifier":1,"between_identifier":"different","response":5,"repeated":1,"rt":7.51,"trial":111},{"":392,"subject":500027,"statement_identifier":511062,"procedure_identifier":1,"within_identifier":1,"between_identifier":"different","response":5,"repeated":1,"rt":6.306,"trial":37},{"":393,"subject":500027,"statement_identifier":511063,"procedure_identifier":1,"within_identifier":1,"between_identifier":"different","response":5,"repeated":1,"rt":5.458,"trial":71},{"":394,"subject":500027,"statement_identifier":511064,"procedure_identifier":1,"within_identifier":1,"between_identifier":"different","response":3,"repeated":1,"rt":5.295,"trial":87},{"":395,"subject":500027,"statement_identifier":511065,"procedure_identifier":1,"within_identifier":1,"between_identifier":"different","response":6,"repeated":1,"rt":4.055,"trial":42},{"":396,"subject":500027,"statement_identifier":511066,"procedure_identifier":1,"within_identifier":1,"between_identifier":"different","response":6,"repeated":1,"rt":2.886,"trial":83},{"":397,"subject":500027,"statement_identifier":511067,"procedure_identifier":1,"within_identifier":1,"between_identifier":"different","response":6,"repeated":1,"rt":4.795,"trial":30},{"":398,"subject":500027,"statement_identifier":511068,"procedure_identifier":1,"within_identifier":1,"between_identifier":"different","response":6,"repeated":1,"rt":8.543,"trial":18},{"":399,"subject":500027,"statement_identifier":511069,"procedure_identifier":1,"within_identifier":1,"between_identifier":"different","response":3,"repeated":1,"rt":5.939,"trial":78},{"":400,"subject":500027,"statement_identifier":511070,"procedure_identifier":1,"within_identifier":1,"between_identifier":"different","response":4,"repeated":1,"rt":3.12,"trial":92},{"":401,"subject":500027,"statement_identifier":511071,"procedure_identifier":1,"within_identifier":1,"between_identifier":"different","response":5,"repeated":1,"rt":7.802,"trial":9},{"":402,"subject":500027,"statement_identifier":511072,"procedure_identifier":1,"within_identifier":1,"between_identifier":"different","response":1,"repeated":1,"rt":7.042,"trial":120},{"":403,"subject":500027,"statement_identifier":511073,"procedure_identifier":1,"within_identifier":1,"between_identifier":"different","response":5,"repeated":1,"rt":9.421,"trial":34},{"":404,"subject":500027,"statement_identifier":511074,"procedure_identifier":1,"within_identifier":1,"between_identifier":"different","response":6,"repeated":1,"rt":4.943,"trial":35},{"":405,"subject":500027,"statement_identifier":511075,"procedure_identifier":1,"within_identifier":1,"between_identifier":"different","response":2,"repeated":1,"rt":4.327,"trial":50},{"":406,"subject":500027,"statement_identifier":511076,"procedure_identifier":1,"within_identifier":1,"between_identifier":"different","response":6,"repeated":1,"rt":5.127,"trial":44},{"":407,"subject":500027,"statement_identifier":511077,"procedure_identifier":1,"within_identifier":1,"between_identifier":"different","response":6,"repeated":1,"rt":3.628,"trial":11},{"":408,"subject":500027,"statement_identifier":511078,"procedure_identifier":1,"within_identifier":1,"between_identifier":"different","response":2,"repeated":1,"rt":7.382,"trial":117},{"":409,"subject":500027,"statement_identifier":511079,"procedure_identifier":1,"within_identifier":1,"between_identifier":"different","response":6,"repeated":1,"rt":2.98,"trial":66},{"":410,"subject":500027,"statement_identifier":511080,"procedure_identifier":1,"within_identifier":1,"between_identifier":"different","response":6,"repeated":1,"rt":5.184,"trial":97},{"":411,"subject":500027,"statement_identifier":511081,"procedure_identifier":1,"within_identifier":1,"between_identifier":"different","response":6,"repeated":1,"rt":3.883,"trial":47},{"":412,"subject":500027,"statement_identifier":511082,"procedure_identifier":1,"within_identifier":1,"between_identifier":"different","response":6,"repeated":1,"rt":5.321,"trial":17},{"":413,"subject":500027,"statement_identifier":511083,"procedure_identifier":1,"within_identifier":1,"between_identifier":"different","response":5,"repeated":1,"rt":3.953,"trial":54},{"":414,"subject":500027,"statement_identifier":511084,"procedure_identifier":1,"within_identifier":1,"between_identifier":"different","response":6,"repeated":1,"rt":3.804,"trial":10},{"":415,"subject":500027,"statement_identifier":511085,"procedure_identifier":1,"within_identifier":1,"between_identifier":"different","response":6,"repeated":1,"rt":3.733,"trial":27},{"":416,"subject":500027,"statement_identifier":511086,"procedure_identifier":1,"within_identifier":1,"between_identifier":"different","response":6,"repeated":1,"rt":4.811,"trial":29},{"":417,"subject":500027,"statement_identifier":511087,"procedure_identifier":1,"within_identifier":1,"between_identifier":"different","response":6,"repeated":1,"rt":3.734,"trial":56},{"":418,"subject":500027,"statement_identifier":511088,"procedure_identifier":1,"within_identifier":1,"between_identifier":"different","response":5,"repeated":1,"rt":4.266,"trial":58},{"":419,"subject":500027,"statement_identifier":511089,"procedure_identifier":1,"within_identifier":1,"between_identifier":"different","response":6,"repeated":1,"rt":4.311,"trial":68},{"":420,"subject":500027,"statement_identifier":511090,"procedure_identifier":1,"within_identifier":1,"between_identifier":"different","response":4,"repeated":1,"rt":6.528,"trial":96},{"":421,"subject":500043,"statement_identifier":221031,"procedure_identifier":1,"within_identifier":1,"between_identifier":"different","response":5,"repeated":1,"rt":4.481,"trial":18},{"":422,"subject":500043,"statement_identifier":221032,"procedure_identifier":1,"within_identifier":1,"between_identifier":"different","response":6,"repeated":1,"rt":4.376,"trial":31},{"":423,"subject":500043,"statement_identifier":221033,"procedure_identifier":1,"within_identifier":1,"between_identifier":"different","response":6,"repeated":1,"rt":2.81,"trial":64},{"":424,"subject":500043,"statement_identifier":221034,"procedure_identifier":1,"within_identifier":1,"between_identifier":"different","response":6,"repeated":1,"rt":2.514,"trial":91},{"":425,"subject":500043,"statement_identifier":221035,"procedure_identifier":1,"within_identifier":1,"between_identifier":"different","response":4,"repeated":1,"rt":7.549,"trial":22},{"":426,"subject":500043,"statement_identifier":221036,"procedure_identifier":1,"within_identifier":1,"between_identifier":"different","response":6,"repeated":1,"rt":2.217,"trial":59},{"":427,"subject":500043,"statement_identifier":221037,"procedure_identifier":1,"within_identifier":1,"between_identifier":"different","response":6,"repeated":1,"rt":4.585,"trial":63},{"":428,"subject":500043,"statement_identifier":221038,"procedure_identifier":1,"within_identifier":1,"between_identifier":"different","response":6,"repeated":1,"rt":2.398,"trial":37},{"":429,"subject":500043,"statement_identifier":221039,"procedure_identifier":1,"within_identifier":1,"between_identifier":"different","response":6,"repeated":1,"rt":7.122,"trial":58},{"":430,"subject":500043,"statement_identifier":221040,"procedure_identifier":1,"within_identifier":1,"between_identifier":"different","response":4,"repeated":1,"rt":5.005,"trial":114},{"":431,"subject":500043,"statement_identifier":221041,"procedure_identifier":1,"within_identifier":1,"between_identifier":"different","response":4,"repeated":1,"rt":5.561,"trial":75},{"":432,"subject":500043,"statement_identifier":221042,"procedure_identifier":1,"within_identifier":1,"between_identifier":"different","response":5,"repeated":1,"rt":8.878,"trial":17},{"":433,"subject":500043,"statement_identifier":221043,"procedure_identifier":1,"within_identifier":1,"between_identifier":"different","response":6,"repeated":1,"rt":2.931,"trial":70},{"":434,"subject":500043,"statement_identifier":221044,"procedure_identifier":1,"within_identifier":1,"between_identifier":"different","response":6,"repeated":1,"rt":2.738,"trial":115},{"":435,"subject":500043,"statement_identifier":221045,"procedure_identifier":1,"within_identifier":1,"between_identifier":"different","response":6,"repeated":1,"rt":6.223,"trial":109},{"":436,"subject":500043,"statement_identifier":221046,"procedure_identifier":1,"within_identifier":1,"between_identifier":"different","response":6,"repeated":1,"rt":3.915,"trial":45},{"":437,"subject":500043,"statement_identifier":221047,"procedure_identifier":1,"within_identifier":1,"between_identifier":"different","response":6,"repeated":1,"rt":2.839,"trial":101},{"":438,"subject":500043,"statement_identifier":221048,"procedure_identifier":1,"within_identifier":1,"between_identifier":"different","response":6,"repeated":1,"rt":6.964,"trial":2},{"":439,"subject":500043,"statement_identifier":221049,"procedure_identifier":1,"within_identifier":1,"between_identifier":"different","response":6,"repeated":1,"rt":2.102,"trial":73},{"":440,"subject":500043,"statement_identifier":221050,"procedure_identifier":1,"within_identifier":1,"between_identifier":"different","response":6,"repeated":1,"rt":5.803,"trial":24},{"":441,"subject":500043,"statement_identifier":221051,"procedure_identifier":1,"within_identifier":1,"between_identifier":"different","response":"NA","repeated":1,"rt":"NA","trial":102},{"":442,"subject":500043,"statement_identifier":221052,"procedure_identifier":1,"within_identifier":1,"between_identifier":"different","response":6,"repeated":1,"rt":5.61,"trial":9},{"":443,"subject":500043,"statement_identifier":221053,"procedure_identifier":1,"within_identifier":1,"between_identifier":"different","response":6,"repeated":1,"rt":2.98,"trial":51},{"":444,"subject":500043,"statement_identifier":221054,"procedure_identifier":1,"within_identifier":1,"between_identifier":"different","response":6,"repeated":1,"rt":3.514,"trial":110},{"":445,"subject":500043,"statement_identifier":221055,"procedure_identifier":1,"within_identifier":1,"between_identifier":"different","response":6,"repeated":1,"rt":2.398,"trial":49},{"":446,"subject":500043,"statement_identifier":221056,"procedure_identifier":1,"within_identifier":1,"between_identifier":"different","response":6,"repeated":1,"rt":2.458,"trial":35},{"":447,"subject":500043,"statement_identifier":221057,"procedure_identifier":1,"within_identifier":1,"between_identifier":"different","response":6,"repeated":1,"rt":4.353,"trial":47},{"":448,"subject":500043,"statement_identifier":221058,"procedure_identifier":1,"within_identifier":1,"between_identifier":"different","response":6,"repeated":1,"rt":2.823,"trial":43},{"":449,"subject":500043,"statement_identifier":221059,"procedure_identifier":1,"within_identifier":1,"between_identifier":"different","response":4,"repeated":1,"rt":6.11,"trial":20},{"":450,"subject":500043,"statement_identifier":221060,"procedure_identifier":1,"within_identifier":1,"between_identifier":"different","response":6,"repeated":1,"rt":4.03,"trial":33},{"":451,"subject":500043,"statement_identifier":411001,"procedure_identifier":1,"within_identifier":1,"between_identifier":"different","response":6,"repeated":1,"rt":3.167,"trial":106},{"":452,"subject":500043,"statement_identifier":411002,"procedure_identifier":1,"within_identifier":1,"between_identifier":"different","response":5,"repeated":1,"rt":7.599,"trial":46},{"":453,"subject":500043,"statement_identifier":411003,"procedure_identifier":1,"within_identifier":1,"between_identifier":"different","response":6,"repeated":1,"rt":2.725,"trial":67},{"":454,"subject":500043,"statement_identifier":411004,"procedure_identifier":1,"within_identifier":1,"between_identifier":"different","response":5,"repeated":1,"rt":5.1,"trial":21},{"":455,"subject":500043,"statement_identifier":411005,"procedure_identifier":1,"within_identifier":1,"between_identifier":"different","response":6,"repeated":1,"rt":5.12,"trial":86},{"":456,"subject":500043,"statement_identifier":411006,"procedure_identifier":1,"within_identifier":1,"between_identifier":"different","response":6,"repeated":1,"rt":3.508,"trial":57},{"":457,"subject":500043,"statement_identifier":411007,"procedure_identifier":1,"within_identifier":1,"between_identifier":"different","response":6,"repeated":1,"rt":3.17,"trial":62},{"":458,"subject":500043,"statement_identifier":411008,"procedure_identifier":1,"within_identifier":1,"between_identifier":"different","response":6,"repeated":1,"rt":2.431,"trial":66},{"":459,"subject":500043,"statement_identifier":411009,"procedure_identifier":1,"within_identifier":1,"between_identifier":"different","response":6,"repeated":1,"rt":2.404,"trial":53},{"":460,"subject":500043,"statement_identifier":411010,"procedure_identifier":1,"within_identifier":1,"between_identifier":"different","response":6,"repeated":1,"rt":2.952,"trial":107},{"":461,"subject":500043,"statement_identifier":411011,"procedure_identifier":1,"within_identifier":1,"between_identifier":"different","response":6,"repeated":1,"rt":5.015,"trial":108},{"":462,"subject":500043,"statement_identifier":411012,"procedure_identifier":1,"within_identifier":1,"between_identifier":"different","response":6,"repeated":1,"rt":3.994,"trial":30},{"":463,"subject":500043,"statement_identifier":411013,"procedure_identifier":1,"within_identifier":1,"between_identifier":"different","response":6,"repeated":1,"rt":3.628,"trial":50},{"":464,"subject":500043,"statement_identifier":411014,"procedure_identifier":1,"within_identifier":1,"between_identifier":"different","response":6,"repeated":1,"rt":1.995,"trial":42},{"":465,"subject":500043,"statement_identifier":411015,"procedure_identifier":1,"within_identifier":1,"between_identifier":"different","response":6,"repeated":1,"rt":4.451,"trial":10},{"":466,"subject":500043,"statement_identifier":411016,"procedure_identifier":1,"within_identifier":1,"between_identifier":"different","response":6,"repeated":1,"rt":2.88,"trial":116},{"":467,"subject":500043,"statement_identifier":411017,"procedure_identifier":1,"within_identifier":1,"between_identifier":"different","response":6,"repeated":1,"rt":3.993,"trial":25},{"":468,"subject":500043,"statement_identifier":411018,"procedure_identifier":1,"within_identifier":1,"between_identifier":"different","response":6,"repeated":1,"rt":2.481,"trial":14},{"":469,"subject":500043,"statement_identifier":411019,"procedure_identifier":1,"within_identifier":1,"between_identifier":"different","response":6,"repeated":1,"rt":5.2,"trial":3},{"":470,"subject":500043,"statement_identifier":411020,"procedure_identifier":1,"within_identifier":1,"between_identifier":"different","response":6,"repeated":1,"rt":8.652,"trial":89},{"":471,"subject":500043,"statement_identifier":411021,"procedure_identifier":1,"within_identifier":1,"between_identifier":"different","response":6,"repeated":1,"rt":4.335,"trial":52},{"":472,"subject":500043,"statement_identifier":411022,"procedure_identifier":1,"within_identifier":1,"between_identifier":"different","response":6,"repeated":1,"rt":2.129,"trial":120},{"":473,"subject":500043,"statement_identifier":411023,"procedure_identifier":1,"within_identifier":1,"between_identifier":"different","response":6,"repeated":1,"rt":7.883,"trial":27},{"":474,"subject":500043,"statement_identifier":411024,"procedure_identifier":1,"within_identifier":1,"between_identifier":"different","response":6,"repeated":1,"rt":3.942,"trial":44},{"":475,"subject":500043,"statement_identifier":411025,"procedure_identifier":1,"within_identifier":1,"between_identifier":"different","response":6,"repeated":1,"rt":3.062,"trial":84},{"":476,"subject":500043,"statement_identifier":411026,"procedure_identifier":1,"within_identifier":1,"between_identifier":"different","response":6,"repeated":1,"rt":3.992,"trial":26},{"":477,"subject":500043,"statement_identifier":411027,"procedure_identifier":1,"within_identifier":1,"between_identifier":"different","response":6,"repeated":1,"rt":4.357,"trial":100},{"":478,"subject":500043,"statement_identifier":411028,"procedure_identifier":1,"within_identifier":1,"between_identifier":"different","response":6,"repeated":1,"rt":3.145,"trial":39},{"":479,"subject":500043,"statement_identifier":411029,"procedure_identifier":1,"within_identifier":1,"between_identifier":"different","response":4,"repeated":1,"rt":6.473,"trial":113},{"":480,"subject":500043,"statement_identifier":411030,"procedure_identifier":1,"within_identifier":1,"between_identifier":"different","response":4,"repeated":1,"rt":6.73,"trial":16},{"":481,"subject":500218,"statement_identifier":211001,"procedure_identifier":1,"within_identifier":1,"between_identifier":"same","response":5,"repeated":1,"rt":4.765,"trial":82},{"":482,"subject":500218,"statement_identifier":211002,"procedure_identifier":1,"within_identifier":1,"between_identifier":"same","response":4,"repeated":1,"rt":4.497,"trial":57},{"":483,"subject":500218,"statement_identifier":211003,"procedure_identifier":1,"within_identifier":1,"between_identifier":"same","response":5,"repeated":1,"rt":5.352,"trial":74},{"":484,"subject":500218,"statement_identifier":211004,"procedure_identifier":1,"within_identifier":1,"between_identifier":"same","response":4,"repeated":1,"rt":4.539,"trial":64},{"":485,"subject":500218,"statement_identifier":211005,"procedure_identifier":1,"within_identifier":1,"between_identifier":"same","response":1,"repeated":1,"rt":7.087,"trial":31},{"":486,"subject":500218,"statement_identifier":211006,"procedure_identifier":1,"within_identifier":1,"between_identifier":"same","response":5,"repeated":1,"rt":8.968,"trial":108},{"":487,"subject":500218,"statement_identifier":211007,"procedure_identifier":1,"within_identifier":1,"between_identifier":"same","response":5,"repeated":1,"rt":8.413,"trial":81},{"":488,"subject":500218,"statement_identifier":211008,"procedure_identifier":1,"within_identifier":1,"between_identifier":"same","response":2,"repeated":1,"rt":"NA","trial":5},{"":489,"subject":500218,"statement_identifier":211009,"procedure_identifier":1,"within_identifier":1,"between_identifier":"same","response":2,"repeated":1,"rt":4.78,"trial":25},{"":490,"subject":500218,"statement_identifier":211010,"procedure_identifier":1,"within_identifier":1,"between_identifier":"same","response":3,"repeated":1,"rt":"NA","trial":11},{"":491,"subject":500218,"statement_identifier":211011,"procedure_identifier":1,"within_identifier":1,"between_identifier":"same","response":5,"repeated":1,"rt":7.654,"trial":120},{"":492,"subject":500218,"statement_identifier":211012,"procedure_identifier":1,"within_identifier":1,"between_identifier":"same","response":5,"repeated":1,"rt":6.93,"trial":22},{"":493,"subject":500218,"statement_identifier":211013,"procedure_identifier":1,"within_identifier":1,"between_identifier":"same","response":3,"repeated":1,"rt":"NA","trial":61},{"":494,"subject":500218,"statement_identifier":211014,"procedure_identifier":1,"within_identifier":1,"between_identifier":"same","response":4,"repeated":1,"rt":4.616,"trial":34},{"":495,"subject":500218,"statement_identifier":211015,"procedure_identifier":1,"within_identifier":1,"between_identifier":"same","response":3,"repeated":1,"rt":"NA","trial":26},{"":496,"subject":500218,"statement_identifier":211016,"procedure_identifier":1,"within_identifier":1,"between_identifier":"same","response":5,"repeated":1,"rt":5.671,"trial":36},{"":497,"subject":500218,"statement_identifier":211017,"procedure_identifier":1,"within_identifier":1,"between_identifier":"same","response":5,"repeated":1,"rt":7.473,"trial":116},{"":498,"subject":500218,"statement_identifier":211018,"procedure_identifier":1,"within_identifier":1,"between_identifier":"same","response":"NA","repeated":1,"rt":"NA","trial":110},{"":499,"subject":500218,"statement_identifier":211019,"procedure_identifier":1,"within_identifier":1,"between_identifier":"same","response":5,"repeated":1,"rt":5.334,"trial":37},{"":500,"subject":500218,"statement_identifier":211020,"procedure_identifier":1,"within_identifier":1,"between_identifier":"same","response":3,"repeated":1,"rt":6.381,"trial":54},{"":501,"subject":500218,"statement_identifier":211021,"procedure_identifier":1,"within_identifier":1,"between_identifier":"same","response":5,"repeated":1,"rt":8.868,"trial":119},{"":502,"subject":500218,"statement_identifier":211022,"procedure_identifier":1,"within_identifier":1,"between_identifier":"same","response":6,"repeated":1,"rt":3.649,"trial":43},{"":503,"subject":500218,"statement_identifier":211023,"procedure_identifier":1,"within_identifier":1,"between_identifier":"same","response":6,"repeated":1,"rt":6.764,"trial":7},{"":504,"subject":500218,"statement_identifier":211024,"procedure_identifier":1,"within_identifier":1,"between_identifier":"same","response":5,"repeated":1,"rt":8.81,"trial":80},{"":505,"subject":500218,"statement_identifier":211025,"procedure_identifier":1,"within_identifier":1,"between_identifier":"same","response":5,"repeated":1,"rt":6.21,"trial":42},{"":506,"subject":500218,"statement_identifier":211026,"procedure_identifier":1,"within_identifier":1,"between_identifier":"same","response":4,"repeated":1,"rt":4.143,"trial":63},{"":507,"subject":500218,"statement_identifier":211027,"procedure_identifier":1,"within_identifier":1,"between_identifier":"same","response":2,"repeated":1,"rt":7.394,"trial":13},{"":508,"subject":500218,"statement_identifier":211028,"procedure_identifier":1,"within_identifier":1,"between_identifier":"same","response":4,"repeated":1,"rt":6.558,"trial":46},{"":509,"subject":500218,"statement_identifier":211029,"procedure_identifier":1,"within_identifier":1,"between_identifier":"same","response":5,"repeated":1,"rt":5.297,"trial":103},{"":510,"subject":500218,"statement_identifier":211030,"procedure_identifier":1,"within_identifier":1,"between_identifier":"same","response":"NA","repeated":1,"rt":"NA","trial":15},{"":511,"subject":500218,"statement_identifier":421031,"procedure_identifier":1,"within_identifier":1,"between_identifier":"same","response":6,"repeated":1,"rt":5.015,"trial":8},{"":512,"subject":500218,"statement_identifier":421032,"procedure_identifier":1,"within_identifier":1,"between_identifier":"same","response":5,"repeated":1,"rt":3.946,"trial":71},{"":513,"subject":500218,"statement_identifier":421033,"procedure_identifier":1,"within_identifier":1,"between_identifier":"same","response":4,"repeated":1,"rt":5.417,"trial":113},{"":514,"subject":500218,"statement_identifier":421034,"procedure_identifier":1,"within_identifier":1,"between_identifier":"same","response":3,"repeated":1,"rt":5.199,"trial":20},{"":515,"subject":500218,"statement_identifier":421035,"procedure_identifier":1,"within_identifier":1,"between_identifier":"same","response":3,"repeated":1,"rt":6.895,"trial":66},{"":516,"subject":500218,"statement_identifier":421036,"procedure_identifier":1,"within_identifier":1,"between_identifier":"same","response":5,"repeated":1,"rt":6.792,"trial":38},{"":517,"subject":500218,"statement_identifier":421037,"procedure_identifier":1,"within_identifier":1,"between_identifier":"same","response":3,"repeated":1,"rt":5.721,"trial":32},{"":518,"subject":500218,"statement_identifier":421038,"procedure_identifier":1,"within_identifier":1,"between_identifier":"same","response":4,"repeated":1,"rt":"NA","trial":76},{"":519,"subject":500218,"statement_identifier":421039,"procedure_identifier":1,"within_identifier":1,"between_identifier":"same","response":5,"repeated":1,"rt":3.336,"trial":56},{"":520,"subject":500218,"statement_identifier":421040,"procedure_identifier":1,"within_identifier":1,"between_identifier":"same","response":5,"repeated":1,"rt":5.803,"trial":77},{"":521,"subject":500218,"statement_identifier":421041,"procedure_identifier":1,"within_identifier":1,"between_identifier":"same","response":5,"repeated":1,"rt":4.134,"trial":55},{"":522,"subject":500218,"statement_identifier":421042,"procedure_identifier":1,"within_identifier":1,"between_identifier":"same","response":5,"repeated":1,"rt":7.778,"trial":89},{"":523,"subject":500218,"statement_identifier":421043,"procedure_identifier":1,"within_identifier":1,"between_identifier":"same","response":3,"repeated":1,"rt":8.232,"trial":100},{"":524,"subject":500218,"statement_identifier":421044,"procedure_identifier":1,"within_identifier":1,"between_identifier":"same","response":3,"repeated":1,"rt":7.322,"trial":47},{"":525,"subject":500218,"statement_identifier":421045,"procedure_identifier":1,"within_identifier":1,"between_identifier":"same","response":5,"repeated":1,"rt":4.86,"trial":40},{"":526,"subject":500218,"statement_identifier":421046,"procedure_identifier":1,"within_identifier":1,"between_identifier":"same","response":5,"repeated":1,"rt":4.929,"trial":84},{"":527,"subject":500218,"statement_identifier":421047,"procedure_identifier":1,"within_identifier":1,"between_identifier":"same","response":5,"repeated":1,"rt":9.404,"trial":23},{"":528,"subject":500218,"statement_identifier":421048,"procedure_identifier":1,"within_identifier":1,"between_identifier":"same","response":4,"repeated":1,"rt":7.764,"trial":21},{"":529,"subject":500218,"statement_identifier":421049,"procedure_identifier":1,"within_identifier":1,"between_identifier":"same","response":2,"repeated":1,"rt":"NA","trial":65},{"":530,"subject":500218,"statement_identifier":421050,"procedure_identifier":1,"within_identifier":1,"between_identifier":"same","response":"NA","repeated":1,"rt":"NA","trial":1},{"":531,"subject":500218,"statement_identifier":421051,"procedure_identifier":1,"within_identifier":1,"between_identifier":"same","response":4,"repeated":1,"rt":7.449,"trial":109},{"":532,"subject":500218,"statement_identifier":421052,"procedure_identifier":1,"within_identifier":1,"between_identifier":"same","response":3,"repeated":1,"rt":"NA","trial":4},{"":533,"subject":500218,"statement_identifier":421053,"procedure_identifier":1,"within_identifier":1,"between_identifier":"same","response":4,"repeated":1,"rt":6.685,"trial":115},{"":534,"subject":500218,"statement_identifier":421054,"procedure_identifier":1,"within_identifier":1,"between_identifier":"same","response":5,"repeated":1,"rt":7.103,"trial":90},{"":535,"subject":500218,"statement_identifier":421055,"procedure_identifier":1,"within_identifier":1,"between_identifier":"same","response":5,"repeated":1,"rt":5.93,"trial":44},{"":536,"subject":500218,"statement_identifier":421056,"procedure_identifier":1,"within_identifier":1,"between_identifier":"same","response":5,"repeated":1,"rt":6.317,"trial":16},{"":537,"subject":500218,"statement_identifier":421057,"procedure_identifier":1,"within_identifier":1,"between_identifier":"same","response":4,"repeated":1,"rt":"NA","trial":78},{"":538,"subject":500218,"statement_identifier":421058,"procedure_identifier":1,"within_identifier":1,"between_identifier":"same","response":2,"repeated":1,"rt":3.928,"trial":105},{"":539,"subject":500218,"statement_identifier":421059,"procedure_identifier":1,"within_identifier":1,"between_identifier":"same","response":4,"repeated":1,"rt":5.552,"trial":49},{"":540,"subject":500218,"statement_identifier":421060,"procedure_identifier":1,"within_identifier":1,"between_identifier":"same","response":5,"repeated":1,"rt":7.636,"trial":87},{"":541,"subject":500291,"s