{"publication_data":{"authors":"Brashier, Rand","first_author":"Brashier","title":"Illusory Truth Occurs Even with Incentives for Accuracy","apa_reference":"Brashier, N., & Rand, D. (2021). Illusory truth occurs even with incentives for accuracy.","conducted":"2021","country":"USA","keywords":" incentives, illusory truth, fluency","contact":"Matteo und Sabrina"},"study_info":{"0":{"study_data":{"truth_rating_scale":"dichotomous","truth_rating_scale_details":"","truth_rating_steps":"2","subjective_certainty":"0","rt_measured":"1","rt_onset":"stimulus_onset","n_participants":"602","participant_age":"36.76","percentage_female":"43.5","physiological_measures":"0","cognitive_models":"0","open_data_link":"osf.io/tb3hk","study_comment":"Reaction time is available in raw data, although there is no further information in the paper.","statementset_name":"Statementset 1","secondary_tasks":"0","secondary_task_type":"","secondary_task_name":""},"repetition_data":{"0":{"presentation_identifier":"1","repetition_time":"0","repetition_location":"NA","repetition_type":"exact","max_n_repetitions":"1","n_statements":"16","truth_instructions":"0","truth_instruction_timing":"","presentation_time_s":"","presented_until_response":"1","response_deadline":"0","response_deadline_s":"","percent_repeated":"50","presentation_type":"visual","phase":"exposure","repetition_instructions":"1","repetition_instruction_timing":"test"},"1":{"presentation_identifier":"2","repetition_time":"0","repetition_location":"NA","repetition_type":"exact","max_n_repetitions":"1","n_statements":"32","truth_instructions":"0","truth_instruction_timing":"","presentation_time_s":"","presented_until_response":"1","response_deadline":"0","response_deadline_s":"","percent_repeated":"50","presentation_type":"visual","phase":"test","repetition_instructions":"1","repetition_instruction_timing":"test"},"2":{"presentation_identifier":"3","repetition_time":"0","repetition_location":"NA","repetition_type":"exact","max_n_repetitions":"1","n_statements":"32","truth_instructions":"0","truth_instruction_timing":"","presentation_time_s":"","presented_until_response":"1","response_deadline":"0","response_deadline_s":"","percent_repeated":"50","presentation_type":"visual","phase":"test","repetition_instructions":"1","repetition_instruction_timing":"test"}},"condition_data":{"has_within_conditions":"0","within_condition_details":"","has_between_conditions":"1","between_condition_details":[{"name":"Half of the participants learned that the experimenter would randomly choose one answer and assign a $1 bonus if it was correct","identifier":"incentive"},{"name":"The other half received no monetary incentive","identifier":"standard"}]},"measurement_data":{"measures":[],"additional_measures":"0"},"raw_data":[{"subject":1001,"presentation_identifier":2,"trial":"NA","within_identifier":"NA","between_identifier":"standard","statement_identifier":1,"rt":0.847,"response":1,"repeated":1,"certainty":"NA"},{"subject":1001,"presentation_identifier":2,"trial":"NA","within_identifier":"NA","between_identifier":"standard","statement_identifier":2,"rt":1228,"response":1,"repeated":1,"certainty":"NA"},{"subject":1001,"presentation_identifier":2,"trial":"NA","within_identifier":"NA","between_identifier":"standard","statement_identifier":3,"rt":0.912,"response":1,"repeated":1,"certainty":"NA"},{"subject":1001,"presentation_identifier":2,"trial":"NA","within_identifier":"NA","between_identifier":"standard","statement_identifier":4,"rt":1234,"response":0,"repeated":1,"certainty":"NA"},{"subject":1001,"presentation_identifier":2,"trial":"NA","within_identifier":"NA","between_identifier":"standard","statement_identifier":5,"rt":1607,"response":1,"repeated":1,"certainty":"NA"},{"subject":1001,"presentation_identifier":2,"trial":"NA","within_identifier":"NA","between_identifier":"standard","statement_identifier":6,"rt":1985,"response":0,"repeated":1,"certainty":"NA"},{"subject":1001,"presentation_identifier":2,"trial":"NA","within_identifier":"NA","between_identifier":"standard","statement_identifier":7,"rt":0.78,"response":0,"repeated":1,"certainty":"NA"},{"subject":1001,"presentation_identifier":2,"trial":"NA","within_identifier":"NA","between_identifier":"standard","statement_identifier":8,"rt":0.723,"response":1,"repeated":1,"certainty":"NA"},{"subject":1001,"presentation_identifier":2,"trial":"NA","within_identifier":"NA","between_identifier":"standard","statement_identifier":9,"rt":1057,"response":1,"repeated":1,"certainty":"NA"},{"subject":1001,"presentation_identifier":2,"trial":"NA","within_identifier":"NA","between_identifier":"standard","statement_identifier":10,"rt":31107,"response":0,"repeated":1,"certainty":"NA"},{"subject":1001,"presentation_identifier":2,"trial":"NA","within_identifier":"NA","between_identifier":"standard","statement_identifier":11,"rt":0.959,"response":1,"repeated":1,"certainty":"NA"},{"subject":1001,"presentation_identifier":2,"trial":"NA","within_identifier":"NA","between_identifier":"standard","statement_identifier":12,"rt":1383,"response":1,"repeated":1,"certainty":"NA"},{"subject":1001,"presentation_identifier":2,"trial":"NA","within_identifier":"NA","between_identifier":"standard","statement_identifier":13,"rt":0.712,"response":0,"repeated":1,"certainty":"NA"},{"subject":1001,"presentation_identifier":2,"trial":"NA","within_identifier":"NA","between_identifier":"standard","statement_identifier":14,"rt":0.696,"response":0,"repeated":1,"certainty":"NA"},{"subject":1001,"presentation_identifier":2,"trial":"NA","within_identifier":"NA","between_identifier":"standard","statement_identifier":15,"rt":0.879,"response":1,"repeated":1,"certainty":"NA"},{"subject":1001,"presentation_identifier":2,"trial":"NA","within_identifier":"NA","between_identifier":"standard","statement_identifier":16,"rt":1632,"response":1,"repeated":1,"certainty":"NA"},{"subject":1001,"presentation_identifier":2,"trial":"NA","within_identifier":"NA","between_identifier":"standard","statement_identifier":17,"rt":1053,"response":0,"repeated":0,"certainty":"NA"},{"subject":1001,"presentation_identifier":2,"trial":"NA","within_identifier":"NA","between_identifier":"standard","statement_identifier":18,"rt":0.898,"response":1,"repeated":0,"certainty":"NA"},{"subject":1001,"presentation_identifier":2,"trial":"NA","within_identifier":"NA","between_identifier":"standard","statement_identifier":19,"rt":0.595,"response":0,"repeated":0,"certainty":"NA"},{"subject":1001,"presentation_identifier":2,"trial":"NA","within_identifier":"NA","between_identifier":"standard","statement_identifier":20,"rt":1668,"response":0,"repeated":0,"certainty":"NA"},{"subject":1001,"presentation_identifier":2,"trial":"NA","within_identifier":"NA","between_identifier":"standard","statement_identifier":21,"rt":0.753,"response":1,"repeated":0,"certainty":"NA"},{"subject":1001,"presentation_identifier":2,"trial":"NA","within_identifier":"NA","between_identifier":"standard","statement_identifier":22,"rt":1772,"response":0,"repeated":0,"certainty":"NA"},{"subject":1001,"presentation_identifier":2,"trial":"NA","within_identifier":"NA","between_identifier":"standard","statement_identifier":23,"rt":45506,"response":0,"repeated":0,"certainty":"NA"},{"subject":1001,"presentation_identifier":2,"trial":"NA","within_identifier":"NA","between_identifier":"standard","statement_identifier":24,"rt":0.863,"response":1,"repeated":0,"certainty":"NA"},{"subject":1001,"presentation_identifier":2,"trial":"NA","within_identifier":"NA","between_identifier":"standard","statement_identifier":25,"rt":0.876,"response":0,"repeated":0,"certainty":"NA"},{"subject":1001,"presentation_identifier":2,"trial":"NA","within_identifier":"NA","between_identifier":"standard","statement_identifier":26,"rt":0.71,"response":1,"repeated":0,"certainty":"NA"},{"subject":1001,"presentation_identifier":2,"trial":"NA","within_identifier":"NA","between_identifier":"standard","statement_identifier":27,"rt":1414,"response":0,"repeated":0,"certainty":"NA"},{"subject":1001,"presentation_identifier":2,"trial":"NA","within_identifier":"NA","between_identifier":"standard","statement_identifier":28,"rt":2113,"response":0,"repeated":0,"certainty":"NA"},{"subject":1001,"presentation_identifier":2,"trial":"NA","within_identifier":"NA","between_identifier":"standard","statement_identifier":29,"rt":0.759,"response":1,"repeated":0,"certainty":"NA"},{"subject":1001,"presentation_identifier":2,"trial":"NA","within_identifier":"NA","between_identifier":"standard","statement_identifier":30,"rt":1147,"response":1,"repeated":0,"certainty":"NA"},{"subject":1001,"presentation_identifier":2,"trial":"NA","within_identifier":"NA","between_identifier":"standard","statement_identifier":31,"rt":1253,"response":1,"repeated":0,"certainty":"NA"},{"subject":1001,"presentation_identifier":2,"trial":"NA","within_identifier":"NA","between_identifier":"standard","statement_identifier":32,"rt":45444,"response":1,"repeated":0,"certainty":"NA"},{"subject":1002,"presentation_identifier":2,"trial":"NA","within_identifier":"NA","between_identifier":"standard","statement_identifier":1,"rt":3389,"response":0,"repeated":0,"certainty":"NA"},{"subject":1002,"presentation_identifier":2,"trial":"NA","within_identifier":"NA","between_identifier":"standard","statement_identifier":2,"rt":1597,"response":0,"repeated":0,"certainty":"NA"},{"subject":1002,"presentation_identifier":2,"trial":"NA","within_identifier":"NA","between_identifier":"standard","statement_identifier":3,"rt":1778,"response":0,"repeated":0,"certainty":"NA"},{"subject":1002,"presentation_identifier":2,"trial":"NA","within_identifier":"NA","between_identifier":"standard","statement_identifier":4,"rt":1559,"response":1,"repeated":0,"certainty":"NA"},{"subject":1002,"presentation_identifier":2,"trial":"NA","within_identifier":"NA","between_identifier":"standard","statement_identifier":5,"rt":3439,"response":1,"repeated":0,"certainty":"NA"},{"subject":1002,"presentation_identifier":2,"trial":"NA","within_identifier":"NA","between_identifier":"standard","statement_identifier":6,"rt":1966,"response":0,"repeated":0,"certainty":"NA"},{"subject":1002,"presentation_identifier":2,"trial":"NA","within_identifier":"NA","between_identifier":"standard","statement_identifier":7,"rt":1963,"response":0,"repeated":0,"certainty":"NA"},{"subject":1002,"presentation_identifier":2,"trial":"NA","within_identifier":"NA","between_identifier":"standard","statement_identifier":8,"rt":1517,"response":1,"repeated":0,"certainty":"NA"},{"subject":1002,"presentation_identifier":2,"trial":"NA","within_identifier":"NA","between_identifier":"standard","statement_identifier":9,"rt":2189,"response":1,"repeated":0,"certainty":"NA"},{"subject":1002,"presentation_identifier":2,"trial":"NA","within_identifier":"NA","between_identifier":"standard","statement_identifier":10,"rt":2054,"response":1,"repeated":0,"certainty":"NA"},{"subject":1002,"presentation_identifier":2,"trial":"NA","within_identifier":"NA","between_identifier":"standard","statement_identifier":11,"rt":2215,"response":0,"repeated":0,"certainty":"NA"},{"subject":1002,"presentation_identifier":2,"trial":"NA","within_identifier":"NA","between_identifier":"standard","statement_identifier":12,"rt":1393,"response":1,"repeated":0,"certainty":"NA"},{"subject":1002,"presentation_identifier":2,"trial":"NA","within_identifier":"NA","between_identifier":"standard","statement_identifier":13,"rt":2591,"response":0,"repeated":0,"certainty":"NA"},{"subject":1002,"presentation_identifier":2,"trial":"NA","within_identifier":"NA","between_identifier":"standard","statement_identifier":14,"rt":33970,"response":1,"repeated":0,"certainty":"NA"},{"subject":1002,"presentation_identifier":2,"trial":"NA","within_identifier":"NA","between_identifier":"standard","statement_identifier":15,"rt":2537,"response":0,"repeated":0,"certainty":"NA"},{"subject":1002,"presentation_identifier":2,"trial":"NA","within_identifier":"NA","between_identifier":"standard","statement_identifier":16,"rt":2658,"response":1,"repeated":0,"certainty":"NA"},{"subject":1002,"presentation_identifier":2,"trial":"NA","within_identifier":"NA","between_identifier":"standard","statement_identifier":17,"rt":2019,"response":0,"repeated":1,"certainty":"NA"},{"subject":1002,"presentation_identifier":2,"trial":"NA","within_identifier":"NA","between_identifier":"standard","statement_identifier":18,"rt":47150,"response":1,"repeated":1,"certainty":"NA"},{"subject":1002,"presentation_identifier":2,"trial":"NA","within_identifier":"NA","between_identifier":"standard","statement_identifier":19,"rt":2508,"response":1,"repeated":1,"certainty":"NA"},{"subject":1002,"presentation_identifier":2,"trial":"NA","within_identifier":"NA","between_identifier":"standard","statement_identifier":20,"rt":2729,"response":0,"repeated":1,"certainty":"NA"},{"subject":1002,"presentation_identifier":2,"trial":"NA","within_identifier":"NA","between_identifier":"standard","statement_identifier":21,"rt":2202,"response":1,"repeated":1,"certainty":"NA"},{"subject":1002,"presentation_identifier":2,"trial":"NA","within_identifier":"NA","between_identifier":"standard","statement_identifier":22,"rt":1587,"response":1,"repeated":1,"certainty":"NA"},{"subject":1002,"presentation_identifier":2,"trial":"NA","within_identifier":"NA","between_identifier":"standard","statement_identifier":23,"rt":1957,"response":1,"repeated":1,"certainty":"NA"},{"subject":1002,"presentation_identifier":2,"trial":"NA","within_identifier":"NA","between_identifier":"standard","statement_identifier":24,"rt":2088,"response":1,"repeated":1,"certainty":"NA"},{"subject":1002,"presentation_identifier":2,"trial":"NA","within_identifier":"NA","between_identifier":"standard","statement_identifier":25,"rt":2469,"response":0,"repeated":1,"certainty":"NA"},{"subject":1002,"presentation_identifier":2,"trial":"NA","within_identifier":"NA","between_identifier":"standard","statement_identifier":26,"rt":2384,"response":1,"repeated":1,"certainty":"NA"},{"subject":1002,"presentation_identifier":2,"trial":"NA","within_identifier":"NA","between_identifier":"standard","statement_identifier":27,"rt":1692,"response":1,"repeated":1,"certainty":"NA"},{"subject":1002,"presentation_identifier":2,"trial":"NA","within_identifier":"NA","between_identifier":"standard","statement_identifier":28,"rt":1771,"response":1,"repeated":1,"certainty":"NA"},{"subject":1002,"presentation_identifier":2,"trial":"NA","within_identifier":"NA","between_identifier":"standard","statement_identifier":29,"rt":2828,"response":0,"repeated":1,"certainty":"NA"},{"subject":1002,"presentation_identifier":2,"trial":"NA","within_identifier":"NA","between_identifier":"standard","statement_identifier":30,"rt":1762,"response":1,"repeated":1,"certainty":"NA"},{"subject":1002,"presentation_identifier":2,"trial":"NA","within_identifier":"NA","between_identifier":"standard","statement_identifier":31,"rt":3221,"response":0,"repeated":1,"certainty":"NA"},{"subject":1002,"presentation_identifier":2,"trial":"NA","within_identifier":"NA","between_identifier":"standard","statement_identifier":32,"rt":1665,"response":1,"repeated":1,"certainty":"NA"},{"subject":1003,"presentation_identifier":3,"trial":"NA","within_identifier":"NA","between_identifier":"incentive","statement_identifier":1,"rt":1739,"response":1,"repeated":1,"certainty":"NA"},{"subject":1003,"presentation_identifier":3,"trial":"NA","within_identifier":"NA","between_identifier":"incentive","statement_identifier":2,"rt":1656,"response":1,"repeated":1,"certainty":"NA"},{"subject":1003,"presentation_identifier":3,"trial":"NA","within_identifier":"NA","between_identifier":"incentive","statement_identifier":3,"rt":2378,"response":1,"repeated":1,"certainty":"NA"},{"subject":1003,"presentation_identifier":3,"trial":"NA","within_identifier":"NA","between_identifier":"incentive","statement_identifier":4,"rt":1605,"response":1,"repeated":1,"certainty":"NA"},{"subject":1003,"presentation_identifier":3,"trial":"NA","within_identifier":"NA","between_identifier":"incentive","statement_identifier":5,"rt":1569,"response":1,"repeated":1,"certainty":"NA"},{"subject":1003,"presentation_identifier":3,"trial":"NA","within_identifier":"NA","between_identifier":"incentive","statement_identifier":6,"rt":1533,"response":1,"repeated":1,"certainty":"NA"},{"subject":1003,"presentation_identifier":3,"trial":"NA","within_identifier":"NA","between_identifier":"incentive","statement_identifier":7,"rt":2004,"response":1,"repeated":1,"certainty":"NA"},{"subject":1003,"presentation_identifier":3,"trial":"NA","within_identifier":"NA","between_identifier":"incentive","statement_identifier":8,"rt":1313,"response":1,"repeated":1,"certainty":"NA"},{"subject":1003,"presentation_identifier":3,"trial":"NA","within_identifier":"NA","between_identifier":"incentive","statement_identifier":9,"rt":1986,"response":1,"repeated":1,"certainty":"NA"},{"subject":1003,"presentation_identifier":3,"trial":"NA","within_identifier":"NA","between_identifier":"incentive","statement_identifier":10,"rt":2119,"response":1,"repeated":1,"certainty":"NA"},{"subject":1003,"presentation_identifier":3,"trial":"NA","within_identifier":"NA","between_identifier":"incentive","statement_identifier":11,"rt":2567,"response":1,"repeated":1,"certainty":"NA"},{"subject":1003,"presentation_identifier":3,"trial":"NA","within_identifier":"NA","between_identifier":"incentive","statement_identifier":12,"rt":19725,"response":1,"repeated":1,"certainty":"NA"},{"subject":1003,"presentation_identifier":3,"trial":"NA","within_identifier":"NA","between_identifier":"incentive","statement_identifier":13,"rt":1753,"response":1,"repeated":1,"certainty":"NA"},{"subject":1003,"presentation_identifier":3,"trial":"NA","within_identifier":"NA","between_identifier":"incentive","statement_identifier":14,"rt":1832,"response":1,"repeated":1,"certainty":"NA"},{"subject":1003,"presentation_identifier":3,"trial":"NA","within_identifier":"NA","between_identifier":"incentive","statement_identifier":15,"rt":4789,"response":0,"repeated":1,"certainty":"NA"},{"subject":1003,"presentation_identifier":3,"trial":"NA","within_identifier":"NA","between_identifier":"incentive","statement_identifier":16,"rt":45445,"response":1,"repeated":1,"certainty":"NA"},{"subject":1003,"presentation_identifier":3,"trial":"NA","within_identifier":"NA","between_identifier":"incentive","statement_identifier":17,"rt":3022,"response":1,"repeated":0,"certainty":"NA"},{"subject":1003,"presentation_identifier":3,"trial":"NA","within_identifier":"NA","between_identifier":"incentive","statement_identifier":18,"rt":1942,"response":0,"repeated":0,"certainty":"NA"},{"subject":1003,"presentation_identifier":3,"trial":"NA","within_identifier":"NA","between_identifier":"incentive","statement_identifier":19,"rt":3249,"response":1,"repeated":0,"certainty":"NA"},{"subject":1003,"presentation_identifier":3,"trial":"NA","within_identifier":"NA","between_identifier":"incentive","statement_identifier":20,"rt":2461,"response":1,"repeated":0,"certainty":"NA"},{"subject":1003,"presentation_identifier":3,"trial":"NA","within_identifier":"NA","between_identifier":"incentive","statement_identifier":21,"rt":2479,"response":1,"repeated":0,"certainty":"NA"},{"subject":1003,"presentation_identifier":3,"trial":"NA","within_identifier":"NA","between_identifier":"incentive","statement_identifier":22,"rt":1814,"response":1,"repeated":0,"certainty":"NA"},{"subject":1003,"presentation_identifier":3,"trial":"NA","within_identifier":"NA","between_identifier":"incentive","statement_identifier":23,"rt":2691,"response":1,"repeated":0,"certainty":"NA"},{"subject":1003,"presentation_identifier":3,"trial":"NA","within_identifier":"NA","between_identifier":"incentive","statement_identifier":24,"rt":5136,"response":1,"repeated":0,"certainty":"NA"},{"subject":1003,"presentation_identifier":3,"trial":"NA","within_identifier":"NA","between_identifier":"incentive","statement_identifier":25,"rt":2623,"response":0,"repeated":0,"certainty":"NA"},{"subject":1003,"presentation_identifier":3,"trial":"NA","within_identifier":"NA","between_identifier":"incentive","statement_identifier":26,"rt":3792,"response":1,"repeated":0,"certainty":"NA"},{"subject":1003,"presentation_identifier":3,"trial":"NA","within_identifier":"NA","between_identifier":"incentive","statement_identifier":27,"rt":4291,"response":0,"repeated":0,"certainty":"NA"},{"subject":1003,"presentation_identifier":3,"trial":"NA","within_identifier":"NA","between_identifier":"incentive","statement_identifier":28,"rt":4043,"response":0,"repeated":0,"certainty":"NA"},{"subject":1003,"presentation_identifier":3,"trial":"NA","within_identifier":"NA","between_identifier":"incentive","statement_identifier":29,"rt":2968,"response":0,"repeated":0,"certainty":"NA"},{"subject":1003,"presentation_identifier":3,"trial":"NA","within_identifier":"NA","between_identifier":"incentive","statement_identifier":30,"rt":2584,"response":0,"repeated":0,"certainty":"NA"},{"subject":1003,"presentation_identifier":3,"trial":"NA","within_identifier":"NA","between_identifier":"incentive","statement_identifier":31,"rt":2685,"response":0,"repeated":0,"certainty":"NA"},{"subject":1003,"presentation_identifier":3,"trial":"NA","within_identifier":"NA","between_identifier":"incentive","statement_identifier":32,"rt":3035,"response":0,"repeated":0,"certainty":"NA"},{"subject":1004,"presentation_identifier":2,"trial":"NA","within_identifier":"NA","between_identifier":"standard","statement_identifier":1,"rt":1931,"response":1,"repeated":1,"certainty":"NA"},{"subject":1004,"presentation_identifier":2,"trial":"NA","within_identifier":"NA","between_identifier":"standard","statement_identifier":2,"rt":1978,"response":1,"repeated":1,"certainty":"NA"},{"subject":1004,"presentation_identifier":2,"trial":"NA","within_identifier":"NA","between_identifier":"standard","statement_identifier":3,"rt":1467,"response":1,"repeated":1,"certainty":"NA"},{"subject":1004,"presentation_identifier":2,"trial":"NA","within_identifier":"NA","between_identifier":"standard","statement_identifier":4,"rt":2223,"response":1,"repeated":1,"certainty":"NA"},{"subject":1004,"presentation_identifier":2,"trial":"NA","within_identifier":"NA","between_identifier":"standard","statement_identifier":5,"rt":1651,"response":1,"repeated":1,"certainty":"NA"},{"subject":1004,"presentation_identifier":2,"trial":"NA","within_identifier":"NA","between_identifier":"standard","statement_identifier":6,"rt":1632,"response":1,"repeated":1,"certainty":"NA"},{"subject":1004,"presentation_identifier":2,"trial":"NA","within_identifier":"NA","between_identifier":"standard","statement_identifier":7,"rt":1387,"response":1,"repeated":1,"certainty":"NA"},{"subject":1004,"presentation_identifier":2,"trial":"NA","within_identifier":"NA","between_identifier":"standard","statement_identifier":8,"rt":1625,"response":1,"repeated":1,"certainty":"NA"},{"subject":1004,"presentation_identifier":2,"trial":"NA","within_identifier":"NA","between_identifier":"standard","statement_identifier":9,"rt":1925,"response":1,"repeated":1,"certainty":"NA"},{"subject":1004,"presentation_identifier":2,"trial":"NA","within_identifier":"NA","between_identifier":"standard","statement_identifier":10,"rt":1815,"response":1,"repeated":1,"certainty":"NA"},{"subject":1004,"presentation_identifier":2,"trial":"NA","within_identifier":"NA","between_identifier":"standard","statement_identifier":11,"rt":2023,"response":1,"repeated":1,"certainty":"NA"},{"subject":1004,"presentation_identifier":2,"trial":"NA","within_identifier":"NA","between_identifier":"standard","statement_identifier":12,"rt":1692,"response":1,"repeated":1,"certainty":"NA"},{"subject":1004,"presentation_identifier":2,"trial":"NA","within_identifier":"NA","between_identifier":"standard","statement_identifier":13,"rt":1903,"response":1,"repeated":1,"certainty":"NA"},{"subject":1004,"presentation_identifier":2,"trial":"NA","within_identifier":"NA","between_identifier":"standard","statement_identifier":14,"rt":2003,"response":1,"repeated":1,"certainty":"NA"},{"subject":1004,"presentation_identifier":2,"trial":"NA","within_identifier":"NA","between_identifier":"standard","statement_identifier":15,"rt":2011,"response":1,"repeated":1,"certainty":"NA"},{"subject":1004,"presentation_identifier":2,"trial":"NA","within_identifier":"NA","between_identifier":"standard","statement_identifier":16,"rt":1892,"response":1,"repeated":1,"certainty":"NA"},{"subject":1004,"presentation_identifier":2,"trial":"NA","within_identifier":"NA","between_identifier":"standard","statement_identifier":17,"rt":6665,"response":0,"repeated":0,"certainty":"NA"},{"subject":1004,"presentation_identifier":2,"trial":"NA","within_identifier":"NA","between_identifier":"standard","statement_identifier":18,"rt":2433,"response":0,"repeated":0,"certainty":"NA"},{"subject":1004,"presentation_identifier":2,"trial":"NA","within_identifier":"NA","between_identifier":"standard","statement_identifier":19,"rt":46813,"response":0,"repeated":0,"certainty":"NA"},{"subject":1004,"presentation_identifier":2,"trial":"NA","within_identifier":"NA","between_identifier":"standard","statement_identifier":20,"rt":2912,"response":0,"repeated":0,"certainty":"NA"},{"subject":1004,"presentation_identifier":2,"trial":"NA","within_identifier":"NA","between_identifier":"standard","statement_identifier":21,"rt":34700,"response":0,"repeated":0,"certainty":"NA"},{"subject":1004,"presentation_identifier":2,"trial":"NA","within_identifier":"NA","between_identifier":"standard","statement_identifier":22,"rt":15034,"response":0,"repeated":0,"certainty":"NA"},{"subject":1004,"presentation_identifier":2,"trial":"NA","within_identifier":"NA","between_identifier":"standard","statement_identifier":23,"rt":2443,"response":0,"repeated":0,"certainty":"NA"},{"subject":1004,"presentation_identifier":2,"trial":"NA","within_identifier":"NA","between_identifier":"standard","statement_identifier":24,"rt":3022,"response":0,"repeated":0,"certainty":"NA"},{"subject":1004,"presentation_identifier":2,"trial":"NA","within_identifier":"NA","between_identifier":"standard","statement_identifier":25,"rt":1896,"response":0,"repeated":0,"certainty":"NA"},{"subject":1004,"presentation_identifier":2,"trial":"NA","within_identifier":"NA","between_identifier":"standard","statement_identifier":26,"rt":3428,"response":0,"repeated":0,"certainty":"NA"},{"subject":1004,"presentation_identifier":2,"trial":"NA","within_identifier":"NA","between_identifier":"standard","statement_identifier":27,"rt":1852,"response":0,"repeated":0,"certainty":"NA"},{"subject":1004,"presentation_identifier":2,"trial":"NA","within_identifier":"NA","between_identifier":"standard","statement_identifier":28,"rt":2955,"response":0,"repeated":0,"certainty":"NA"},{"subject":1004,"presentation_identifier":2,"trial":"NA","within_identifier":"NA","between_identifier":"standard","statement_identifier":29,"rt":2116,"response":0,"repeated":0,"certainty":"NA"},{"subject":1004,"presentation_identifier":2,"trial":"NA","within_identifier":"NA","between_identifier":"standard","statement_identifier":30,"rt":1662,"response":0,"repeated":0,"certainty":"NA"},{"subject":1004,"presentation_identifier":2,"trial":"NA","within_identifier":"NA","between_identifier":"standard","statement_identifier":31,"rt":2912,"response":0,"repeated":0,"certainty":"NA"},{"subject":1004,"presentation_identifier":2,"trial":"NA","within_identifier":"NA","between_identifier":"standard","statement_identifier":32,"rt":2896,"response":0,"repeated":0,"certainty":"NA"},{"subject":1005,"presentation_identifier":3,"trial":"NA","within_identifier":"NA","between_identifier":"incentive","statement_identifier":1,"rt":2149,"response":0,"repeated":0,"certainty":"NA"},{"subject":1005,"presentation_identifier":3,"trial":"NA","within_identifier":"NA","between_identifier":"incentive","statement_identifier":2,"rt":1935,"response":0,"repeated":0,"certainty":"NA"},{"subject":1005,"presentation_identifier":3,"trial":"NA","within_identifier":"NA","between_identifier":"incentive","statement_identifier":3,"rt":1909,"response":0,"repeated":0,"certainty":"NA"},{"subject":1005,"presentation_identifier":3,"trial":"NA","within_identifier":"NA","between_identifier":"incentive","statement_identifier":4,"rt":1659,"response":0,"repeated":0,"certainty":"NA"},{"subject":1005,"presentation_identifier":3,"trial":"NA","within_identifier":"NA","between_identifier":"incentive","statement_identifier":5,"rt":9341,"response":0,"repeated":0,"certainty":"NA"},{"subject":1005,"presentation_identifier":3,"trial":"NA","within_identifier":"NA","between_identifier":"incentive","statement_identifier":6,"rt":2011,"response":0,"repeated":0,"certainty":"NA"},{"subject":1005,"presentation_identifier":3,"trial":"NA","within_identifier":"NA","between_identifier":"incentive","statement_identifier":7,"rt":1923,"response":0,"repeated":0,"certainty":"NA"},{"subject":1005,"presentation_identifier":3,"trial":"NA","within_identifier":"NA","between_identifier":"incentive","statement_identifier":8,"rt":2052,"response":0,"repeated":0,"certainty":"NA"},{"subject":1005,"presentation_identifier":3,"trial":"NA","within_identifier":"NA","between_identifier":"incentive","statement_identifier":9,"rt":33270,"response":0,"repeated":0,"certainty":"NA"},{"subject":1005,"presentation_identifier":3,"trial":"NA","within_identifier":"NA","between_identifier":"incentive","statement_identifier":10,"rt":1648,"response":0,"repeated":0,"certainty":"NA"},{"subject":1005,"presentation_identifier":3,"trial":"NA","within_identifier":"NA","between_identifier":"incentive","statement_identifier":11,"rt":2075,"response":0,"repeated":0,"certainty":"NA"},{"subject":1005,"presentation_identifier":3,"trial":"NA","within_identifier":"NA","between_identifier":"incentive","statement_identifier":12,"rt":2187,"response":0,"repeated":0,"certainty":"NA"},{"subject":1005,"presentation_identifier":3,"trial":"NA","within_identifier":"NA","between_identifier":"incentive","statement_identifier":13,"rt":2359,"response":0,"repeated":0,"certainty":"NA"},{"subject":1005,"presentation_identifier":3,"trial":"NA","within_identifier":"NA","between_identifier":"incentive","statement_identifier":14,"rt":2221,"response":0,"repeated":0,"certainty":"NA"},{"subject":1005,"presentation_identifier":3,"trial":"NA","within_identifier":"NA","between_identifier":"incentive","statement_identifier":15,"rt":2143,"response":0,"repeated":0,"certainty":"NA"},{"subject":1005,"presentation_identifier":3,"trial":"NA","within_identifier":"NA","between_identifier":"incentive","statement_identifier":16,"rt":2104,"response":0,"repeated":0,"certainty":"NA"},{"subject":1005,"presentation_identifier":3,"trial":"NA","within_identifier":"NA","between_identifier":"incentive","statement_identifier":17,"rt":2641,"response":1,"repeated":1,"certainty":"NA"},{"subject":1005,"presentation_identifier":3,"trial":"NA","within_identifier":"NA","between_identifier":"incentive","statement_identifier":18,"rt":3416,"response":1,"repeated":1,"certainty":"NA"},{"subject":1005,"presentation_identifier":3,"trial":"NA","within_identifier":"NA","between_identifier":"incentive","statement_identifier":19,"rt":4903,"response":1,"repeated":1,"certainty":"NA"},{"subject":1005,"presentation_identifier":3,"trial":"NA","within_identifier":"NA","between_identifier":"incentive","statement_identifier":20,"rt":2098,"response":1,"repeated":1,"certainty":"NA"},{"subject":1005,"presentation_identifier":3,"trial":"NA","within_identifier":"NA","between_identifier":"incentive","statement_identifier":21,"rt":4426,"response":0,"repeated":1,"certainty":"NA"},{"subject":1005,"presentation_identifier":3,"trial":"NA","within_identifier":"NA","between_identifier":"incentive","statement_identifier":22,"rt":2016,"response":1,"repeated":1,"certainty":"NA"},{"subject":1005,"presentation_identifier":3,"trial":"NA","within_identifier":"NA","between_identifier":"incentive","statement_identifier":23,"rt":1918,"response":1,"repeated":1,"certainty":"NA"},{"subject":1005,"presentation_identifier":3,"trial":"NA","within_identifier":"NA","between_identifier":"incentive","statement_identifier":24,"rt":1553,"response":1,"repeated":1,"certainty":"NA"},{"subject":1005,"presentation_identifier":3,"trial":"NA","within_identifier":"NA","between_identifier":"incentive","statement_identifier":25,"rt":3117,"response":1,"repeated":1,"certainty":"NA"},{"subject":1005,"presentation_identifier":3,"trial":"NA","within_identifier":"NA","between_identifier":"incentive","statement_identifier":26,"rt":2575,"response":1,"repeated":1,"certainty":"NA"},{"subject":1005,"presentation_identifier":3,"trial":"NA","within_identifier":"NA","between_identifier":"incentive","statement_identifier":27,"rt":2069,"response":1,"repeated":1,"certainty":"NA"},{"subject":1005,"presentation_identifier":3,"trial":"NA","within_identifier":"NA","between_identifier":"incentive","statement_identifier":28,"rt":2515,"response":1,"repeated":1,"certainty":"NA"},{"subject":1005,"presentation_identifier":3,"trial":"NA","within_identifier":"NA","between_identifier":"incentive","statement_identifier":29,"rt":1476,"response":1,"repeated":1,"certainty":"NA"},{"subject":1005,"presentation_identifier":3,"trial":"NA","within_identifier":"NA","between_identifier":"incentive","statement_identifier":30,"rt":1551,"response":1,"repeated":1,"certainty":"NA"},{"subject":1005,"presentation_identifier":3,"trial":"NA","within_identifier":"NA","between_identifier":"incentive","statement_identifier":31,"rt":45475,"response":1,"repeated":1,"certainty":"NA"},{"subject":1005,"presentation_identifier":3,"trial":"NA","within_identifier":"NA","between_identifier":"incentive","statement_identifier":32,"rt":2134,"response":1,"repeated":1,"certainty":"NA"},{"subject":1006,"presentation_identifier":3,"trial":"NA","within_identifier":"NA","between_identifier":"incentive","statement_identifier":1,"rt":1663,"response":1,"repeated":1,"certainty":"NA"},{"subject":1006,"presentation_identifier":3,"trial":"NA","within_identifier":"NA","between_identifier":"incentive","statement_identifier":2,"rt":1903,"response":0,"repeated":1,"certainty":"NA"},{"subject":1006,"presentation_identifier":3,"trial":"NA","within_identifier":"NA","between_identifier":"incentive","statement_identifier":3,"rt":46082,"response":1,"repeated":1,"certainty":"NA"},{"subject":1006,"presentation_identifier":3,"trial":"NA","within_identifier":"NA","between_identifier":"incentive","statement_identifier":4,"rt":1407,"response":1,"repeated":1,"certainty":"NA"},{"subject":1006,"presentation_identifier":3,"trial":"NA","within_identifier":"NA","between_identifier":"incentive","statement_identifier":5,"rt":1439,"response":1,"repeated":1,"certainty":"NA"},{"subject":1006,"presentation_identifier":3,"trial":"NA","within_identifier":"NA","between_identifier":"incentive","statement_identifier":6,"rt":4713,"response":1,"repeated":1,"certainty":"NA"},{"subject":1006,"presentation_identifier":3,"trial":"NA","within_identifier":"NA","between_identifier":"incentive","statement_identifier":7,"rt":1983,"response":1,"repeated":1,"certainty":"NA"},{"subject":1006,"presentation_identifier":3,"trial":"NA","within_identifier":"NA","between_identifier":"incentive","statement_identifier":8,"rt":16893,"response":1,"repeated":1,"certainty":"NA"},{"subject":1006,"presentation_identifier":3,"trial":"NA","within_identifier":"NA","between_identifier":"incentive","statement_identifier":9,"rt":1745,"response":1,"repeated":1,"certainty":"NA"},{"subject":1006,"presentation_identifier":3,"trial":"NA","within_identifier":"NA","between_identifier":"incentive","statement_identifier":10,"rt":1927,"response":1,"repeated":1,"certainty":"NA"},{"subject":1006,"presentation_identifier":3,"trial":"NA","within_identifier":"NA","between_identifier":"incentive","statement_identifier":11,"rt":3586,"response":1,"repeated":1,"certainty":"NA"},{"subject":1006,"presentation_identifier":3,"trial":"NA","within_identifier":"NA","between_identifier":"incentive","statement_identifier":12,"rt":1641,"response":1,"repeated":1,"certainty":"NA"},{"subject":1006,"presentation_identifier":3,"trial":"NA","within_identifier":"NA","between_identifier":"incentive","statement_identifier":13,"rt":1882,"response":1,"repeated":1,"certainty":"NA"},{"subject":1006,"presentation_identifier":3,"trial":"NA","within_identifier":"NA","between_identifier":"incentive","statement_identifier":14,"rt":2529,"response":1,"repeated":1,"certainty":"NA"},{"subject":1006,"presentation_identifier":3,"trial":"NA","within_identifier":"NA","between_identifier":"incentive","statement_identifier":15,"rt":3054,"response":0,"repeated":1,"certainty":"NA"},{"subject":1006,"presentation_identifier":3,"trial":"NA","within_identifier":"NA","between_identifier":"incentive","statement_identifier":16,"rt":11749,"response":1,"repeated":1,"certainty":"NA"},{"subject":1006,"presentation_identifier":3,"trial":"NA","within_identifier":"NA","between_identifier":"incentive","statement_identifier":17,"rt":41306,"response":1,"repeated":0,"certainty":"NA"},{"subject":1006,"presentation_identifier":3,"trial":"NA","within_identifier":"NA","between_identifier":"incentive","statement_identifier":18,"rt":2222,"response":1,"repeated":0,"certainty":"NA"},{"subject":1006,"presentation_identifier":3,"trial":"NA","within_identifier":"NA","between_identifier":"incentive","statement_identifier":19,"rt":2253,"response":0,"repeated":0,"certainty":"NA"},{"subject":1006,"presentation_identifier":3,"trial":"NA","within_identifier":"NA","between_identifier":"incentive","statement_identifier":20,"rt":3419,"response":1,"repeated":0,"certainty":"NA"},{"subject":1006,"presentation_identifier":3,"trial":"NA","within_identifier":"NA","between_identifier":"incentive","statement_identifier":21,"rt":1774,"response":0,"repeated":0,"certainty":"NA"},{"subject":1006,"presentation_identifier":3,"trial":"NA","within_identifier":"NA","between_identifier":"incentive","statement_identifier":22,"rt":3414,"response":1,"repeated":0,"certainty":"NA"},{"subject":1006,"presentation_identifier":3,"trial":"NA","within_identifier":"NA","between_identifier":"incentive","statement_identifier":23,"rt":3307,"response":1,"repeated":0,"certainty":"NA"},{"subject":1006,"presentation_identifier":3,"trial":"NA","within_identifier":"NA","between_identifier":"incentive","statement_identifier":24,"rt":1738,"response":1,"repeated":0,"certainty":"NA"},{"subject":1006,"presentation_identifier":3,"trial":"NA","within_identifier":"NA","between_identifier":"incentive","statement_identifier":25,"rt":5098,"response":1,"repeated":0,"certainty":"NA"},{"subject":1006,"presentation_identifier":3,"trial":"NA","within_identifier":"NA","between_identifier":"incentive","statement_identifier":26,"rt":3287,"response":1,"repeated":0,"certainty":"NA"},{"subject":1006,"presentation_identifier":3,"trial":"NA","within_identifier":"NA","between_identifier":"incentive","statement_identifier":27,"rt":4015,"response":0,"repeated":0,"certainty":"NA"},{"subject":1006,"presentation_identifier":3,"trial":"NA","within_identifier":"NA","between_identifier":"incentive","statement_identifier":28,"rt":45445,"response":0,"repeated":0,"certainty":"NA"},{"subject":1006,"presentation_identifier":3,"trial":"NA","within_identifier":"NA","between_identifier":"incentive","statement_identifier":29,"rt":1622,"response":1,"repeated":0,"certainty":"NA"},{"subject":1006,"presentation_identifier":3,"trial":"NA","within_identifier":"NA","between_identifier":"incentive","statement_identifier":30,"rt":4043,"response":1,"repeated":0,"certainty":"NA"},{"subject":1006,"presentation_identifier":3,"trial":"NA","within_identifier":"NA","between_identifier":"incentive","statement_identifier":31,"rt":4541,"response":0,"repeated":0,"certainty":"NA"},{"subject":1006,"presentation_identifier":3,"trial":"NA","within_identifier":"NA","between_identifier":"incentive","statement_identifier":32,"rt":1618,"response":0,"repeated":0,"certainty":"NA"},{"subject":1007,"presentation_identifier":3,"trial":"NA","within_identifier":"NA","between_identifier":"incentive","statement_identifier":1,"rt":1998,"response":0,"repeated":1,"certainty":"NA"},{"subject":1007,"presentation_identifier":3,"trial":"NA","within_identifier":"NA","between_identifier":"incentive","statement_identifier":2,"rt":1831,"response":1,"repeated":1,"certainty":"NA"},{"subject":1007,"presentation_identifier":3,"trial":"NA","within_identifier":"NA","between_identifier":"incentive","statement_identifier":3,"rt":1876,"response":1,"repeated":1,"certainty":"NA"},{"subject":1007,"presentation_identifier":3,"trial":"NA","within_identifier":"NA","between_identifier":"incentive","statement_identifier":4,"rt":2211,"response":1,"repeated":1,"certainty":"NA"},{"subject":1007,"presentation_identifier":3,"trial":"NA","within_identifier":"NA","between_identifier":"incentive","statement_identifier":5,"rt":2282,"response":1,"repeated":1,"certainty":"NA"},{"subject":1007,"presentation_identifier":3,"trial":"NA","within_identifier":"NA","between_identifier":"incentive","statement_identifier":6,"rt":2594,"response":0,"repeated":1,"certainty":"NA"},{"subject":1007,"presentation_identifier":3,"trial":"NA","within_identifier":"NA","between_identifier":"incentive","statement_identifier":7,"rt":2423,"response":1,"repeated":1,"certainty":"NA"},{"subject":1007,"presentation_identifier":3,"trial":"NA","within_identifier":"NA","between_identifier":"incentive","statement_identifier":8,"rt":12042,"response":0,"repeated":1,"certainty":"NA"},{"subject":1007,"presentation_identifier":3,"trial":"NA","within_identifier":"NA","between_identifier":"incentive","statement_identifier":9,"rt":5653,"response":1,"repeated":1,"certainty":"NA"},{"subject":1007,"presentation_identifier":3,"trial":"NA","within_identifier":"NA","between_identifier":"incentive","statement_identifier":10,"rt":2005,"response":1,"repeated":1,"certainty":"NA"},{"subject":1007,"presentation_identifier":3,"trial":"NA","within_identifier":"NA","between_identifier":"incentive","statement_identifier":11,"rt":1878,"response":1,"repeated":1,"certainty":"NA"},{"subject":1007,"presentation_identifier":3,"trial":"NA","within_identifier":"NA","between_identifier":"incentive","statement_identifier":12,"rt":2348,"response":1,"repeated":1,"certainty":"NA"},{"subject":1007,"presentation_identifier":3,"trial":"NA","within_identifier":"NA","between_identifier":"incentive","statement_identifier":13,"rt":3346,"response":0,"repeated":1,"certainty":"NA"},{"subject":1007,"presentation_identifier":3,"trial":"NA","within_identifier":"NA","between_identifier":"incentive","statement_identifier":14,"rt":2103,"response":1,"repeated":1,"certainty":"NA"},{"subject":1007,"presentation_identifier":3,"trial":"NA","within_identifier":"NA","between_identifier":"incentive","statement_identifier":15,"rt":3251,"response":1,"repeated":1,"certainty":"NA"},{"subject":1007,"presentation_identifier":3,"trial":"NA","within_identifier":"NA","between_identifier":"incentive","statement_identifier":16,"rt":3737,"response":1,"repeated":1,"certainty":"NA"},{"subject":1007,"presentation_identifier":3,"trial":"NA","within_identifier":"NA","between_identifier":"incentive","statement_identifier":17,"rt":6479,"response":1,"repeated":0,"certainty":"NA"},{"subject":1007,"presentation_identifier":3,"trial":"NA","within_identifier":"NA","between_identifier":"incentive","statement_identifier":18,"rt":5341,"response":1,"repeated":0,"certainty":"NA"},{"subject":1007,"presentation_identifier":3,"trial":"NA","within_identifier":"NA","between_identifier":"incentive","statement_identifier":19,"rt":23102,"response":1,"repeated":0,"certainty":"NA"},{"subject":1007,"presentation_identifier":3,"trial":"NA","within_identifier":"NA","between_identifier":"incentive","statement_identifier":20,"rt":4909,"response":1,"repeated":0,"certainty":"NA"},{"subject":1007,"presentation_identifier":3,"trial":"NA","within_identifier":"NA","between_identifier":"incentive","statement_identifier":21,"rt":41365,"response":0,"repeated":0,"certainty":"NA"},{"subject":1007,"presentation_identifier":3,"trial":"NA","within_identifier":"NA","between_identifier":"incentive","statement_identifier":22,"rt":5707,"response":1,"repeated":0,"certainty":"NA"},{"subject":1007,"presentation_identifier":3,"trial":"NA","within_identifier":"NA","between_identifier":"incentive","statement_identifier":23,"rt":3051,"response":1,"repeated":0,"certainty":"NA"},{"subject":1007,"presentation_identifier":3,"trial":"NA","within_identifier":"NA","between_identifier":"incentive","statement_identifier":24,"rt":7238,"response":1,"repeated":0,"certainty":"NA"},{"subject":1007,"presentation_identifier":3,"trial":"NA","within_identifier":"NA","between_identifier":"incentive","statement_identifier":25,"rt":2722,"response":1,"repeated":0,"certainty":"NA"},{"subject":1007,"presentation_identifier":3,"trial":"NA","within_identifier":"NA","between_identifier":"incentive","statement_identifier":26,"rt":3342,"response":1,"repeated":0,"certainty":"NA"},{"subject":1007,"presentation_identifier":3,"trial":"NA","within_identifier":"NA","between_identifier":"incentive","statement_identifier":27,"rt":4446,"response":1,"repeated":0,"certainty":"NA"},{"subject":1007,"presentation_identifier":3,"trial":"NA","within_identifier":"NA","between_identifier":"incentive","statement_identifier":28,"rt":2669,"response":1,"repeated":0,"certainty":"NA"},{"subject":1007,"presentation_identifier":3,"trial":"NA","within_identifier":"NA","between_identifier":"incentive","statement_identifier":29,"rt":4597,"response":0,"repeated":0,"certainty":"NA"},{"subject":1007,"presentation_identifier":3,"trial":"NA","within_identifier":"NA","between_identifier":"incentive","statement_identifier":30,"rt":5142,"response":0,"repeated":0,"certainty":"NA"},{"subject":1007,"presentation_identifier":3,"trial":"NA","within_identifier":"NA","between_identifier":"incentive","statement_identifier":31,"rt":4877,"response":0,"repeated":0,"certainty":"NA"},{"subject":1007,"presentation_identifier":3,"trial":"NA","within_identifier":"NA","between_identifier":"incentive","statement_identifier":32,"rt":3534,"response":1,"repeated":0,"certainty":"NA"},{"subject":1008,"presentation_identifier":2,"trial":"NA","within_identifier":"NA","between_identifier":"standard","statement_identifier":1,"rt":3115,"response":1,"repeated":0,"certainty":"NA"},{"subject":1008,"presentation_identifier":2,"trial":"NA","within_identifier":"NA","between_identifier":"standard","statement_identifier":2,"rt":2309,"response":1,"repeated":0,"certainty":"NA"},{"subject":1008,"presentation_identifier":2,"trial":"NA","within_identifier":"NA","between_identifier":"standard","statement_identifier":3,"rt":27426,"response":1,"repeated":0,"certainty":"NA"},{"subject":1008,"presentation_identifier":2,"trial":"NA","within_identifier":"NA","between_identifier":"standard","statement_identifier":4,"rt":2609,"response":1,"repeated":0,"certainty":"NA"},{"subject":1008,"presentation_identifier":2,"trial":"NA","within_identifier":"NA","between_identifier":"standard","statement_identifier":5,"rt":7214,"response":0,"repeated":0,"certainty":"NA"},{"subject":1008,"presentation_identifier":2,"trial":"NA","within_identifier":"NA","between_identifier":"standard","statement_identifier":6,"rt":3514,"response":0,"repeated":0,"certainty":"NA"},{"subject":1008,"presentation_identifier":2,"trial":"NA","within_identifier":"NA","between_identifier":"standard","statement_identifier":7,"rt":5159,"response":1,"repeated":0,"certainty":"NA"},{"subject":1008,"presentation_identifier":2,"trial":"NA","within_identifier":"NA","between_identifier":"standard","statement_identifier":8,"rt":5067,"response":0,"repeated":0,"certainty":"NA"},{"subject":1008,"presentation_identifier":2,"trial":"NA","within_identifier":"NA","between_identifier":"standard","statement_identifier":9,"rt":3593,"response":0,"repeated":0,"certainty":"NA"},{"subject":1008,"presentation_identifier":2,"trial":"NA","within_identifier":"NA","between_identifier":"standard","statement_identifier":10,"rt":4088,"response":0,"repeated":0,"certainty":"NA"},{"subject":1008,"presentation_identifier":2,"trial":"NA","within_identifier":"NA","between_identifier":"standard","statement_identifier":11,"rt":2982,"response":0,"repeated":0,"certainty":"NA"},{"subject":1008,"presentation_identifier":2,"trial":"NA","within_identifier":"NA","between_identifier":"standard","statement_identifier":12,"rt":4142,"response":0,"repeated":0,"certainty":"NA"},{"subject":1008,"presentation_identifier":2,"trial":"NA","within_identifier":"NA","between_identifier":"standard","statement_identifier":13,"rt":3268,"response":0,"repeated":0,"certainty":"NA"},{"subject":1008,"presentation_identifier":2,"trial":"NA","within_identifier":"NA","between_identifier":"standard","statement_identifier":14,"rt":4768,"response":0,"repeated":0,"certainty":"NA"},{"subject":1008,"presentation_identifier":2,"trial":"NA","within_identifier":"NA","between_identifier":"standard","statement_identifier":15,"rt":3621,"response":0,"repeated":0,"certainty":"NA"},{"subject":1008,"presentation_identifier":2,"trial":"NA","within_identifier":"NA","between_identifier":"standard","statement_identifier":16,"rt":3288,"response":0,"repeated":0,"certainty":"NA"},{"subject":1008,"presentation_identifier":2,"trial":"NA","within_identifier":"NA","between_identifier":"standard","statement_identifier":17,"rt":2375,"response":1,"repeated":1,"certainty":"NA"},{"subject":1008,"presentation_identifier":2,"trial":"NA","within_identifier":"NA","between_identifier":"standard","statement_identifier":18,"rt":6776,"response":0,"repeated":1,"certainty":"NA"},{"subject":1008,"presentation_identifier":2,"trial":"NA","within_identifier":"NA","between_identifier":"standard","statement_identifier":19,"rt":3389,"response":1,"repeated":1,"certainty":"NA"},{"subject":1008,"presentation_identifier":2,"trial":"NA","within_identifier":"NA","between_identifier":"standard","statement_identifier":20,"rt":27426,"response":0,"repeated":1,"certainty":"NA"},{"subject":1008,"presentation_identifier":2,"trial":"NA","within_identifier":"NA","between_identifier":"standard","statement_identifier":21,"rt":2784,"response":1,"repeated":1,"certainty":"NA"},{"subject":1008,"presentation_identifier":2,"trial":"NA","within_identifier":"NA","between_identifier":"standard","statement_identifier":22,"rt":2686,"response":1,"repeated":1,"certainty":"NA"},{"subject":1008,"presentation_identifier":2,"trial":"NA","within_identifier":"NA","between_identifier":"standard","statement_identifier":23,"rt":4472,"response":0,"repeated":1,"certainty":"NA"},{"subject":1008,"presentation_identifier":2,"trial":"NA","within_identifier":"NA","between_identifier":"standard","statement_identifier":24,"rt":4405,"response":0,"repeated":1,"certainty":"NA"},{"subject":1008,"presentation_identifier":2,"trial":"NA","within_identifier":"NA","between_identifier":"standard","statement_identifier":25,"rt":2127,"response":0,"repeated":1,"certainty":"NA"},{"subject":1008,"presentation_identifier":2,"trial":"NA","within_identifier":"NA","between_identifier":"standard","statement_identifier":26,"rt":4583,"response":0,"repeated":1,"certainty":"NA"},{"subject":1008,"presentation_identifier":2,"trial":"NA","within_identifier":"NA","between_identifier":"standard","statement_identifier":27,"rt":4729,"response":1,"repeated":1,"certainty":"NA"},{"subject":1008,"presentation_identifier":2,"trial":"NA","within_identifier":"NA","between_identifier":"standard","statement_identifier":28,"rt":4065,"response":1,"repeated":1,"certainty":"NA"},{"subject":1008,"presentation_identifier":2,"trial":"NA","within_identifier":"NA","between_identifier":"standard","statement_identifier":29,"rt":5945,"response":1,"repeated":1,"certainty":"NA"},{"subject":1008,"presentation_identifier":2,"trial":"NA","within_identifier":"NA","between_identifier":"standard","statement_identifier":30,"rt":1944,"response":1,"repeated":1,"certainty":"NA"},{"subject":1008,"presentation_identifier":2,"trial":"NA","within_identifier":"NA","between_identifier":"standard","statement_identifier":31,"rt":3233,"response":1,"repeated":1,"certainty":"NA"},{"subject":1008,"presentation_identifier":2,"trial":"NA","within_identifier":"NA","between_identifier":"standard","statement_identifier":32,"rt":2949,"response":0,"repeated":1,"certainty":"NA"},{"subject":1009,"presentation_identifier":2,"trial":"NA","within_identifier":"NA","between_identifier":"standard","statement_identifier":1,"rt":3001,"response":1,"repeated":1,"certainty":"NA"},{"subject":1009,"presentation_identifier":2,"trial":"NA","within_identifier":"NA","between_identifier":"standard","statement_identifier":2,"rt":2378,"response":1,"repeated":1,"certainty":"NA"},{"subject":1009,"presentation_identifier":2,"trial":"NA","within_identifier":"NA","between_identifier":"standard","statement_identifier":3,"rt":4248,"response":1,"repeated":1,"certainty":"NA"},{"subject":1009,"presentation_identifier":2,"trial":"NA","within_identifier":"NA","between_identifier":"standard","statement_identifier":4,"rt":5015,"response":0,"repeated":1,"certainty":"NA"},{"subject":1009,"presentation_identifier":2,"trial":"NA","within_identifier":"NA","between_identifier":"standard","statement_identifier":5,"rt":3057,"response":1,"repeated":1,"certainty":"NA"},{"subject":1009,"presentation_identifier":2,"trial":"NA","within_identifier":"NA","between_identifier":"standard","statement_identifier":6,"rt":2642,"response":1,"repeated":1,"certainty":"NA"},{"subject":1009,"presentation_identifier":2,"trial":"NA","within_identifier":"NA","between_identifier":"standard","statement_identifier":7,"rt":2951,"response":1,"repeated":1,"certainty":"NA"},{"subject":1009,"presentation_identifier":2,"trial":"NA","within_identifier":"NA","between_identifier":"standard","statement_identifier":8,"rt":2362,"response":1,"repeated":1,"certainty":"NA"},{"subject":1009,"presentation_identifier":2,"trial":"NA","within_identifier":"NA","between_identifier":"standard","statement_identifier":9,"rt":3868,"response":1,"repeated":1,"certainty":"NA"},{"subject":1009,"presentation_identifier":2,"trial":"NA","within_identifier":"NA","between_identifier":"standard","statement_identifier":10,"rt":2695,"response":1,"repeated":1,"certainty":"NA"},{"subject":1009,"presentation_identifier":2,"trial":"NA","within_identifier":"NA","between_identifier":"standard","statement_identifier":11,"rt":35462,"response":1,"repeated":1,"certainty":"NA"},{"subject":1009,"presentation_identifier":2,"trial":"NA","within_identifier":"NA","between_identifier":"standard","statement_identifier":12,"rt":12114,"response":1,"repeated":1,"certainty":"NA"},{"subject":1009,"presentation_identifier":2,"trial":"NA","within_identifier":"NA","between_identifier":"standard","statement_identifier":13,"rt":11749,"response":1,"repeated":1,"certainty":"NA"},{"subject":1009,"presentation_identifier":2,"trial":"NA","within_identifier":"NA","between_identifier":"standard","statement_identifier":14,"rt":2952,"response":1,"repeated":1,"certainty":"NA"},{"subject":1009,"presentation_identifier":2,"trial":"NA","within_identifier":"NA","between_identifier":"standard","statement_identifier":15,"rt":3598,"response":0,"repeated":1,"certainty":"NA"},{"subject":1009,"presentation_identifier":2,"trial":"NA","within_identifier":"NA","between_identifier":"standard","statement_identifier":16,"rt":2902,"response":1,"repeated":1,"certainty":"NA"},{"subject":1009,"presentation_identifier":2,"trial":"NA","within_identifier":"NA","between_identifier":"standard","statement_identifier":17,"rt":3033,"response":0,"repeated":0,"certainty":"NA"},{"subject":1009,"presentation_identifier":2,"trial":"NA","within_identifier":"NA","between_identifier":"standard","statement_identifier":18,"rt":3426,"response":0,"repeated":0,"certainty":"NA"},{"subject":1009,"presentation_identifier":2,"trial":"NA","within_identifier":"NA","between_identifier":"standard","statement_identifier":19,"rt":2607,"response":0,"repeated":0,"certainty":"NA"},{"subject":1009,"presentation_identifier":2,"trial":"NA","within_identifier":"NA","between_identifier":"standard","statement_identifier":20,"rt":2955,"response":0,"repeated":0,"certainty":"NA"},{"subject":1009,"presentation_identifier":2,"trial":"NA","within_identifier":"NA","between_identifier":"standard","statement_identifier":21,"rt":5244,"response":0,"repeated":0,"certainty":"NA"},{"subject":1009,"presentation_identifier":2,"trial":"NA","within_identifier":"NA","between_identifier":"standard","statement_identifier":22,"rt":2357,"response":0,"repeated":0,"certainty":"NA"},{"subject":1009,"presentation_identifier":2,"trial":"NA","within_identifier":"NA","between_identifier":"standard","statement_identifier":23,"rt":2275,"response":0,"repeated":0,"certainty":"NA"},{"subject":1009,"presentation_identifier":2,"trial":"NA","within_identifier":"NA","between_identifier":"standard","statement_identifier":24,"rt":2933,"response":0,"repeated":0,"certainty":"NA"},{"subject":1009,"presentation_identifier":2,"trial":"NA","within_identifier":"NA","between_identifier":"standard","statement_identifier":25,"rt":2473,"response":0,"repeated":0,"certainty":"NA"},{"subject":1009,"presentation_identifier":2,"trial":"NA","within_identifier":"NA","between_identifier":"standard","statement_identifier":26,"rt":2467,"response":0,"repeated":0,"certainty":"NA"},{"subject":1009,"presentation_identifier":2,"trial":"NA","within_identifier":"NA","between_identifier":"standard","statement_identifier":27,"rt":3555,"response":0,"repeated":0,"certainty":"NA"},{"subject":1009,"presentation_identifier":2,"trial":"NA","within_identifier":"NA","between_identifier":"standard","statement_identifier":28,"rt":3393,"response":0,"repeated":0,"certainty":"NA"},{"subject":1009,"presentation_identifier":2,"trial":"NA","within_identifier":"NA","between_identifier":"standard","statement_identifier":29,"rt":4378,"response":0,"repeated":0,"certainty":"NA"},{"subject":1009,"presentation_identifier":2,"trial":"NA","within_identifier":"NA","between_identifier":"standard","statement_identifier":30,"rt":2913,"response":0,"repeated":0,"certainty":"NA"},{"subject":1009,"presentation_identifier":2,"trial":"NA","within_identifier":"NA","between_identifier":"standard","statement_identifier":31,"rt":2587,"response":0,"repeated":0,"certainty":"NA"},{"subject":1009,"presentation_identifier":2,"trial":"NA","within_identifier":"NA","between_identifier":"standard","statement_identifier":32,"rt":2878,"response":0,"repeated":0,"certainty":"NA"},{"subject":1010,"presentation_identifier":3,"trial":"NA","within_identifier":"NA","between_identifier":"incentive","statement_identifier":1,"rt":1754,"response":1,"repeated":1,"certainty":"NA"},{"subject":1010,"presentation_identifier":3,"trial":"NA","within_identifier":"NA","between_identifier":"incentive","statement_identifier":2,"rt":1367,"response":1,"repeated":1,"certainty":"NA"},{"subject":1010,"presentation_identifier":3,"trial":"NA","within_identifier":"NA","between_identifier":"incentive","statement_identifier":3,"rt":1893,"response":1,"repeated":1,"certainty":"NA"},{"subject":1010,"presentation_identifier":3,"trial":"NA","within_identifier":"NA","between_identifier":"incentive","statement_identifier":4,"rt":45444,"response":1,"repeated":1,"certainty":"NA"},{"subject":1010,"presentation_identifier":3,"trial":"NA","within_identifier":"NA","between_identifier":"incentive","statement_identifier":5,"rt":1763,"response":1,"repeated":1,"certainty":"NA"},{"subject":1010,"presentation_identifier":3,"trial":"NA","within_identifier":"NA","between_identifier":"incentive","statement_identifier":6,"rt":1127,"response":1,"repeated":1,"certainty":"NA"},{"subject":1010,"presentation_identifier":3,"trial":"NA","within_identifier":"NA","between_identifier":"incentive","statement_identifier":7,"rt":1677,"response":1,"repeated":1,"certainty":"NA"},{"subject":1010,"presentation_identifier":3,"trial":"NA","within_identifier":"NA","between_identifier":"incentive","statement_identifier":8,"rt":1384,"response":1,"repeated":1,"certainty":"NA"},{"subject":1010,"presentation_identifier":3,"trial":"NA","within_identifier":"NA","between_identifier":"incentive","statement_identifier":9,"rt":1443,"response":1,"repeated":1,"certainty":"NA"},{"subject":1010,"presentation_identifier":3,"trial":"NA","within_identifier":"NA","between_identifier":"incentive","statement_identifier":10,"rt":1654,"response":1,"repeated":1,"certainty":"NA"},{"subject":1010,"presentation_identifier":3,"trial":"NA","within_identifier":"NA","between_identifier":"incentive","statement_identifier":11,"rt":1248,"response":1,"repeated":1,"certainty":"NA"},{"subject":1010,"presentation_identifier":3,"trial":"NA","within_identifier":"NA","between_identifier":"incentive","statement_identifier":12,"rt":1444,"response":1,"repeated":1,"certainty":"NA"},{"subject":1010,"presentation_identifier":3,"trial":"NA","within_identifier":"NA","between_identifier":"incentive","statement_identifier":13,"rt":3023,"response":1,"repeated":1,"certainty":"NA"},{"subject":1010,"presentation_identifier":3,"trial":"NA","within_identifier":"NA","between_identifier":"incentive","statement_identifier":14,"rt":1754,"response":1,"repeated":1,"certainty":"NA"},{"subject":1010,"presentation_identifier":3,"trial":"NA","within_identifier":"NA","between_identifier":"incentive","statement_identifier":15,"rt":1667,"response":1,"repeated":1,"certainty":"NA"},{"subject":1010,"presentation_identifier":3,"trial":"NA","within_identifier":"NA","between_identifier":"incentive","statement_identifier":16,"rt":1246,"response":1,"repeated":1,"certainty":"NA"},{"subject":1010,"presentation_identifier":3,"trial":"NA","within_identifier":"NA","between_identifier":"incentive","statement_identifier":17,"rt":2193,"response":0,"repeated":0,"certainty":"NA"},{"subject":1010,"presentation_identifier":3,"trial":"NA","within_identifier":"NA","between_identifier":"incentive","statement_identifier":18,"rt":1693,"response":0,"repeated":0,"certainty":"NA"},{"subject":1010,"presentation_identifier":3,"trial":"NA","within_identifier":"NA","between_identifier":"incentive","statement_identifier":19,"rt":2598,"response":0,"repeated":0,"certainty":"NA"},{"subject":1010,"presentation_identifier":3,"trial":"NA","within_identifier":"NA","between_identifier":"incentive","statement_identifier":20,"rt":3449,"response":0,"repeated":0,"certainty":"NA"},{"subject":1010,"presentation_identifier":3,"trial":"NA","within_identifier":"NA","between_identifier":"incentive","statement_identifier":21,"rt":2303,"response":1,"repeated":0,"certainty":"NA"},{"subject":1010,"presentation_identifier":3,"trial":"NA","within_identifier":"NA","between_identifier":"incentive","statement_identifier":22,"rt":2582,"response":0,"repeated":0,"certainty":"NA"},{"subject":1010,"presentation_identifier":3,"trial":"NA","within_identifier":"NA","between_identifier":"incentive","statement_identifier":23,"rt":2843,"response":1,"repeated":0,"certainty":"NA"},{"subject":1010,"presentation_identifier":3,"trial":"NA","within_identifier":"NA","between_identifier":"incentive","statement_identifier":24,"rt":3582,"response":1,"repeated":0,"certainty":"NA"},{"subject":1010,"presentation_identifier":3,"trial":"NA","within_identifier":"NA","between_identifier":"incentive","statement_identifier":25,"rt":1925,"response":0,"repeated":0,"certainty":"NA"},{"subject":1010,"presentation_identifier":3,"trial":"NA","within_identifier":"NA","between_identifier":"incentive","statement_identifier":26,"rt":13547,"response":0,"repeated":0,"certainty":"NA"},{"subject":1010,"presentation_identifier":3,"trial":"NA","within_identifier":"NA","between_identifier":"incentive","statement_identifier":27,"rt":21582,"response":0,"repeated":0,"certainty":"NA"},{"subject":1010,"presentation_identifier":3,"trial":"NA","within_identifier":"NA","between_identifier":"incentive","statement_identifier":28,"rt":4766,"response":1,"repeated":0,"certainty":"NA"},{"subject":1010,"presentation_identifier":3,"trial":"NA","within_identifier":"NA","between_identifier":"incentive","statement_identifier":29,"rt":1962,"response":0,"repeated":0,"certainty":"NA"},{"subject":1010,"presentation_identifier":3,"trial":"NA","within_identifier":"NA","between_identifier":"incentive","statement_identifier":30,"rt":1655,"response":0,"repeated":0,"certainty":"NA"},{"subject":1010,"presentation_identifier":3,"trial":"NA","within_identifier":"NA","between_identifier":"incentive","statement_identifier":31,"rt":2438,"response":0,"repeated":0,"certainty":"NA"},{"subject":1010,"presentation_identifier":3,"trial":"NA","within_identifier":"NA","between_identifier":"incentive","statement_identifier":32,"rt":1673,"response":0,"repeated":0,"certainty":"NA"},{"subject":1011,"presentation_identifier":3,"trial":"NA","within_identifier":"NA","between_identifier":"incentive","statement_identifier":1,"rt":23756,"response":1,"repeated":0,"certainty":"NA"},{"subject":1011,"presentation_identifier":3,"trial":"NA","within_identifier":"NA","between_identifier":"incentive","statement_identifier":2,"rt":2425,"response":1,"repeated":0,"certainty":"NA"},{"subject":1011,"presentation_identifier":3,"trial":"NA","within_identifier":"NA","between_identifier":"incentive","statement_identifier":3,"rt":2294,"response":1,"repeated":0,"certainty":"NA"},{"subject":1011,"presentation_identifier":3,"trial":"NA","within_identifier":"NA","between_identifier":"incentive","statement_identifier":4,"rt":14296,"response":1,"repeated":0,"certainty":"NA"},{"subject":1011,"presentation_identifier":3,"trial":"NA","within_identifier":"NA","between_identifier":"incentive","statement_identifier":5,"rt":3193,"response":0,"repeated":0,"certainty":"NA"},{"subject":1011,"presentation_identifier":3,"trial":"NA","within_identifier":"NA","between_identifier":"incentive","statement_identifier":6,"rt":3077,"response":0,"repeated":0,"certainty":"NA"},{"subject":1011,"presentation_identifier":3,"trial":"NA","within_identifier":"NA","between_identifier":"incentive","statement_identifier":7,"rt":3044,"response":1,"repeated":0,"certainty":"NA"},{"subject":1011,"presentation_identifier":3,"trial":"NA","within_identifier":"NA","between_identifier":"incentive","statement_identifier":8,"rt":3814,"response":1,"repeated":0,"certainty":"NA"},{"subject":1011,"presentation_identifier":3,"trial":"NA","within_identifier":"NA","between_identifier":"incentive","statement_identifier":9,"rt":4349,"response":0,"repeated":0,"certainty":"NA"},{"subject":1011,"presentation_identifier":3,"trial":"NA","within_identifier":"NA","between_identifier":"incentive","statement_identifier":10,"rt":3275,"response":1,"repeated":0,"certainty":"NA"},{"subject":1011,"presentation_identifier":3,"trial":"NA","within_identifier":"NA","between_identifier":"incentive","statement_identifier":11,"rt":2342,"response":0,"repeated":0,"certainty":"NA"},{"subject":1011,"presentation_identifier":3,"trial":"NA","within_identifier":"NA","between_identifier":"incentive","statement_identifier":12,"rt":2362,"response":1,"repeated":0,"certainty":"NA"},{"subject":1011,"presentation_identifier":3,"trial":"NA","within_identifier":"NA","between_identifier":"incentive","statement_identifier":13,"rt":3321,"response":0,"repeated":0,"certainty":"NA"},{"subject":1011,"presentation_identifier":3,"trial":"NA","within_identifier":"NA","between_identifier":"incentive","statement_identifier":14,"rt":2481,"response":0,"repeated":0,"certainty":"NA"},{"subject":1011,"presentation_identifier":3,"trial":"NA","within_identifier":"NA","between_identifier":"incentive","statement_identifier":15,"rt":2687,"response":0,"repeated":0,"certainty":"NA"},{"subject":1011,"presentation_identifier":3,"trial":"NA","within_identifier":"NA","between_identifier":"incentive","statement_identifier":16,"rt":3277,"response":0,"repeated":0,"certainty":"NA"},{"subject":1011,"presentation_identifier":3,"trial":"NA","within_identifier":"NA","between_identifier":"incentive","statement_identifier":17,"rt":2477,"response":1,"repeated":1,"certainty":"NA"},{"subject":1011,"presentation_identifier":3,"trial":"NA","within_identifier":"NA","between_identifier":"incentive","statement_identifier":18,"rt":2684,"response":0,"repeated":1,"certainty":"NA"},{"subject":1011,"presentation_identifier":3,"trial":"NA","within_identifier":"NA","between_identifier":"incentive","statement_identifier":19,"rt":2602,"response":1,"repeated":1,"certainty":"NA"},{"subject":1011,"presentation_identifier":3,"trial":"NA","within_identifier":"NA","between_identifier":"incentive","statement_identifier":20,"rt":45537,"response":1,"repeated":1,"certainty":"NA"},{"subject":1011,"presentation_identifier":3,"trial":"NA","within_identifier":"NA","between_identifier":"incentive","statement_identifier":21,"rt":3163,"response":1,"repeated":1,"certainty":"NA"},{"subject":1011,"presentation_identifier":3,"trial":"NA","within_identifier":"NA","between_identifier":"incentive","statement_identifier":22,"rt":10455,"response":0,"repeated":1,"certainty":"NA"},{"subject":1011,"presentation_identifier":3,"trial":"NA","within_identifier":"NA","between_identifier":"incentive","statement_identifier":23,"rt":1518,"response":1,"repeated":1,"certainty":"NA"},{"subject":1011,"presentation_identifier":3,"trial":"NA","within_identifier":"NA","between_identifier":"incentive","statement_identifier":24,"rt":35796,"response":1,"repeated":1,"certainty":"NA"},{"subject":1011,"presentation_identifier":3,"trial":"NA","within_identifier":"NA","between_identifier":"incentive","statement_identifier":25,"rt":2607,"response":1,"repeated":1,"certainty":"NA"},{"subject":1011,"presentation_identifier":3,"trial":"NA","within_identifier":"NA","between_identifier":"incentive","statement_identifier":26,"rt":2959,"response":1,"repeated":1,"certainty":"NA"},{"subject":1011,"presentation_identifier":3,"trial":"NA","within_identifier":"NA","between_identifier":"incentive","statement_identifier":27,"rt":41730,"response":1,"repeated":1,"certainty":"NA"},{"subject":1011,"presentation_identifier":3,"trial":"NA","within_identifier":"NA","between_identifier":"incentive","statement_identifier":28,"rt":2406,"response":1,"repeated":1,"certainty":"NA"},{"subject":1011,"presentation_identifier":3,"trial":"NA","within_identifier":"NA","between_identifier":"incentive","statement_identifier":29,"rt":3968,"response":1,"repeated":1,"certainty":"NA"},{"subject":1011,"presentation_identifier":3,"trial":"NA","within_identifier":"NA","between_identifier":"incentive","statement_identifier":30,"rt":2162,"response":0,"repeated":1,"certainty":"NA"},{"subject":1011,"presentation_identifier":3,"trial":"NA","within_identifier":"NA","between_identifier":"incentive","statement_identifier":31,"rt":1628,"response":0,"repeated":1,"certainty":"NA"},{"subject":1011,"presentation_identifier":3,"trial":"NA","within_identifier":"NA","between_identifier":"incentive","statement_identifier":32,"rt":1813,"response":1,"repeated":1,"certainty":"NA"},{"subject":1012,"presentation_identifier":3,"trial":"NA","within_identifier":"NA","between_identifier":"incentive","statement_identifier":1,"rt":26741,"response":1,"repeated":0,"certainty":"NA"},{"subject":1012,"presentation_identifier":3,"trial":"NA","within_identifier":"NA","between_identifier":"incentive","statement_identifier":2,"rt":12409,"response":1,"repeated":0,"certainty":"NA"},{"subject":1012,"presentation_identifier":3,"trial":"NA","within_identifier":"NA","between_identifier":"incentive","statement_identifier":3,"rt":10247,"response":1,"repeated":0,"certainty":"NA"},{"subject":1012,"presentation_identifier":3,"trial":"NA","within_identifier":"NA","between_identifier":"incentive","statement_identifier":4,"rt":12186,"response":1,"repeated":0,"certainty":"NA"},{"subject":1012,"presentation_identifier":3,"trial":"NA","within_identifier":"NA","between_identifier":"incentive","statement_identifier":5,"rt":17807,"response":0,"repeated":0,"certainty":"NA"},{"subject":1012,"presentation_identifier":3,"trial":"NA","within_identifier":"NA","between_identifier":"incentive","statement_identifier":6,"rt":43456,"response":0,"repeated":0,"certainty":"NA"},{"subject":1012,"presentation_identifier":3,"trial":"NA","within_identifier":"NA","between_identifier":"incentive","statement_identifier":7,"rt":6499,"response":1,"repeated":0,"certainty":"NA"},{"subject":1012,"presentation_identifier":3,"trial":"NA","within_identifier":"NA","between_identifier":"incentive","statement_identifier":8,"rt":12287,"response":0,"repeated":0,"certainty":"NA"},{"subject":1012,"presentation_identifier":3,"trial":"NA","within_identifier":"NA","between_identifier":"incentive","statement_identifier":9,"rt":10827,"response":1,"repeated":0,"certainty":"NA"},{"subject":1012,"presentation_identifier":3,"trial":"NA","within_identifier":"NA","between_identifier":"incentive","statement_identifier":10,"rt":32325,"response":1,"repeated":0,"certainty":"NA"},{"subject":1012,"presentation_identifier":3,"trial":"NA","within_identifier":"NA","between_identifier":"incentive","statement_identifier":11,"rt":7215,"response":1,"repeated":0,"certainty":"NA"},{"subject":1012,"presentation_identifier":3,"trial":"NA","within_identifier":"NA","between_identifier":"incentive","statement_identifier":12,"rt":23257,"response":0,"repeated":0,"certainty":"NA"},{"subject":1012,"presentation_identifier":3,"trial":"NA","within_identifier":"NA","between_identifier":"incentive","statement_identifier":13,"rt":9552,"response":0,"repeated":0,"certainty":"NA"},{"subject":1012,"presentation_identifier":3,"trial":"NA","within_identifier":"NA","between_identifier":"incentive","statement_identifier":14,"rt":14255,"response":0,"repeated":0,"certainty":"NA"},{"subject":1012,"presentation_identifier":3,"trial":"NA","within_identifier":"NA","between_identifier":"incentive","statement_identifier":15,"rt":13659,"response":0,"repeated":0,"certainty":"NA"},{"subject":1012,"presentation_identifier":3,"trial":"NA","within_identifier":"NA","between_identifier":"incentive","statement_identifier":16,"rt":32025,"response":0,"repeated":0,"certainty":"NA"},{"subject":1012,"presentation_identifier":3,"trial":"NA","within_identifier":"NA","between_identifier":"incentive","statement_identifier":17,"rt":2184,"response":1,"repeated":1,"certainty":"NA"},{"subject":1012,"presentation_identifier":3,"trial":"NA","within_identifier":"NA","between_identifier":"incentive","statement_identifier":18,"rt":1817,"response":1,"repeated":1,"certainty":"NA"},{"subject":1012,"presentation_identifier":3,"trial":"NA","within_identifier":"NA","between_identifier":"incentive","statement_identifier":19,"rt":1923,"response":1,"repeated":1,"certainty":"NA"},{"subject":1012,"presentation_identifier":3,"trial":"NA","within_identifier":"NA","between_identifier":"incentive","statement_identifier":20,"rt":28491,"response":1,"repeated":1,"certainty":"NA"},{"subject":1012,"presentation_identifier":3,"trial":"NA","within_identifier":"NA","between_identifier":"incentive","statement_identifier":21,"rt":1818,"response":1,"repeated":1,"certainty":"NA"},{"subject":1012,"presentation_identifier":3,"trial":"NA","within_identifier":"NA","between_identifier":"incentive","statement_identifier":22,"rt":2017,"response":1,"repeated":1,"certainty":"NA"},{"subject":1012,"presentation_identifier":3,"trial":"NA","within_identifier":"NA","between_identifier":"incentive","statement_identifier":23,"rt":1661,"response":1,"repeated":1,"certainty":"NA"},{"subject":1012,"presentation_identifier":3,"trial":"NA","within_identifier":"NA","between_identifier":"incentive","statement_identifier":24,"rt":4887,"response":1,"repeated":1,"certainty":"NA"},{"subject":1012,"presentation_identifier":3,"trial":"NA","within_identifier":"NA","between_identifier":"incentive","statement_identifier":25,"rt":1744,"response":1,"repeated":1,"certainty":"NA"},{"subject":1012,"presentation_identifier":3,"trial":"NA","within_identifier":"NA","between_identifier":"incentive","statement_identifier":26,"rt":1991,"response":1,"repeated":1,"certainty":"NA"},{"subject":1012,"presentation_identifier":3,"trial":"NA","within_identifier":"NA","between_identifier":"incentive","statement_identifier":27,"rt":3668,"response":1,"repeated":1,"certainty":"NA"},{"subject":1012,"presentation_identifier":3,"trial":"NA","within_identifier":"NA","between_identifier":"incentive","statement_identifier":28,"rt":45474,"response":1,"repeated":1,"certainty":"NA"},{"subject":1012,"presentation_identifier":3,"trial":"NA","within_identifier":"NA","between_identifier":"incentive","statement_identifier":29,"rt":2747,"response":1,"repeated":1,"certainty":"NA"},{"subject":1012,"presentation_identifier":3,"trial":"NA","within_identifier":"NA","between_identifier":"incentive","statement_identifier":30,"rt":1638,"response":1,"repeated":1,"certainty":"NA"},{"subject":1012,"presentation_identifier":3,"trial":"NA","within_identifier":"NA","between_identifier":"incentive","statement_identifier":31,"rt":1877,"response":1,"repeated":1,"certainty":"NA"},{"subject":1012,"presentation_identifier":3,"trial":"NA","within_identifier":"NA","between_identifier":"incentive","statement_identifier":32,"rt":2285,"response":1,"repeated":1,"certainty":"NA"},{"subject":1013,"presentation_identifier":2,"trial":"NA","within_identifier":"NA","between_identifier":"standard","statement_identifier":1,"rt":3121,"response":0,"repeated":0,"certainty":"NA"},{"subject":1013,"presentation_identifier":2,"trial":"NA","within_identifier":"NA","between_identifier":"standard","statement_identifier":2,"rt":3422,"response":0,"repeated":0,"certainty":"NA"},{"subject":1013,"presentation_identifier":2,"trial":"NA","within_identifier":"NA","between_identifier":"standard","statement_identifier":3,"rt":3758,"response":1,"repeated":0,"certainty":"NA"},{"subject":1013,"presentation_identifier":2,"trial":"NA","within_identifier":"NA","between_identifier":"standard","statement_identifier":4,"rt":3787,"response":0,"repeated":0,"certainty":"NA"},{"subject":1013,"presentation_identifier":2,"trial":"NA","within_identifier":"NA","between_identifier":"standard","statement_identifier":5,"rt":4478,"response":0,"repeated":0,"certainty":"NA"},{"subject":1013,"presentation_identifier":2,"trial":"NA","within_identifier":"NA","between_identifier":"standard","statement_identifier":6,"rt":3563,"response":1,"repeated":0,"certainty":"NA"},{"subject":1013,"presentation_identifier":2,"trial":"NA","within_identifier":"NA","between_identifier":"standard","statement_identifier":7,"rt":4222,"response":1,"repeated":0,"certainty":"NA"},{"subject":1013,"presentation_identifier":2,"trial":"NA","within_identifier":"NA","between_identifier":"standard","statement_identifier":8,"rt":24139,"response":0,"repeated":0,"certainty":"NA"},{"subject":1013,"presentation_identifier":2,"trial":"NA","within_identifier":"NA","between_identifier":"standard","statement_identifier":9,"rt":4231,"response":1,"repeated":0,"certainty":"NA"},{"subject":1013,"presentation_identifier":2,"trial":"NA","within_identifier":"NA","between_identifier":"standard","statement_identifier":10,"rt":11383,"response":0,"repeated":0,"certainty":"NA"},{"subject":1013,"presentation_identifier":2,"trial":"NA","within_identifier":"NA","between_identifier":"standard","statement_identifier":11,"rt":2924,"response":0,"repeated":0,"certainty":"NA"},{"subject":1013,"presentation_identifier":2,"trial":"NA","within_identifier":"NA","between_identifier":"standard","statement_identifier":12,"rt":3851,"response":0,"repeated":0,"certainty":"NA"},{"subject":1013,"presentation_identifier":2,"trial":"NA","within_identifier":"NA","between_identifier":"standard","statement_identifier":13,"rt":4811,"response":0,"repeated":0,"certainty":"NA"},{"subject":1013,"presentation_identifier":2,"trial":"NA","within_identifier":"NA","between_identifier":"standard","statement_identifier":14,"rt":3917,"response":1,"repeated":0,"certainty":"NA"},{"subject":1013,"presentation_identifier":2,"trial":"NA","within_identifier":"NA","between_identifier":"standard","statement_identifier":15,"rt":24532,"response":0,"repeated":0,"certainty":"NA"},{"subject":1013,"presentation_identifier":2,"trial":"NA","within_identifier":"NA","between_identifier":"standard","statement_identifier":16,"rt":2361,"response":0,"repeated":0,"certainty":"NA"},{"subject":1013,"presentation_identifier":2,"trial":"NA","within_identifier":"NA","between_identifier":"standard","statement_identifier":17,"rt":1805,"response":1,"repeated":1,"certainty":"NA"},{"subject":1013,"presentation_identifier":2,"trial":"NA","within_identifier":"NA","between_identifier":"standard","statement_identifier":18,"rt":3909,"response":0,"repeated":1,"certainty":"NA"},{"subject":1013,"presentation_identifier":2,"trial":"NA","within_identifier":"NA","between_identifier":"standard","statement_identifier":19,"rt":2324,"response":1,"repeated":1,"certainty":"NA"},{"subject":1013,"presentation_identifier":2,"trial":"NA","within_identifier":"NA","between_identifier":"standard","statement_identifier":20,"rt":2356,"response":1,"repeated":1,"certainty":"NA"},{"subject":1013,"presentation_identifier":2,"trial":"NA","within_identifier":"NA","between_identifier":"standard","statement_identifier":21,"rt":2676,"response":1,"repeated":1,"certainty":"NA"},{"subject":1013,"presentation_identifier":2,"trial":"NA","within_identifier":"NA","between_identifier":"standard","statement_identifier":22,"rt":5478,"response":1,"repeated":1,"certainty":"NA"},{"subject":1013,"presentation_identifier":2,"trial":"NA","within_identifier":"NA","between_identifier":"standard","statement_identifier":23,"rt":2772,"response":1,"repeated":1,"certainty":"NA"},{"subject":1013,"presentation_identifier":2,"trial":"NA","within_identifier":"NA","between_identifier":"standard","statement_identifier":24,"rt":3618,"response":1,"repeated":1,"certainty":"NA"},{"subject":1013,"presentation_identifier":2,"trial":"NA","within_identifier":"NA","between_identifier":"standard","statement_identifier":25,"rt":2313,"response":0,"repeated":1,"certainty":"NA"},{"subject":1013,"presentation_identifier":2,"trial":"NA","within_identifier":"NA","between_identifier":"standard","statement_identifier":26,"rt":2919,"response":1,"repeated":1,"certainty":"NA"},{"subject":1013,"presentation_identifier":2,"trial":"NA","within_identifier":"NA","between_identifier":"standard","statement_identifier":27,"rt":3729,"response":0,"repeated":1,"certainty":"NA"},{"subject":1013,"presentation_identifier":2,"trial":"NA","within_identifier":"NA","between_identifier":"standard","statement_identifier":28,"rt":2891,"response":1,"repeated":1,"certainty":"NA"},{"subject":1013,"presentation_identifier":2,"trial":"NA","within_identifier":"NA","between_identifier":"standard","statement_identifier":29,"rt":3716,"response":1,"repeated":1,"certainty":"NA"},{"subject":1013,"presentation_identifier":2,"trial":"NA","within_identifier":"NA","between_identifier":"standard","statement_identifier":30,"rt":2595,"response":1,"repeated":1,"certainty":"NA"},{"subject":1013,"presentation_identifier":2,"trial":"NA","within_identifier":"NA","between_identifier":"standard","statement_identifier":31,"rt":5316,"response":0,"repeated":1,"certainty":"NA"},{"subject":1013,"presentation_identifier":2,"trial":"NA","within_identifier":"NA","between_identifier":"standard","statement_identifier":32,"rt":2665,"response":1,"repeated":1,"certainty":"NA"},{"subject":1014,"presentation_identifier":3,"trial":"NA","within_identifier":"NA","between_identifier":"incentive","statement_identifier":1,"rt":9155,"response":1,"repeated":0,"certainty":"NA"},{"subject":1014,"presentation_identifier":3,"trial":"NA","within_identifier":"NA","between_identifier":"incentive","statement_identifier":2,"rt":44317,"response":1,"repeated":0,"certainty":"NA"},{"subject":1014,"presentation_identifier":3,"trial":"NA","within_identifier":"NA","between_identifier":"incentive","statement_identifier":3,"rt":3496,"response":1,"repeated":0,"certainty":"NA"},{"subject":1014,"presentation_identifier":3,"trial":"NA","within_identifier":"NA","between_identifier":"incentive","statement_identifier":4,"rt":2222,"response":1,"repeated":0,"certainty":"NA"},{"subject":1014,"presentation_identifier":3,"trial":"NA","within_identifier":"NA","between_identifier":"incentive","statement_identifier":5,"rt":45361,"response":0,"repeated":0,"certainty":"NA"},{"subject":1014,"presentation_identifier":3,"trial":"NA","within_identifier":"NA","between_identifier":"incentive","statement_identifier":6,"rt":3701,"response":0,"repeated":0,"certainty":"NA"},{"subject":1014,"presentation_identifier":3,"trial":"NA","within_identifier":"NA","between_identifier":"incentive","statement_identifier":7,"rt":12256,"response":1,"repeated":0,"certainty":"NA"},{"subject":1014,"presentation_identifier":3,"trial":"NA","within_identifier":"NA","between_identifier":"incentive","statement_identifier":8,"rt":14256,"response":0,"repeated":0,"certainty":"NA"},{"subject":1014,"presentation_identifier":3,"trial":"NA","within_identifier":"NA","between_identifier":"incentive","statement_identifier":9,"rt":4385,"response":0,"repeated":0,"certainty":"NA"},{"subject":1014,"presentation_identifier":3,"trial":"NA","within_identifier":"NA","between_identifier":"incentive","statement_identifier":10,"rt":5089,"response":1,"repeated":0,"certainty":"NA"},{"subject":1014,"presentation_identifier":3,"trial":"NA","within_identifier":"NA","between_identifier":"incentive","statement_identifier":11,"rt":2726,"response":1,"repeated":0,"certainty":"NA"},{"subject":1014,"presentation_identifier":3,"trial":"NA","within_identifier":"NA","between_identifier":"incentive","statement_identifier":12,"rt":6228,"response":0,"repeated":0,"certainty":"NA"},{"subject":1014,"presentation_identifier":3,"trial":"NA","within_identifier":"NA","between_identifier":"incentive","statement_identifier":13,"rt":3801,"response":1,"repeated":0,"certainty":"NA"},{"subject":1014,"presentation_identifier":3,"trial":"NA","within_identifier":"NA","between_identifier":"incentive","statement_identifier":14,"rt":2546,"response":1,"repeated":0,"certainty":"NA"},{"subject":1014,"presentation_identifier":3,"trial":"NA","within_identifier":"NA","between_identifier":"incentive","statement_identifier":15,"rt":3927,"response":1,"repeated":0,"certainty":"NA"},{"subject":1014,"presentation_identifier":3,"trial":"NA","within_identifier":"NA","between_identifier":"incentive","statement_identifier":16,"rt":7593,"response":1,"repeated":0,"certainty":"NA"},{"subject":1014,"presentation_identifier":3,"trial":"NA","within_identifier":"NA","between_identifier":"incentive","statement_identifier":17,"rt":3184,"response":1,"repeated":1,"certainty":"NA"},{"subject":1014,"presentation_identifier":3,"trial":"NA","within_identifier":"NA","between_identifier":"incentive","statement_identifier":18,"rt":3145,"response":1,"repeated":1,"certainty":"NA"},{"subject":1014,"presentation_identifier":3,"trial":"NA","within_identifier":"NA","between_identifier":"incentive","statement_identifier":19,"rt":3212,"response":1,"repeated":1,"certainty":"NA"},{"subject":1014,"presentation_identifier":3,"trial":"NA","within_identifier":"NA","between_identifier":"incentive","statement_identifier":20,"rt":3,"response":1,"repeated":1,"certainty":"NA"},{"subject":1014,"presentation_identifier":3,"trial":"NA","within_identifier":"NA","between_identifier":"incentive","statement_identifier":21,"rt":2401,"response":1,"repeated":1,"certainty":"NA"},{"subject":1014,"presentation_identifier":3,"trial":"NA","within_identifier":"NA","between_identifier":"incentive","statement_identifier":22,"rt":2173,"response":1,"repeated":1,"certainty":"NA"},{"subject":1014,"presentation_identifier":3,"trial":"NA","within_identifier":"NA","between_identifier":"incentive","statement_identifier":23,"rt":2186,"response":1,"repeated":1,"certainty":"NA"},{"subject":1014,"presentation_identifier":3,"trial":"NA","within_identifier":"NA","between_identifier":"incentive","statement_identifier":24,"rt":2771,"response":1,"repeated":1,"certainty":"NA"},{"subject":1014,"presentation_identifier":3,"trial":"NA","within_identifier":"NA","between_identifier":"incentive","statement_identifier":25,"rt":2057,"response":1,"repeated":1,"certainty":"NA"},{"subject":1014,"presentation_identifier":3,"trial":"NA","within_identifier":"NA","between_identifier":"incentive","statement_identifier":26,"rt":2112,"response":1,"repeated":1,"certainty":"NA"},{"subject":1014,"presentation_identifier":3,"trial":"NA","within_identifier":"NA","between_identifier":"incentive","statement_identifier":27,"rt":20486,"response":1,"repeated":1,"certainty":"NA"},{"subject":1014,"presentation_identifier":3,"trial":"NA","within_identifier":"NA","between_identifier":"incentive","statement_identifier":28,"rt":45629,"response":1,"repeated":1,"certainty":"NA"},{"subject":1014,"presentation_identifier":3,"trial":"NA","within_identifier":"NA","between_identifier":"incentive","statement_identifier":29,"rt":3296,"response":1,"repeated":1,"certainty":"NA"},{"subject":1014,"presentation_identifier":3,"trial":"NA","within_identifier":"NA","between_identifier":"incentive","statement_identifier":30,"rt":2931,"response":1,"repeated":1,"certainty":"NA"},{"subject":1014,"presentation_identifier":3,"trial":"NA","within_identifier":"NA","between_identifier":"incentive","statement_identifier":31,"rt":1982,"response":1,"repeated":1,"certainty":"NA"},{"subject":1014,"presentation_identifier":3,"trial":"NA","within_identifier":"NA","between_identifier":"incentive","statement_identifier":32,"rt":2673,"response":1,"repeated":1,"certainty":"NA"},{"subject":1015,"presentation_identifier":2,"trial":"NA","within_identifier":"NA","between_identifier":"standard","statement_identifier":1,"rt":2996,"response":0,"repeated":1,"certainty":"NA"},{"subject":1015,"presentation_identifier":2,"trial":"NA","within_identifier":"NA","between_identifier":"standard","statement_identifier":2,"rt":2447,"response":1,"repeated":1,"certainty":"NA"},{"subject":1015,"presentation_identifier":2,"trial":"NA","within_identifier":"NA","between_identifier":"standard","statement_identifier":3,"rt":2323,"response":1,"repeated":1,"certainty":"NA"},{"subject":1015,"presentation_identifier":2,"trial":"NA","within_identifier":"NA","between_identifier":"standard","statement_identifier":4,"rt":2592,"response":1,"repeated":1,"certainty":"NA"},{"subject":1015,"presentation_identifier":2,"trial":"NA","within_identifier":"NA","between_identifier":"standard","statement_identifier":5,"rt":1767,"response":1,"repeated":1,"certainty":"NA"},{"subject":1015,"presentation_identifier":2,"trial":"NA","within_identifier":"NA","between_identifier":"standard","statement_identifier":6,"rt":4005,"response":0,"repeated":1,"certainty":"NA"},{"subject":1015,"presentation_identifier":2,"trial":"NA","within_identifier":"NA","between_identifier":"standard","statement_identifier":7,"rt":3273,"response":1,"repeated":1,"certainty":"NA"},{"subject":1015,"presentation_identifier":2,"trial":"NA","within_identifier":"NA","between_identifier":"standard","statement_identifier":8,"rt":2925,"response":1,"repeated":1,"certainty":"NA"},{"subject":1015,"presentation_identifier":2,"trial":"NA","within_identifier":"NA","between_identifier":"standard","statement_identifier":9,"rt":2313,"response":1,"repeated":1,"certainty":"NA"},{"subject":1015,"presentation_identifier":2,"trial":"NA","within_identifier":"NA","between_identifier":"standard","statement_identifier":10,"rt":3206,"response":0,"repeated":1,"certainty":"NA"},{"subject":1015,"presentation_identifier":2,"trial":"NA","within_identifier":"NA","between_identifier":"standard","statement_identifier":11,"rt":3955,"response":0,"repeated":1,"certainty":"NA"},{"subject":1015,"presentation_identifier":2,"trial":"NA","within_identifier":"NA","between_identifier":"standard","statement_identifier":12,"rt":4759,"response":1,"repeated":1,"certainty":"NA"},{"subject":1015,"presentation_identifier":2,"trial":"NA","within_identifier":"NA","between_identifier":"standard","statement_identifier":13,"rt":2299,"response":1,"repeated":1,"certainty":"NA"},{"subject":1015,"presentation_identifier":2,"trial":"NA","within_identifier":"NA","between_identifier":"standard","statement_identifier":14,"rt":1747,"response":1,"repeated":1,"certainty":"NA"},{"subject":1015,"presentation_identifier":2,"trial":"NA","within_identifier":"NA","between_identifier":"standard","statement_identifier":15,"rt":3144,"response":1,"repeated":1,"certainty":"NA"},{"subject":1015,"presentation_identifier":2,"trial":"NA","within_identifier":"NA","between_identifier":"standard","statement_identifier":16,"rt":4298,"response":1,"repeated":1,"certainty":"NA"},{"subject":1015,"presentation_identifier":2,"trial":"NA","within_identifier":"NA","between_identifier":"standard","statement_identifier":17,"rt":5126,"response":0,"repeated":0,"certainty":"NA"},{"subject":1015,"presentation_identifier":2,"trial":"NA","within_identifier":"NA","between_identifier":"standard","statement_identifier":18,"rt":3084,"response":0,"repeated":0,"certainty":"NA"},{"subject":1015,"presentation_identifier":2,"trial":"NA","within_identifier":"NA","between_identifier":"standard","statement_identifier":19,"rt":5321,"response":1,"repeated":0,"certainty":"NA"},{"subject":1015,"presentation_identifier":2,"trial":"NA","within_identifier":"NA","between_identifier":"standard","statement_identifier":20,"rt":3798,"response":0,"repeated":0,"certainty":"NA"},{"subject":1015,"presentation_identifier":2,"trial":"NA","within_identifier":"NA","between_identifier":"standard","statement_identifier":21,"rt":4991,"response":1,"repeated":0,"certainty":"NA"},{"subject":1015,"presentation_identifier":2,"trial":"NA","within_identifier":"NA","between_identifier":"standard","statement_identifier":22,"rt":7771,"response":0,"repeated":0,"certainty":"NA"},{"subject":1015,"presentation_identifier":2,"trial":"NA","within_identifier":"NA","between_identifier":"standard","statement_identifier":23,"rt":5251,"response":1,"repeated":0,"certainty":"NA"},{"subject":1015,"presentation_identifier":2,"trial":"NA","within_identifier":"NA","between_identifier":"standard","statement_identifier":24,"rt":2588,"response":1,"repeated":0,"certainty":"NA"},{"subject":1015,"presentation_identifier":2,"trial":"NA","within_identifier":"NA","between_identifier":"standard","statement_identifier":25,"rt":18688,"response":0,"repeated":0,"certainty":"NA"},{"subject":1015,"presentation_identifier":2,"trial":"NA","within_identifier":"NA","between_identifier":"standard","statement_identifier":26,"rt":2977,"response":0,"repeated":0,"certainty":"NA"},{"subject":1015,"presentation_identifier":2,"trial":"NA","within_identifier":"NA","between_identifier":"standard","statement_identifier":27,"rt":4904,"response":0,"repeated":0,"certainty":"NA"},{"subject":1015,"presentation_identifier":2,"trial":"NA","within_identifier":"NA","between_identifier":"standard","statement_identifier":28,"rt":4074,"response":1,"repeated":0,"certainty":"NA"},{"subject":1015,"presentation_identifier":2,"trial":"NA","within_identifier":"NA","between_identifier":"standard","statement_identifier":29,"rt":6738,"response":0,"repeated":0,"certainty":"NA"},{"subject":1015,"presentation_identifier":2,"trial":"NA","within_identifier":"NA","between_identifier":"standard","statement_identifier":30,"rt":26736,"response":0,"repeated":0,"certainty":"NA"},{"subject":1015,"presentation_identifier":2,"trial":"NA","within_identifier":"NA","between_identifier":"standard","statement_identifier":31,"rt":2717,"response":0,"repeated":0,"certainty":"NA"},{"subject":1015,"presentation_identifier":2,"trial":"NA","within_identifier":"NA","between_identifier":"standard","statement_identifier":32,"rt":34366,"response":0,"repeated":0,"certainty":"NA"},{"subject":1016,"presentation_identifier":3,"trial":"NA","within_identifier":"NA","between_identifier":"incentive","statement_identifier":1,"rt":2319,"response":1,"repeated":1,"certainty":"NA"},{"subject":1016,"presentation_identifier":3,"trial":"NA","within_identifier":"NA","between_identifier":"incentive","statement_identifier":2,"rt":2967,"response":1,"repeated":1,"certainty":"NA"},{"subject":1016,"presentation_identifier":3,"trial":"NA","within_identifier":"NA","between_identifier":"incentive","statement_identifier":3,"rt":2554,"response":1,"repeated":1,"certainty":"NA"},{"subject":1016,"presentation_identifier":3,"trial":"NA","within_identifier":"NA","between_identifier":"incentive","statement_identifier":4,"rt":3082,"response":1,"repeated":1,"certainty":"NA"},{"subject":1016,"presentation_identifier":3,"trial":"NA","within_identifier":"NA","between_identifier":"incentive","statement_identifier":5,"rt":3107,"response":1,"repeated":1,"certainty":"NA"},{"subject":1016,"presentation_identifier":3,"trial":"NA","within_identifier":"NA","between_identifier":"incentive","statement_identifier":6,"rt":2724,"response":1,"repeated":1,"certainty":"NA"},{"subject":1016,"presentation_identifier":3,"trial":"NA","within_identifier":"NA","between_identifier":"incentive","statement_identifier":7,"rt":3041,"response":1,"repeated":1,"certainty":"NA"},{"subject":1016,"presentation_identifier":3,"trial":"NA","within_identifier":"NA","between_identifier":"incentive","statement_identifier":8,"rt":2571,"response":1,"repeated":1,"certainty":"NA"},{"subject":1016,"presentation_identifier":3,"trial":"NA","within_identifier":"NA","between_identifier":"incentive","statement_identifier":9,"rt":2822,"response":1,"repeated":1,"certainty":"NA"},{"subject":1016,"presentation_identifier":3,"trial":"NA","within_identifier":"NA","between_identifier":"incentive","statement_identifier":10,"rt":2687,"response":1,"repeated":1,"certainty":"NA"},{"subject":1016,"presentation_identifier":3,"trial":"NA","within_identifier":"NA","between_identifier":"incentive","statement_identifier":11,"rt":2531,"response":1,"repeated":1,"certainty":"NA"},{"subject":1016,"presentation_identifier":3,"trial":"NA","within_identifier":"NA","between_identifier":"incentive","statement_identifier":12,"rt":3288,"response":1,"repeated":1,"certainty":"NA"},{"subject":1016,"presentation_identifier":3,"trial":"NA","within_identifier":"NA","between_identifier":"incentive","statement_identifier":13,"rt":17199,"response":1,"repeated":1,"certainty":"NA"},{"subject":1016,"presentation_identifier":3,"trial":"NA","within_identifier":"NA","between_identifier":"incentive","statement_identifier":14,"rt":2782,"response":1,"repeated":1,"certainty":"NA"},{"subject":1016,"presentation_identifier":3,"trial":"NA","within_identifier":"NA","between_identifier":"incentive","statement_identifier":15,"rt":2632,"response":1,"repeated":1,"certainty":"NA"},{"subject":1016,"presentation_identifier":3,"trial":"NA","within_identifier":"NA","between_identifier":"incentive","statement_identifier":16,"rt":4237,"response":1,"repeated":1,"certainty":"NA"},{"subject":1016,"presentation_identifier":3,"trial":"NA","within_identifier":"NA","between_identifier":"incentive","statement_identifier":17,"rt":7136,"response":0,"repeated":0,"certainty":"NA"},{"subject":1016,"presentation_identifier":3,"trial":"NA","within_identifier":"NA","between_identifier":"incentive","statement_identifier":18,"rt":3022,"response":0,"repeated":0,"certainty":"NA"},{"subject":1016,"presentation_identifier":3,"trial":"NA","within_identifier":"NA","between_identifier":"incentive","statement_identifier":19,"rt":42125,"response":1,"repeated":0,"certainty":"NA"},{"subject":1016,"presentation_identifier":3,"trial":"NA","within_identifier":"NA","between_identifier":"incentive","statement_identifier":20,"rt":9449,"response":0,"repeated":0,"certainty":"NA"},{"subject":1016