"","subject","presentation_identifier","trial","within_identifier","rt","response","repeated","statement_identifier"
"1",1,3,1,1,NA,NA,1,60
"2",1,3,2,1,0.532,"true",1,59
"3",1,3,3,1,0.302,"true",1,72
"4",1,3,4,2,NA,NA,0,18
"5",1,3,5,2,0.307,"false",1,47
"6",1,3,6,1,NA,NA,0,35
"7",1,3,7,2,NA,NA,1,50
"8",1,3,8,1,NA,NA,0,25
"9",1,3,9,2,NA,NA,1,42
"10",1,3,10,2,NA,NA,0,13
"11",1,3,11,1,NA,NA,0,24
"12",1,3,12,2,NA,NA,0,5
"13",1,3,13,1,NA,NA,0,19
"14",1,3,14,1,NA,NA,1,62
"15",1,3,15,1,NA,NA,0,32
"16",1,3,16,1,NA,NA,1,66
"17",1,3,17,2,NA,NA,0,14
"18",1,3,18,2,NA,NA,1,45
"19",1,3,19,2,NA,NA,0,7
"20",1,3,20,2,NA,NA,1,43
"21",1,3,21,1,0.699,"true",1,64
"22",1,3,22,2,NA,NA,0,6
"23",1,3,23,1,NA,NA,0,34
"24",1,3,24,2,NA,NA,1,48
"25",1,3,25,1,NA,NA,1,71
"26",1,3,26,1,NA,NA,0,31
"27",1,3,27,1,NA,NA,0,22
"28",1,3,28,1,0.361,"true",1,68
"29",1,3,29,2,NA,NA,0,15
"30",1,3,30,2,0.753,"true",1,38
"31",1,3,31,1,NA,NA,1,58
"32",1,3,32,2,NA,NA,0,11
"33",1,3,33,2,0.278,"true",1,51
"34",1,3,34,2,0.379,"true",1,52
"35",1,3,35,1,NA,NA,0,20
"36",1,3,36,2,NA,NA,0,2
"37",1,3,37,2,NA,NA,1,40
"38",1,3,38,1,NA,NA,0,29
"39",1,3,39,2,NA,NA,0,4
"40",1,3,40,1,0.36,"true",1,67
"41",1,3,41,2,NA,NA,0,12
"42",1,3,42,1,NA,NA,0,26
"43",1,3,43,1,NA,NA,0,30
"44",1,3,44,1,NA,NA,1,56
"45",1,3,45,1,NA,NA,1,55
"46",1,3,46,2,NA,NA,1,53
"47",1,3,47,2,0.483,"false",1,39
"48",1,3,48,2,NA,NA,0,8
"49",100,3,1,2,0.056,"false",0,51
"50",100,3,2,1,0.219,"false",1,25
"51",100,3,3,2,0.193,"true",1,13
"52",100,3,4,2,0.053,"true",1,14
"53",100,3,5,1,0.272,"false",0,62
"54",100,3,6,1,0.089,"false",1,27
"55",100,3,7,2,0.181,"false",1,15
"56",100,3,8,2,0.165,"false",1,6
"57",100,3,9,1,0.248,"true",0,71
"58",100,3,10,2,0.232,"false",0,40
"59",100,3,11,1,0.105,"true",1,36
"60",100,3,12,1,0.198,"false",1,23
"61",100,3,13,1,0.029,"false",0,57
"62",100,3,14,2,0.186,"false",0,39
"63",100,3,15,2,0.322,"false",1,1
"64",100,3,16,1,0.04,"false",1,29
"65",100,3,17,1,NA,NA,0,64
"66",100,3,18,1,0.174,"true",0,65
"67",100,3,19,1,0.138,"false",0,56
"68",100,3,20,2,0.261,"false",0,50
"69",100,3,21,2,0.062,"false",0,49
"70",100,3,22,1,0.24,"true",1,34
"71",100,3,23,2,0.184,"false",0,44
"72",100,3,24,2,0.311,"false",1,3
"73",100,3,25,2,0.306,"false",1,7
"74",100,3,26,2,0.115,"false",0,46
"75",100,3,27,2,0.221,"false",0,54
"76",100,3,28,2,0.198,"true",0,47
"77",100,3,29,2,0.188,"false",0,45
"78",100,3,30,1,NA,NA,0,70
"79",100,3,31,2,0.235,"true",1,17
"80",100,3,32,2,0.229,"true",1,5
"81",100,3,33,1,0.056,"true",0,67
"82",100,3,34,1,0.317,"false",0,60
"83",100,3,35,1,0.173,"true",1,35
"84",100,3,36,2,NA,NA,1,2
"85",100,3,37,1,0.3,"false",1,22
"86",100,3,38,2,NA,NA,1,10
"87",100,3,39,1,0.1,"false",1,21
"88",100,3,40,1,0.146,"false",1,19
"89",100,3,41,1,0.204,"true",1,33
"90",100,3,42,2,0.209,"true",0,41
"91",100,3,43,1,0.324,"true",1,28
"92",100,3,44,1,0.199,"true",0,68
"93",100,3,45,1,0.175,"false",0,61
"94",100,3,46,2,0.367,"true",0,43
"95",100,3,47,2,NA,NA,1,12
"96",100,3,48,1,0.143,"false",0,55
"97",101,2,1,2,1.157,"true",1,13
"98",101,2,2,1,0.772,"true",1,33
"99",101,2,3,1,2.027,"false",1,32
"100",101,2,4,2,0.616,"true",1,18
"101",101,2,5,1,0.478,"false",0,55
"102",101,2,6,1,1.903,"false",0,59
"103",101,2,7,2,0.283,"true",1,5
"104",101,2,8,1,0.487,"false",1,27
"105",101,2,9,2,0.326,"true",1,14
"106",101,2,10,1,0.943,"false",1,23
"107",101,2,11,2,0.418,"true",1,6
"108",101,2,12,1,3.037,"true",0,66
"109",101,2,13,1,1.437,"true",0,60
"110",101,2,14,2,0.539,"false",0,50
"111",101,2,15,2,1.095,"false",0,46
"112",101,2,16,2,2.018,"true",0,45
"113",101,2,17,1,3.017,"true",1,26
"114",101,2,18,2,0.409,"false",0,39
"115",101,2,19,1,2.595,"true",0,72
"116",101,2,20,1,0.684,"false",0,65
"117",101,2,21,2,0.739,"true",1,9
"118",101,2,22,1,2.131,"true",1,31
"119",101,2,23,2,1.027,"true",0,40
"120",101,2,24,2,0.462,"true",0,47
"121",101,2,25,2,1.075,"true",0,43
"122",101,2,26,2,1.288,"true",1,17
"123",101,2,27,1,2.407,"true",1,35
"124",101,2,28,2,0.922,"false",0,48
"125",101,2,29,1,1.704,"false",0,63
"126",101,2,30,2,1.094,"false",1,10
"127",101,2,31,1,0.808,"true",0,68
"128",101,2,32,2,0.624,"true",1,2
"129",101,2,33,2,0.898,"false",1,4
"130",101,2,34,2,1.713,"false",0,44
"131",101,2,35,1,0.859,"true",0,61
"132",101,2,36,1,0.596,"true",1,20
"133",101,2,37,1,2.095,"true",0,69
"134",101,2,38,1,1.714,"true",1,25
"135",101,2,39,2,1.284,"false",0,54
"136",101,2,40,1,2.529,"true",0,71
"137",101,2,41,2,3.136,"false",0,41
"138",101,2,42,1,0.809,"false",1,24
"139",101,2,43,2,2.272,"true",1,7
"140",101,2,44,2,0.385,"true",0,53
"141",101,2,45,1,1.217,"true",1,36
"142",101,2,46,1,0.8,"false",0,56
"143",101,2,47,2,0.642,"false",1,11
"144",101,2,48,1,0.341,"true",1,29
"145",102,2,1,2,2.281,"true",1,8
"146",102,2,2,1,3.038,"true",0,61
"147",102,2,3,2,1.52,"false",0,50
"148",102,2,4,2,5.556,"false",1,2
"149",102,2,5,1,0.372,"true",1,35
"150",102,2,6,1,0.796,"false",1,26
"151",102,2,7,2,0.602,"false",0,48
"152",102,2,8,2,1.615,"false",1,3
"153",102,2,9,1,1.755,"true",0,70
"154",102,2,10,2,1.267,"false",0,39
"155",102,2,11,1,0.598,"true",0,67
"156",102,2,12,1,2.014,"true",0,66
"157",102,2,13,2,3.155,"false",1,10
"158",102,2,14,2,1.716,"false",0,40
"159",102,2,15,1,4.545,"true",1,30
"160",102,2,16,2,2.569,"true",1,17
"161",102,2,17,2,0.797,"false",0,51
"162",102,2,18,2,4.629,"false",1,12
"163",102,2,19,1,2.701,"false",0,55
"164",102,2,20,1,0.3,"false",1,21
"165",102,2,21,1,0.381,"true",1,29
"166",102,2,22,1,2.917,"false",0,60
"167",102,2,23,2,2.133,"true",0,37
"168",102,2,24,1,2.953,"false",1,23
"169",102,2,25,1,1.065,"false",0,68
"170",102,2,26,1,0.296,"true",1,32
"171",102,2,27,2,0.28,"false",0,46
"172",102,2,28,1,3.583,"false",1,19
"173",102,2,29,2,3.074,"false",0,42
"174",102,2,30,2,3.699,"false",0,47
"175",102,2,31,1,0.49,"true",1,31
"176",102,2,32,1,0.325,"false",0,62
"177",102,2,33,2,0.554,"false",0,49
"178",102,2,34,2,3.468,"false",1,15
"179",102,2,35,1,3.054,"false",1,22
"180",102,2,36,2,2.549,"true",1,4
"181",102,2,37,1,2.009,"false",0,71
"182",102,2,38,1,7.16,"false",0,59
"183",102,2,39,1,0.581,"true",1,34
"184",102,2,40,2,2.881,"true",0,38
"185",102,2,41,1,5.204,"true",0,58
"186",102,2,42,2,3.78,"true",1,7
"187",102,2,43,2,4.033,"true",0,41
"188",102,2,44,2,8.263,"true",1,5
"189",102,2,45,1,4.967,"false",0,64
"190",102,2,46,2,4.652,"false",1,11
"191",102,2,47,2,1.953,"true",1,18
"192",102,2,48,1,0.931,"false",1,24
"193",103,2,1,1,3.897,"true",1,72
"194",103,2,2,1,2.948,"true",1,68
"195",103,2,3,1,2.16,"false",1,64
"196",103,2,4,1,9.673,"false",0,20
"197",103,2,5,2,2.885,"false",1,38
"198",103,2,6,1,2.934,"false",1,59
"199",103,2,7,2,3.556,"false",0,8
"200",103,2,8,1,0.273,"false",1,58
"201",103,2,9,2,0.28,"false",1,43
"202",103,2,10,1,8.168,"false",0,36
"203",103,2,11,1,4.391,"false",0,25
"204",103,2,12,2,3.864,"false",0,10
"205",103,2,13,2,0.285,"false",1,49
"206",103,2,14,2,2.004,"true",0,9
"207",103,2,15,2,4.068,"true",1,54
"208",103,2,16,2,3.322,"true",0,5
"209",103,2,17,2,0.42,"true",1,40
"210",103,2,18,2,3.013,"false",1,53
"211",103,2,19,1,9.651,"true",0,34
"212",103,2,20,1,1.553,"false",1,62
"213",103,2,21,2,4.615,"true",0,12
"214",103,2,22,1,1.805,"false",0,26
"215",103,2,23,2,3.715,"false",0,13
"216",103,2,24,1,0.656,"true",0,35
"217",103,2,25,1,1.357,"false",1,60
"218",103,2,26,1,0.402,"true",1,65
"219",103,2,27,1,11.276,"true",0,28
"220",103,2,28,2,1.026,"false",1,42
"221",103,2,29,2,0.231,"true",1,39
"222",103,2,30,2,6.133,"true",1,45
"223",103,2,31,2,7.387,"true",0,14
"224",103,2,32,2,1.099,"true",0,6
"225",103,2,33,1,0.261,"true",1,55
"226",103,2,34,1,0.264,"true",1,70
"227",103,2,35,2,0.704,"true",0,18
"228",103,2,36,1,0.28,"true",0,33
"229",103,2,37,1,2.773,"false",0,31
"230",103,2,38,2,6.209,"false",0,1
"231",103,2,39,2,3.608,"true",1,52
"232",103,2,40,1,4.494,"false",1,56
"233",103,2,41,2,5.377,"false",1,46
"234",103,2,42,1,7.777,"true",0,24
"235",103,2,43,1,0.287,"false",0,21
"236",103,2,44,2,5.77,"true",0,3
"237",103,2,45,1,3.821,"true",1,66
"238",103,2,46,1,4.408,"true",0,22
"239",103,2,47,2,0.305,"true",1,48
"240",103,2,48,2,4.665,"false",0,17
"241",104,3,1,2,0.213,"true",1,51
"242",104,3,2,1,NA,NA,0,24
"243",104,3,3,1,0.251,"true",0,31
"244",104,3,4,2,NA,NA,0,16
"245",104,3,5,2,0.239,"true",1,40
"246",104,3,6,1,0.145,"true",0,29
"247",104,3,7,1,0.131,"true",1,55
"248",104,3,8,1,NA,NA,1,62
"249",104,3,9,2,NA,NA,0,17
"250",104,3,10,2,0.239,"true",1,41
"251",104,3,11,2,NA,NA,0,9
"252",104,3,12,1,0.166,"true",1,68
"253",104,3,13,1,0.216,"true",0,28
"254",104,3,14,2,0.105,"true",1,54
"255",104,3,15,1,NA,NA,1,70
"256",104,3,16,1,0.201,"false",1,63
"257",104,3,17,2,0.286,"true",1,42
"258",104,3,18,2,0.038,"true",0,12
"259",104,3,19,1,0.161,"false",0,26
"260",104,3,20,2,0.087,"true",0,2
"261",104,3,21,2,0.17,"false",0,3
"262",104,3,22,1,NA,NA,1,66
"263",104,3,23,1,NA,NA,0,23
"264",104,3,24,2,0.185,"true",1,52
"265",104,3,25,2,NA,NA,0,15
"266",104,3,26,1,0.172,"false",0,33
"267",104,3,27,1,NA,NA,0,27
"268",104,3,28,1,0.175,"false",1,57
"269",104,3,29,1,0.151,"true",1,65
"270",104,3,30,1,0.173,"true",0,36
"271",104,3,31,2,0.282,"true",0,4
"272",104,3,32,2,0.207,"true",1,50
"273",104,3,33,2,0.213,"true",0,11
"274",104,3,34,1,0.119,"true",1,69
"275",104,3,35,2,0.166,"true",1,53
"276",104,3,36,1,0.211,"true",1,71
"277",104,3,37,2,0.259,"true",0,10
"278",104,3,38,1,0.235,"false",0,20
"279",104,3,39,2,0.199,"false",1,43
"280",104,3,40,1,0.175,"true",0,35
"281",104,3,41,1,0.08,"false",1,56
"282",104,3,42,2,0.158,"false",1,47
"283",104,3,43,2,0.3,"true",0,5
"284",104,3,44,2,0.277,"false",1,39
"285",104,3,45,1,NA,NA,0,19
"286",104,3,46,1,0.116,"false",1,59
"287",104,3,47,2,0.291,"false",1,38
"288",104,3,48,2,NA,NA,0,7
"289",106,3,1,2,0.165,"true",0,54
"290",106,3,2,2,0.159,"true",1,13
"291",106,3,3,1,NA,NA,1,31
"292",106,3,4,2,0.025,"true",0,38
"293",106,3,5,1,0.214,"true",1,34
"294",106,3,6,1,0.204,"false",0,64
"295",106,3,7,1,0.017,"true",0,57
"296",106,3,8,1,0.236,"false",1,20
"297",106,3,9,1,0.241,"true",0,55
"298",106,3,10,2,0.245,"false",1,18
"299",106,3,11,1,0.204,"false",0,66
"300",106,3,12,1,0.042,"true",1,29
"301",106,3,13,2,0.247,"true",0,50
"302",106,3,14,1,0.099,"true",0,58
"303",106,3,15,2,0.01,"true",1,14
"304",106,3,16,2,0.104,"true",1,8
"305",106,3,17,1,NA,NA,1,22
"306",106,3,18,2,0.143,"false",0,41
"307",106,3,19,2,0.158,"false",0,49
"308",106,3,20,1,0.195,"false",1,24
"309",106,3,21,1,0.15,"true",0,69
"310",106,3,22,2,0.061,"false",1,3
"311",106,3,23,2,NA,NA,0,40
"312",106,3,24,2,0.203,"false",1,6
"313",106,3,25,1,0.002,"true",1,19
"314",106,3,26,1,0.223,"false",1,25
"315",106,3,27,2,0.142,"true",1,15
"316",106,3,28,2,0.171,"true",1,9
"317",106,3,29,1,0.166,"true",0,65
"318",106,3,30,1,0.142,"true",0,67
"319",106,3,31,1,0.212,"false",0,63
"320",106,3,32,2,0.16,"true",0,48
"321",106,3,33,2,0.219,"true",0,46
"322",106,3,34,2,0.176,"true",1,11
"323",106,3,35,2,0.029,"true",1,5
"324",106,3,36,2,0.162,"false",0,47
"325",106,3,37,1,0.135,"true",1,35
"326",106,3,38,1,NA,NA,0,59
"327",106,3,39,1,NA,NA,1,30
"328",106,3,40,1,0.123,"false",0,61
"329",106,3,41,1,0.161,"true",0,72
"330",106,3,42,1,NA,NA,1,32
"331",106,3,43,2,0.17,"true",1,4
"332",106,3,44,1,0.195,"true",1,23
"333",106,3,45,2,0.099,"false",1,10
"334",106,3,46,2,NA,NA,0,42
"335",106,3,47,2,0.061,"false",0,37
"336",106,3,48,2,0.185,"true",0,39
"337",107,2,1,1,1.953,"true",1,36
"338",107,2,2,2,0.664,"false",1,4
"339",107,2,3,2,1.098,"true",0,38
"340",107,2,4,1,0.576,"false",0,67
"341",107,2,5,1,1.069,"true",0,64
"342",107,2,6,2,0.942,"false",0,53
"343",107,2,7,1,0.373,"false",1,23
"344",107,2,8,2,2.481,"false",0,47
"345",107,2,9,1,0.483,"false",0,62
"346",107,2,10,1,0.36,"true",0,56
"347",107,2,11,1,0.262,"true",1,32
"348",107,2,12,2,0.333,"true",1,9
"349",107,2,13,2,0.495,"false",0,49
"350",107,2,14,1,0.903,"false",0,68
"351",107,2,15,2,1.265,"false",1,15
"352",107,2,16,1,0.571,"true",1,31
"353",107,2,17,2,0.299,"true",1,8
"354",107,2,18,1,0.712,"false",1,27
"355",107,2,19,2,1.992,"true",0,43
"356",107,2,20,2,1.333,"true",1,16
"357",107,2,21,1,0.289,"false",1,21
"358",107,2,22,1,0.803,"false",0,58
"359",107,2,23,2,1.267,"true",0,42
"360",107,2,24,2,1.558,"true",1,18
"361",107,2,25,1,0.421,"true",0,61
"362",107,2,26,2,0.646,"true",0,51
"363",107,2,27,1,0.302,"true",0,69
"364",107,2,28,1,1.605,"false",0,60
"365",107,2,29,1,1.248,"true",0,57
"366",107,2,30,2,1.925,"true",1,17
"367",107,2,31,2,0.772,"false",0,45
"368",107,2,32,1,2.705,"false",1,34
"369",107,2,33,2,0.528,"false",0,50
"370",107,2,34,1,0.67,"true",0,66
"371",107,2,35,2,0.685,"false",0,37
"372",107,2,36,1,1.083,"false",1,24
"373",107,2,37,2,0.585,"true",1,2
"374",107,2,38,1,0.197,"true",1,33
"375",107,2,39,1,1.765,"true",0,70
"376",107,2,40,1,1.263,"false",1,22
"377",107,2,41,2,3.141,"false",0,41
"378",107,2,42,2,1.12,"true",0,46
"379",107,2,43,2,0.943,"false",1,6
"380",107,2,44,1,0.477,"true",1,35
"381",107,2,45,2,0.339,"false",1,3
"382",107,2,46,2,0.408,"false",1,11
"383",107,2,47,2,0.245,"true",1,13
"384",107,2,48,1,0.204,"false",1,26
"385",108,2,1,2,1.764,"false",0,46
"386",108,2,2,1,3.053,"false",0,60
"387",108,2,3,1,0.996,"false",0,63
"388",108,2,4,1,2.686,"true",0,70
"389",108,2,5,1,3.82,"true",1,25
"390",108,2,6,1,4.747,"true",1,36
"391",108,2,7,1,0.568,"true",1,29
"392",108,2,8,2,2.192,"true",0,51
"393",108,2,9,1,1.222,"true",1,27
"394",108,2,10,2,1.802,"false",0,38
"395",108,2,11,1,1.072,"true",1,21
"396",108,2,12,1,1.239,"true",1,33
"397",108,2,13,2,1.541,"true",0,43
"398",108,2,14,2,1.126,"false",1,8
"399",108,2,15,2,2.46,"false",1,11
"400",108,2,16,2,2.158,"false",0,41
"401",108,2,17,1,3.263,"false",0,55
"402",108,2,18,1,2.563,"true",0,68
"403",108,2,19,2,1.372,"false",1,10
"404",108,2,20,2,1.229,"true",1,3
"405",108,2,21,1,1.382,"true",0,66
"406",108,2,22,2,1.661,"true",1,12
"407",108,2,23,2,2.628,"false",0,53
"408",108,2,24,2,0.886,"true",1,9
"409",108,2,25,1,0.39,"true",0,67
"410",108,2,26,2,0.751,"true",1,14
"411",108,2,27,1,1.008,"true",0,59
"412",108,2,28,1,3.489,"true",1,30
"413",108,2,29,2,2.497,"false",0,45
"414",108,2,30,2,1.687,"false",0,40
"415",108,2,31,2,1.311,"true",1,1
"416",108,2,32,2,2.025,"true",1,7
"417",108,2,33,2,1.863,"false",1,18
"418",108,2,34,1,0.549,"true",1,34
"419",108,2,35,1,0.781,"true",1,24
"420",108,2,36,1,0.995,"false",1,26
"421",108,2,37,1,1.257,"true",0,64
"422",108,2,38,2,2.53,"true",0,54
"423",108,2,39,2,1.184,"true",0,42
"424",108,2,40,2,1.34,"true",1,2
"425",108,2,41,1,1.55,"true",0,72
"426",108,2,42,1,1.888,"true",1,22
"427",108,2,43,2,0.556,"true",1,13
"428",108,2,44,2,0.603,"false",0,48
"429",108,2,45,1,1.381,"true",0,61
"430",108,2,46,2,2.093,"true",0,47
"431",108,2,47,1,1.999,"false",1,32
"432",108,2,48,1,2.286,"false",0,56
"433",110,2,1,2,0.801,"true",1,4
"434",110,2,2,1,0.922,"true",0,59
"435",110,2,3,2,0.748,"false",0,48
"436",110,2,4,1,0.411,"false",1,24
"437",110,2,5,2,1.23,"true",0,51
"438",110,2,6,2,0.451,"true",1,13
"439",110,2,7,2,1.63,"true",1,3
"440",110,2,8,2,2.068,"false",0,50
"441",110,2,9,2,0.666,"false",1,18
"442",110,2,10,1,0.431,"false",0,71
"443",110,2,11,2,0.483,"false",1,12
"444",110,2,12,2,0.527,"false",0,44
"445",110,2,13,1,1.027,"false",0,65
"446",110,2,14,2,0.394,"false",0,39
"447",110,2,15,1,0.346,"true",1,35
"448",110,2,16,1,0.419,"true",0,69
"449",110,2,17,1,2.237,"true",1,30
"450",110,2,18,2,0.585,"false",0,45
"451",110,2,19,2,1.384,"true",1,5
"452",110,2,20,1,0.307,"true",1,29
"453",110,2,21,1,1.377,"false",0,58
"454",110,2,22,1,0.367,"false",1,25
"455",110,2,23,1,1.865,"false",0,60
"456",110,2,24,1,0.312,"false",1,20
"457",110,2,25,2,1.782,"false",0,53
"458",110,2,26,1,1.493,"false",0,62
"459",110,2,27,1,0.363,"true",1,27
"460",110,2,28,1,0.479,"true",0,67
"461",110,2,29,2,0.467,"true",1,6
"462",110,2,30,1,0.524,"true",0,61
"463",110,2,31,2,0.779,"true",0,49
"464",110,2,32,2,0.265,"true",1,9
"465",110,2,33,2,0.627,"true",0,54
"466",110,2,34,1,0.128,"false",1,21
"467",110,2,35,1,1.015,"true",0,64
"468",110,2,36,1,0.408,"false",1,33
"469",110,2,37,2,0.609,"false",0,43
"470",110,2,38,1,0.225,"false",0,55
"471",110,2,39,1,1.389,"true",1,36
"472",110,2,40,2,0.862,"false",1,15
"473",110,2,41,2,0.653,"true",1,14
"474",110,2,42,2,0.553,"false",1,17
"475",110,2,43,1,0.246,"true",0,66
"476",110,2,44,1,0.309,"false",1,31
"477",110,2,45,2,0.262,"true",1,2
"478",110,2,46,2,0.815,"true",0,38
"479",110,2,47,2,1.524,"false",0,42
"480",110,2,48,1,0.387,"false",1,26
"481",112,2,1,1,1.642,"false",0,24
"482",112,2,2,2,2.515,"false",0,7
"483",112,2,3,2,2.704,"true",1,40
"484",112,2,4,2,0.972,"true",1,39
"485",112,2,5,1,0.803,"true",1,67
"486",112,2,6,2,1.31,"true",1,53
"487",112,2,7,2,4.064,"false",0,14
"488",112,2,8,1,0.997,"true",1,70
"489",112,2,9,1,2.555,"true",0,28
"490",112,2,10,1,2.664,"false",1,58
"491",112,2,11,2,2.027,"false",0,6
"492",112,2,12,1,3.178,"false",1,71
"493",112,2,13,2,1.105,"true",0,18
"494",112,2,14,2,1.06,"true",1,48
"495",112,2,15,1,1.516,"true",0,31
"496",112,2,16,1,3.453,"false",1,56
"497",112,2,17,2,3.462,"false",1,37
"498",112,2,18,1,2.334,"false",0,23
"499",112,2,19,1,1.63,"false",0,26
"500",112,2,20,2,2.059,"true",1,49
"501",112,2,21,1,4.276,"true",0,32
"502",112,2,22,2,2.705,"true",0,4
"503",112,2,23,1,1.772,"false",1,62
"504",112,2,24,2,0.744,"false",0,12
"505",112,2,25,1,1.657,"false",0,20
"506",112,2,26,2,1.175,"false",0,10
"507",112,2,27,2,2.351,"true",1,44
"508",112,2,28,1,2.29,"true",1,66
"509",112,2,29,1,4.308,"true",0,22
"510",112,2,30,2,1.984,"false",1,45
"511",112,2,31,2,1.781,"false",1,50
"512",112,2,32,2,5.106,"false",0,13
"513",112,2,33,1,1.119,"false",1,59
"514",112,2,34,1,1.368,"true",1,60
"515",112,2,35,2,4.743,"false",0,8
"516",112,2,36,2,1.421,"true",1,51
"517",112,2,37,2,1.364,"false",1,42
"518",112,2,38,2,4.49,"false",1,54
"519",112,2,39,1,0.456,"false",0,27
"520",112,2,40,2,1.887,"false",0,17
"521",112,2,41,2,0.738,"true",0,2
"522",112,2,42,1,1.673,"true",1,55
"523",112,2,43,1,3.003,"true",0,33
"524",112,2,44,1,1.988,"true",1,68
"525",112,2,45,1,0.81,"true",0,34
"526",112,2,46,1,1.331,"true",1,64
"527",112,2,47,1,0.884,"true",0,35
"528",112,2,48,2,3.166,"false",0,3
"529",115,3,1,1,0.172,"true",1,61
"530",115,3,2,2,NA,NA,0,17
"531",115,3,3,2,0.429,"false",0,3
"532",115,3,4,1,0.218,"true",0,35
"533",115,3,5,2,0.272,"true",0,15
"534",115,3,6,1,0.004,"false",0,25
"535",115,3,7,1,NA,NA,1,55
"536",115,3,8,2,0.155,"false",1,46
"537",115,3,9,2,0.263,"true",1,41
"538",115,3,10,1,0.319,"false",0,33
"539",115,3,11,2,0.197,"false",0,6
"540",115,3,12,1,0.221,"true",1,71
"541",115,3,13,2,NA,NA,0,7
"542",115,3,14,2,0.215,"true",1,44
"543",115,3,15,2,0.215,"true",1,43
"544",115,3,16,1,0.239,"true",1,64
"545",115,3,17,1,0.402,"false",0,30
"546",115,3,18,2,0.222,"false",1,49
"547",115,3,19,2,NA,NA,0,13
"548",115,3,20,1,0.2,"false",0,24
"549",115,3,21,1,0.211,"false",0,22
"550",115,3,22,1,0.213,"true",1,66
"551",115,3,23,2,0.302,"false",1,54
"552",115,3,24,1,0.23,"false",1,56
"553",115,3,25,1,0.269,"false",1,60
"554",115,3,26,1,NA,NA,0,36
"555",115,3,27,1,0.257,"false",0,26
"556",115,3,28,2,0.301,"false",0,1
"557",115,3,29,1,0.236,"true",1,68
"558",115,3,30,1,0.26,"true",1,65
"559",115,3,31,1,0.205,"false",0,27
"560",115,3,32,2,0.27,"false",1,45
"561",115,3,33,2,0.014,"true",1,47
"562",115,3,34,2,0.344,"false",1,50
"563",115,3,35,2,NA,NA,0,5
"564",115,3,36,2,0.274,"false",1,51
"565",115,3,37,2,NA,NA,0,16
"566",115,3,38,2,0.005,"true",1,38
"567",115,3,39,1,0.235,"true",0,29
"568",115,3,40,1,0.237,"false",0,23
"569",115,3,41,2,0.383,"false",1,42
"570",115,3,42,2,0.296,"true",0,4
"571",115,3,43,2,NA,NA,0,18
"572",115,3,44,1,0.181,"true",1,69
"573",115,3,45,1,0.209,"true",0,34
"574",115,3,46,1,0.182,"false",1,62
"575",115,3,47,1,0.24,"false",1,59
"576",115,3,48,2,0.441,"false",0,10
"577",116,2,1,1,1.069,"false",1,62
"578",116,2,2,1,0.551,"true",0,36
"579",116,2,3,1,0.264,"false",0,26
"580",116,2,4,1,1.655,"true",1,65
"581",116,2,5,2,3.052,"true",0,16
"582",116,2,6,2,0.469,"true",1,52
"583",116,2,7,2,0.233,"false",0,3
"584",116,2,8,2,1.309,"false",0,14
"585",116,2,9,2,0.668,"true",1,40
"586",116,2,10,2,0.215,"false",1,48
"587",116,2,11,1,1.631,"true",1,60
"588",116,2,12,1,0.341,"false",0,33
"589",116,2,13,1,0.693,"true",1,69
"590",116,2,14,2,0.664,"false",0,8
"591",116,2,15,1,2.038,"false",0,25
"592",116,2,16,1,0.264,"false",1,70
"593",116,2,17,1,4.713,"false",0,32
"594",116,2,18,2,1.057,"false",1,37
"595",116,2,19,1,1.832,"false",0,22
"596",116,2,20,2,4.814,"true",1,54
"597",116,2,21,2,2.598,"false",0,10
"598",116,2,22,1,1.578,"false",1,63
"599",116,2,23,2,0.764,"true",1,39
"600",116,2,24,2,1.54,"false",0,4
"601",116,2,25,2,2.272,"true",0,6
"602",116,2,26,1,0.591,"true",0,27
"603",116,2,27,2,2.079,"true",1,44
"604",116,2,28,2,0.275,"true",0,7
"605",116,2,29,1,3.086,"true",1,71
"606",116,2,30,2,0.466,"false",1,42
"607",116,2,31,1,0.247,"true",0,31
"608",116,2,32,2,3.132,"false",0,13
"609",116,2,33,1,0.731,"false",1,58
"610",116,2,34,2,2.068,"false",1,51
"611",116,2,35,1,0.531,"true",0,30
"612",116,2,36,2,0.303,"true",1,43
"613",116,2,37,2,2.635,"true",0,15
"614",116,2,38,1,0.533,"false",0,20
"615",116,2,39,2,0.301,"true",1,49
"616",116,2,40,1,3.646,"false",1,59
"617",116,2,41,2,0.906,"true",0,11
"618",116,2,42,2,2.263,"true",1,50
"619",116,2,43,1,4.57,"true",1,57
"620",116,2,44,1,0.238,"false",0,21
"621",116,2,45,1,0.276,"true",0,29
"622",116,2,46,1,1.934,"true",1,67
"623",116,2,47,1,0.408,"false",1,72
"624",116,2,48,2,1.008,"true",0,5
"625",117,3,1,1,0.961,"false",1,30
"626",117,3,2,2,0.758,"false",1,10
"627",117,3,3,1,1.032,"false",0,56
"628",117,3,4,1,0.268,"true",0,67
"629",117,3,5,1,NA,NA,0,60
"630",117,3,6,1,0.538,"true",0,64
"631",117,3,7,2,0.834,"true",1,17
"632",117,3,8,1,0.412,"false",0,62
"633",117,3,9,2,0.414,"false",0,52
"634",117,3,10,2,0.375,"false",1,5
"635",117,3,11,2,0.451,"false",0,46
"636",117,3,12,1,0.755,"false",1,27
"637",117,3,13,1,1.326,"true",1,36
"638",117,3,14,1,0.401,"true",1,35
"639",117,3,15,1,0.29,"false",1,23
"640",117,3,16,2,0.792,"false",0,53
"641",117,3,17,2,0.303,"true",1,18
"642",117,3,18,2,0.908,"true",0,43
"643",117,3,19,2,0.925,"false",1,3
"644",117,3,20,2,0.566,"true",1,7
"645",117,3,21,2,0.948,"false",0,45
"646",117,3,22,1,0.921,"true",0,65
"647",117,3,23,2,1.326,"false",0,38
"648",117,3,24,1,1.197,"false",1,26
"649",117,3,25,2,1.161,"false",0,54
"650",117,3,26,2,1.065,"true",0,41
"651",117,3,27,1,1.174,"false",1,25
"652",117,3,28,2,0.987,"true",1,12
"653",117,3,29,1,0.943,"true",1,24
"654",117,3,30,1,0.674,"true",1,28
"655",117,3,31,2,NA,NA,1,9
"656",117,3,32,1,0.845,"true",0,71
"657",117,3,33,1,1.084,"true",0,61
"658",117,3,34,2,0.858,"true",0,40
"659",117,3,35,1,0.94,"false",0,70
"660",117,3,36,1,1.124,"false",1,32
"661",117,3,37,2,0.318,"true",0,49
"662",117,3,38,2,0.785,"false",1,15
"663",117,3,39,2,0.911,"false",0,42
"664",117,3,40,2,1.091,"false",1,6
"665",117,3,41,2,0.724,"false",1,1
"666",117,3,42,2,0.745,"false",0,50
"667",117,3,43,1,0.502,"true",0,68
"668",117,3,44,1,0.481,"false",0,55
"669",117,3,45,2,1.306,"false",1,11
"670",117,3,46,1,0.766,"false",1,20
"671",117,3,47,1,0.338,"false",0,63
"672",117,3,48,1,0.29,"true",1,29
"673",118,3,1,2,0.266,"true",0,16
"674",118,3,2,2,0.138,"true",0,5
"675",118,3,3,2,0.208,"false",0,9
"676",118,3,4,1,0.186,"true",1,61
"677",118,3,5,1,0.261,"true",1,72
"678",118,3,6,1,NA,NA,0,32
"679",118,3,7,2,0.137,"false",1,37
"680",118,3,8,2,0.173,"true",1,50
"681",118,3,9,2,0.237,"true",1,45
"682",118,3,10,2,NA,NA,0,15
"683",118,3,11,1,NA,NA,1,68
"684",118,3,12,1,0.221,"false",0,20
"685",118,3,13,2,0.149,"false",1,38
"686",118,3,14,2,0.049,"true",0,13
"687",118,3,15,1,NA,NA,1,59
"688",118,3,16,1,0.24,"true",1,64
"689",118,3,17,1,NA,NA,0,30
"690",118,3,18,2,NA,NA,0,7
"691",118,3,19,1,0.162,"false",0,21
"692",118,3,20,2,NA,NA,1,53
"693",118,3,21,2,NA,NA,1,48
"694",118,3,22,1,0.257,"true",1,56
"695",118,3,23,1,0.156,"false",0,26
"696",118,3,24,1,0.219,"true",0,29
"697",118,3,25,2,0.194,"true",0,4
"698",118,3,26,2,0.218,"false",0,14
"699",118,3,27,1,0.252,"true",0,33
"700",118,3,28,2,NA,NA,1,46
"701",118,3,29,2,0.189,"true",0,17
"702",118,3,30,2,0.242,"true",0,3
"703",118,3,31,1,0.207,"false",1,60
"704",118,3,32,1,NA,NA,1,65
"705",118,3,33,2,NA,NA,1,51
"706",118,3,34,2,NA,NA,1,42
"707",118,3,35,1,0.243,"true",1,67
"708",118,3,36,1,0.263,"true",0,23
"709",118,3,37,2,NA,NA,0,11
"710",118,3,38,2,0.244,"false",1,41
"711",118,3,39,1,NA,NA,0,31
"712",118,3,40,1,0.219,"true",1,57
"713",118,3,41,1,NA,NA,1,55
"714",118,3,42,2,NA,NA,0,6
"715",118,3,43,1,0.264,"true",0,25
"716",118,3,44,1,0.113,"true",0,36
"717",118,3,45,2,0.246,"true",1,54
"718",118,3,46,1,0.223,"true",1,71
"719",118,3,47,1,NA,NA,0,22
"720",118,3,48,2,NA,NA,1,40
"721",119,2,1,2,3.611,"true",1,51
"722",119,2,2,2,1.43,"true",1,45
"723",119,2,3,1,2.381,"true",1,61
"724",119,2,4,1,2.607,"true",1,71
"725",119,2,5,1,1.804,"true",1,69
"726",119,2,6,2,1.199,"false",0,8
"727",119,2,7,2,0.789,"false",0,10
"728",119,2,8,1,2.692,"false",0,25
"729",119,2,9,2,0.857,"true",1,42
"730",119,2,10,2,5.993,"true",0,17
"731",119,2,11,2,0.604,"true",1,44
"732",119,2,12,1,2.258,"true",0,33
"733",119,2,13,2,0.576,"true",1,53
"734",119,2,14,2,1.78,"true",0,2
"735",119,2,15,2,3.035,"true",0,13
"736",119,2,16,1,1.974,"false",0,21
"737",119,2,17,1,0.297,"true",1,63
"738",119,2,18,2,4.206,"true",1,50
"739",119,2,19,1,3.132,"true",0,36
"740",119,2,20,2,0.997,"false",0,6
"741",119,2,21,1,0.885,"true",1,60
"742",119,2,22,1,3.018,"true",0,32
"743",119,2,23,1,1.034,"false",1,70
"744",119,2,24,1,4.957,"false",0,24
"745",119,2,25,2,2.031,"true",1,48
"746",119,2,26,2,0.935,"true",1,54
"747",119,2,27,2,4.816,"false",0,15
"748",119,2,28,2,4.398,"true",0,7
"749",119,2,29,1,1.774,"false",0,22
"750",119,2,30,2,1.537,"true",1,46
"751",119,2,31,1,3.758,"false",1,57
"752",119,2,32,2,2.44,"true",1,39
"753",119,2,33,1,9.356,"false",0,20
"754",119,2,34,1,1.339,"true",0,29
"755",119,2,35,2,0.503,"true",1,40
"756",119,2,36,2,1.446,"true",1,43
"757",119,2,37,1,2.239,"true",1,72
"758",119,2,38,1,2.165,"true",0,34
"759",119,2,39,2,1.521,"false",0,12
"760",119,2,40,2,1.831,"false",0,3
"761",119,2,41,1,0.879,"false",0,19
"762",119,2,42,2,2.538,"true",0,4
"763",119,2,43,1,0.558,"true",1,64
"764",119,2,44,1,6.439,"false",1,58
"765",119,2,45,1,0.819,"false",1,55
"766",119,2,46,1,0.34,"true",1,67
"767",119,2,47,2,0.893,"false",0,18
"768",119,2,48,1,2.22,"true",0,35
"769",12,2,1,2,0.549,"true",1,44
"770",12,2,2,1,0.827,"true",1,66
"771",12,2,3,2,1.441,"false",0,9
"772",12,2,4,2,0.596,"true",1,37
"773",12,2,5,2,1.162,"true",0,17
"774",12,2,6,2,0.967,"false",0,1
"775",12,2,7,2,2.704,"false",1,38
"776",12,2,8,1,1.436,"true",0,19
"777",12,2,9,2,0.562,"true",1,52
"778",12,2,10,1,1.067,"false",1,63
"779",12,2,11,1,0.914,"true",0,29
"780",12,2,12,1,0.606,"true",1,59
"781",12,2,13,1,0.646,"true",0,31
"782",12,2,14,1,0.56,"true",1,67
"783",12,2,15,1,1.035,"false",0,21
"784",12,2,16,1,0.356,"true",0,34
"785",12,2,17,2,1.513,"true",0,11
"786",12,2,18,1,0.429,"true",1,56
"787",12,2,19,2,0.875,"true",0,4
"788",12,2,20,2,2.254,"false",1,51
"789",12,2,21,1,0.753,"false",0,22
"790",12,2,22,2,0.506,"true",1,46
"791",12,2,23,2,1.687,"false",0,18
"792",12,2,24,1,0.913,"true",1,71
"793",12,2,25,1,0.949,"false",1,60
"794",12,2,26,2,0.367,"true",1,43
"795",12,2,27,2,1.114,"false",0,10
"796",12,2,28,1,0.245,"false",0,27
"797",12,2,29,2,1.733,"false",0,6
"798",12,2,30,2,0.29,"true",1,48
"799",12,2,31,2,0.393,"true",1,40
"800",12,2,32,1,0.665,"false",1,58
"801",12,2,33,1,1.07,"false",0,33
"802",12,2,34,1,0.983,"true",0,35
"803",12,2,35,1,1.233,"true",1,61
"804",12,2,36,1,0.868,"true",1,70
"805",12,2,37,2,2.505,"false",0,15
"806",12,2,38,1,2.605,"true",0,30
"807",12,2,39,2,1.845,"false",1,42
"808",12,2,40,2,3.541,"true",0,2
"809",12,2,41,2,0.928,"true",0,7
"810",12,2,42,1,1.151,"false",0,25
"811",12,2,43,2,0.278,"true",0,12
"812",12,2,44,1,0.329,"true",1,69
"813",12,2,45,1,2.049,"true",0,26
"814",12,2,46,1,0.965,"true",1,68
"815",12,2,47,2,0.99,"true",1,50
"816",12,2,48,2,1.716,"false",1,49
"817",120,2,1,1,2.547,"true",0,70
"818",120,2,2,1,4.119,"true",1,30
"819",120,2,3,1,2.536,"true",0,72
"820",120,2,4,2,0.39,"true",1,6
"821",120,2,5,1,0.315,"true",1,29
"822",120,2,6,2,1.422,"true",1,15
"823",120,2,7,1,2.533,"false",0,59
"824",120,2,8,2,1.937,"true",0,51
"825",120,2,9,2,3.219,"false",0,38
"826",120,2,10,2,2.728,"false",1,18
"827",120,2,11,2,3.371,"false",1,9
"828",120,2,12,1,0.654,"true",0,69
"829",120,2,13,2,0.883,"true",1,14
"830",120,2,14,1,0.506,"false",1,27
"831",120,2,15,2,0.317,"false",1,8
"832",120,2,16,1,0.514,"true",0,61
"833",120,2,17,2,0.67,"false",0,48
"834",120,2,18,1,0.95,"false",1,24
"835",120,2,19,2,1.407,"true",0,45
"836",120,2,20,1,0.303,"false",1,23
"837",120,2,21,2,1.852,"true",0,50
"838",120,2,22,2,1.967,"true",0,43
"839",120,2,23,1,1.011,"false",1,35
"840",120,2,24,1,1.618,"false",0,60
"841",120,2,25,1,0.292,"false",1,21
"842",120,2,26,1,1.25,"false",1,22
"843",120,2,27,2,1.383,"true",1,13
"844",120,2,28,1,0.321,"true",1,34
"845",120,2,29,2,0.544,"false",0,53
"846",120,2,30,2,5.287,"true",1,17
"847",120,2,31,2,1.552,"true",1,2
"848",120,2,32,1,0.27,"false",0,67
"849",120,2,33,1,0.307,"true",0,65
"850",120,2,34,1,0.928,"false",0,68
"851",120,2,35,2,2.144,"true",0,42
"852",120,2,36,1,0.883,"false",0,63
"853",120,2,37,1,0.791,"true",1,32
"854",120,2,38,1,0.448,"true",1,28
"855",120,2,39,1,1.36,"false",0,56
"856",120,2,40,2,0.681,"false",0,37
"857",120,2,41,1,4.023,"false",1,19
"858",120,2,42,1,0.345,"false",0,57
"859",120,2,43,2,0.529,"true",1,3
"860",120,2,44,2,1.681,"false",0,40
"861",120,2,45,2,0.996,"true",0,54
"862",120,2,46,2,0.888,"false",1,7
"863",120,2,47,2,0.194,"false",0,46
"864",120,2,48,2,0.904,"true",1,12
"865",121,2,1,1,0.298,"false",1,64
"866",121,2,2,1,0.391,"true",1,60
"867",121,2,3,1,0.464,"false",0,20
"868",121,2,4,2,0.684,"true",1,50
"869",121,2,5,1,0.258,"false",0,27
"870",121,2,6,1,0.308,"true",0,36
"871",121,2,7,2,0.308,"false",0,1
"872",121,2,8,2,0.316,"false",0,9
"873",121,2,9,2,0.294,"false",0,14
"874",121,2,10,1,2.964,"true",1,71
"875",121,2,11,2,0.721,"true",1,42
"876",121,2,12,2,0.446,"false",0,11
"877",121,2,13,1,0.449,"true",1,70
"878",121,2,14,2,0.302,"true",1,40
"879",121,2,15,1,0.275,"false",1,61
"880",121,2,16,2,1.02,"true",1,54
"881",121,2,17,2,2.76,"true",1,43
"882",121,2,18,1,0.273,"false",0,35
"883",121,2,19,2,0.327,"false",0,13
"884",121,2,20,1,0.378,"false",0,23
"885",121,2,21,2,0.319,"true",1,48
"886",121,2,22,1,0.3,"false",0,33
"887",121,2,23,2,0.189,"false",0,3
"888",121,2,24,1,0.357,"true",1,62
"889",121,2,25,2,0.509,"false",0,10
"890",121,2,26,1,1.681,"true",1,58
"891",121,2,27,2,1.486,"true",1,44
"892",121,2,28,1,0.236,"false",1,69
"893",121,2,29,1,0.26,"false",0,34
"894",121,2,30,2,1.09,"true",1,52
"895",121,2,31,2,0.426,"false",0,17
"896",121,2,32,1,0.94,"false",0,30
"897",121,2,33,1,4.835,"true",1,65
"898",121,2,34,1,0.716,"false",1,68
"899",121,2,35,2,2.306,"true",1,38
"900",121,2,36,2,0.663,"false",1,51
"901",121,2,37,2,1.103,"true",1,49
"902",121,2,38,1,0.815,"false",0,24
"903",121,2,39,1,1.119,"false",0,19
"904",121,2,40,2,0.526,"false",1,41
"905",121,2,41,1,0.341,"false",0,25
"906",121,2,42,2,0.239,"false",0,7
"907",121,2,43,1,0.048,"false",0,32
"908",121,2,44,2,1.277,"false",0,8
"909",121,2,45,2,0.265,"false",0,16
"910",121,2,46,1,0.291,"false",1,63
"911",121,2,47,1,0.527,"true",1,59
"912",121,2,48,2,0.652,"false",0,5
"913",122,3,1,1,0.241,"false",1,19
"914",122,3,2,1,0.285,"false",0,57
"915",122,3,3,1,0.342,"true",1,29
"916",122,3,4,1,NA,NA,0,71
"917",122,3,5,2,0.357,"false",0,41
"918",122,3,6,1,0.493,"false",1,25
"919",122,3,7,1,0.548,"true",1,28
"920",122,3,8,2,0.368,"false",0,38
"921",122,3,9,2,0.336,"false",1,8
"922",122,3,10,2,NA,NA,1,11
"923",122,3,11,1,0.532,"false",1,36
"924",122,3,12,2,0.406,"true",0,53
"925",122,3,13,2,0.278,"false",1,16
"926",122,3,14,2,0.497,"true",0,51
"927",122,3,15,2,NA,NA,1,17
"928",122,3,16,1,0.252,"false",0,56
"929",122,3,17,1,0.293,"false",1,27
"930",122,3,18,2,0.497,"true",0,43
"931",122,3,19,2,0.384,"false",1,6
"932",122,3,20,2,NA,NA,1,3
"933",122,3,21,1,0.325,"true",0,69
"934",122,3,22,1,0.468,"true",0,67
"935",122,3,23,2,0.325,"false",0,49
"936",122,3,24,1,0.34,"false",0,62
"937",122,3,25,2,0.316,"false",1,5
"938",122,3,26,1,0.622,"false",1,22
"939",122,3,27,2,NA,NA,0,45
"940",122,3,28,1,0.609,"true",0,68
"941",122,3,29,1,0.576,"false",0,58
"942",122,3,30,2,0.384,"true",0,47
"943",122,3,31,1,NA,NA,0,61
"944",122,3,32,1,NA,NA,0,70
"945",122,3,33,2,0.357,"true",1,7
"946",122,3,34,2,0.369,"true",0,46
"947",122,3,35,1,NA,NA,1,31
"948",122,3,36,1,NA,NA,1,30
"949",122,3,37,2,0.254,"true",0,52
"950",122,3,38,2,0.274,"false",0,39
"951",122,3,39,1,NA,NA,1,24
"952",122,3,40,2,0.391,"true",1,12
"953",122,3,41,1,NA,NA,0,59
"954",122,3,42,2,NA,NA,0,40
"955",122,3,43,1,0.3,"true",0,72
"956",122,3,44,2,0.478,"true",1,4
"957",122,3,45,2,NA,NA,1,15
"958",122,3,46,2,0.3,"false",1,13
"959",122,3,47,1,0.428,"true",1,35
"960",122,3,48,1,0.473,"false",1,21
"961",123,2,1,1,2.002,"false",1,36
"962",123,2,2,1,2.273,"true",0,72
"963",123,2,3,2,2.24,"true",1,2
"964",123,2,4,2,1.027,"false",0,37
"965",123,2,5,2,4.594,"false",0,44
"966",123,2,6,2,2.564,"false",0,46
"967",123,2,7,2,7.41,"true",1,13
"968",123,2,8,1,3.137,"false",1,21
"969",123,2,9,2,0.82,"true",0,53
"970",123,2,10,1,3.962,"false",0,59
"971",123,2,11,1,4.898,"false",0,56
"972",123,2,12,1,0.363,"true",1,24
"973",123,2,13,1,1.596,"false",1,32
"974",123,2,14,2,3.109,"false",1,11
"975",123,2,15,2,3.074,"true",1,3
"976",123,2,16,2,11.262,"false",1,1
"977",123,2,17,2,0.3,"false",0,39
"978",123,2,18,1,0.294,"true",1,29
"979",123,2,19,1,3.669,"false",0,64
"980",123,2,20,2,2.407,"true",0,47
"981",123,2,21,1,1.191,"true",0,66
"982",123,2,22,2,1.667,"false",1,17
"983",123,2,23,1,1.014,"false",0,58
"984",123,2,24,1,0.632,"true",1,27
"985",123,2,25,2,0.282,"false",0,49
"986",123,2,26,2,1.432,"false",1,6
"987",123,2,27,2,1.061,"true",1,8
"988",123,2,28,1,2.924,"false",1,20
"989",123,2,29,2,1.278,"false",0,38
"990",123,2,30,1,0.233,"false",0,67
"991",123,2,31,1,1.198,"true",1,31
"992",123,2,32,1,1.652,"false",0,71
"993",123,2,33,2,0.386,"false",0,52
"994",123,2,34,1,0.42,"true",1,23
"995",123,2,35,1,2.139,"false",0,61
"996",123,2,36,1,1.858,"true",0,70
"997",123,2,37,1,0.344,"true",1,28
"998",123,2,38,2,0.874,"true",1,7
"999",123,2,39,1,0.288,"false",1,33
"1000",123,2,40,2,1.9,"true",1,14
"1001",123,2,41,1,1.104,"false",0,63
"1002",123,2,42,2,4.076,"true",0,41
"1003",123,2,43,1,0.296,"false",1,26
"1004",123,2,44,2,0.443,"false",0,45
"1005",123,2,45,2,1.243,"true",1,12
"1006",123,2,46,2,1.201,"true",1,10
"1007",123,2,47,2,0.532,"true",0,48
"1008",123,2,48,1,0.742,"false",0,57
"1009",124,2,1,1,0.512,"false",0,33
"1010",124,2,2,2,0.314,"true",0,17
"1011",124,2,3,1,0.303,"true",1,59
"1012",124,2,4,2,0.251,"true",0,4
"1013",124,2,5,2,0.978,"true",1,52
"1014",124,2,6,1,0.273,"false",0,20
"1015",124,2,7,2,0.432,"true",1,42
"1016",124,2,8,2,0.542,"false",0,15
"1017",124,2,9,1,0.455,"false",0,27
"1018",124,2,10,1,0.341,"true",0,28
"1019",124,2,11,2,0.232,"true",1,43
"1020",124,2,12,1,0.718,"false",0,35
"1021",124,2,13,1,0.256,"false",0,26
"1022",124,2,14,1,0.437,"true",1,71
"1023",124,2,15,2,0.486,"false",1,50
"1024",124,2,16,2,0.476,"false",0,1
"1025",124,2,17,2,0.239,"true",1,48
"1026",124,2,18,2,0.24,"false",1,40
"1027",124,2,19,1,0.237,"false",1,70
"1028",124,2,20,2,0.294,"true",0,6
"1029",124,2,21,2,0.3,"false",0,14
"1030",124,2,22,1,0.258,"true",1,60
"1031",124,2,23,1,0.189,"true",1,61
"1032",124,2,24,1,0.308,"false",1,64
"1033",124,2,25,2,0.427,"true",1,54
"1034",124,2,26,2,0.275,"true",1,44
"1035",124,2,27,1,0.216,"true",1,69
"1036",124,2,28,2,0.516,"false",1,47
"1037",124,2,29,1,0.279,"true",0,31
"1038",124,2,30,1,0.215,"false",1,56
"1039",124,2,31,1,0.262,"true",1,65
"1040",124,2,32,2,0.215,"false",0,5
"1041",124,2,33,1,0.258,"true",0,30
"1042",124,2,34,2,0.616,"true",0,13
"1043",124,2,35,2,0.362,"false",0,10
"1044",124,2,36,1,1.621,"false",0,25
"1045",124,2,37,1,0.439,"false",0,24
"1046",124,2,38,2,0.21,"true",0,9
"1047",124,2,39,2,0.272,"true",1,38
"1048",124,2,40,2,0.199,"true",1,37
"1049",124,2,41,1,0.539,"true",1,72
"1050",124,2,42,1,0.317,"false",1,57
"1051",124,2,43,1,0.969,"false",0,23
"1052",124,2,44,1,0.659,"true",0,32
"1053",124,2,45,2,0.19,"false",0,8
"1054",124,2,46,1,0.414,"true",1,58
"1055",124,2,47,2,0.267,"true",1,53
"1056",124,2,48,2,0.029,"true",0,11
"1057",125,3,1,2,0.431,"false",0,4
"1058",125,3,2,1,0.998,"false",0,19
"1059",125,3,3,2,0.747,"false",0,8
"1060",125,3,4,2,0.973,"true",1,53
"1061",125,3,5,2,0.941,"false",1,52
"1062",125,3,6,1,1.275,"true",0,29
"1063",125,3,7,1,0.273,"false",1,60
"1064",125,3,8,1,1.514,"true",0,34
"1065",125,3,9,2,0.729,"false",1,42
"1066",125,3,10,1,0.268,"true",1,65
"1067",125,3,11,1,0.955,"false",0,20
"1068",125,3,12,2,0.491,"false",0,11
"1069",125,3,13,1,0.311,"false",0,33
"1070",125,3,14,2,0.542,"false",0,14
"1071",125,3,15,1,0.602,"false",1,67
"1072",125,3,16,2,0.989,"false",1,39
"1073",125,3,17,1,0.99,"false",1,55
"1074",125,3,18,2,0.359,"false",1,40
"1075",125,3,19,1,0.446,"false",1,70
"1076",125,3,20,2,1.353,"false",0,13
"1077",125,3,21,1,1.567,"false",1,59
"1078",125,3,22,2,0.814,"false",1,46
"1079",125,3,23,1,0.894,"false",0,23
"1080",125,3,24,2,0.843,"false",0,5
"1081",125,3,25,1,0.232,"true",1,69
"1082",125,3,26,1,0.999,"false",1,61
"1083",125,3,27,1,0.464,"false",0,27
"1084",125,3,28,2,0.38,"true",1,47
"1085",125,3,29,2,0.586,"true",1,48
"1086",125,3,30,2,0.286,"false",0,12
"1087",125,3,31,1,0.287,"false",1,62
"1088",125,3,32,1,0.266,"false",0,25
"1089",125,3,33,2,NA,NA,0,7
"1090",125,3,34,1,0.379,"false",1,63
"1091",125,3,35,2,0.217,"true",1,43
"1092",125,3,36,2,0.303,"false",1,37
"1093",125,3,37,2,0.342,"false",0,6
"1094",125,3,38,1,0.321,"true",0,32
"1095",125,3,39,1,0.646,"false",0,36
"1096",125,3,40,1,0.279,"false",0,26
"1097",125,3,41,2,0.7,"false",1,51
"1098",125,3,42,2,1.362,"false",1,38
"1099",125,3,43,2,1.011,"false",0,15
"1100",125,3,44,1,0.313,"true",1,72
"1101",125,3,45,1,1.722,"true",1,66
"1102",125,3,46,2,1.654,"true",0,16
"1103",125,3,47,2,0.447,"true",0,2
"1104",125,3,48,1,0.644,"false",0,28
"1105",126,2,1,2,5.303,"false",0,7
"1106",126,2,2,2,5.227,"true",1,47
"1107",126,2,3,1,0.427,"false",0,27
"1108",126,2,4,1,1.5,"true",0,34
"1109",126,2,5,2,5.262,"false",0,11
"1110",126,2,6,2,5.584,"true",1,42
"1111",126,2,7,2,5.846,"false",0,1
"1112",126,2,8,2,3.509,"false",0,6
"1113",126,2,9,1,2.419,"false",0,33
"1114",126,2,10,1,8.818,"true",0,24
"1115",126,2,11,1,0.758,"false",0,19
"1116",126,2,12,2,6.578,"true",0,18
"1117",126,2,13,2,1.714,"false",1,41
"1118",126,2,14,1,15.269,"true",1,59
"1119",126,2,15,1,0.512,"false",1,70
"1120",126,2,16,2,0.491,"true",1,48
"1121",126,2,17,1,0.356,"false",1,62
"1122",126,2,18,2,2.278,"true",1,45
"1123",126,2,19,1,10.53,"false",1,68
"1124",126,2,20,2,1.319,"true",1,54
"1125",126,2,21,2,6.563,"false",0,14
"1126",126,2,22,1,1.525,"true",1,67
"1127",126,2,23,1,4.819,"true",0,29
"1128",126,2,24,1,11.155,"false",1,60
"1129",126,2,25,1,2.899,"false",0,21
"1130",126,2,26,1,1.774,"false",1,57
"1131",126,2,27,2,4.852,"true",1,44
"1132",126,2,28,2,5.341,"false",1,49
"1133",126,2,29,2,4.948,"false",0,12
"1134",126,2,30,1,3.817,"true",0,32
"1135",126,2,31,2,3.714,"true",1,39
"1136",126,2,32,2,5.616,"true",0,13
"1137",126,2,33,1,0.608,"true",1,64
"1138",126,2,34,2,2.817,"false",0,3
"1139",126,2,35,1,1.853,"false",1,58
"1140",126,2,36,1,10.112,"false",0,31
"1141",126,2,37,2,7.666,"false",1,38
"1142",126,2,38,2,1.671,"false",0,15
"1143",126,2,39,2,2.143,"true",1,51
"1144",126,2,40,1,0.929,"true",0,28
"1145",126,2,41,2,1.627,"true",0,4
"1146",126,2,42,2,2.192,"true",1,53
"1147",126,2,43,1,1.514,"true",1,56
"1148",126,2,44,1,5.353,"true",1,66
"1149",126,2,45,1,7.247,"false",0,20
"1150",126,2,46,2,2.721,"false",0,8
"1151",126,2,47,1,6.257,"true",1,72
"1152",126,2,48,1,1.318,"false",0,23
"1153",129,3,1,2,0.275,"true",0,51
"1154",129,3,2,1,0.274,"true",0,68
"1155",129,3,3,2,0.241,"false",0,37
"1156",129,3,4,2,NA,NA,1,9
"1157",129,3,5,2,0.372,"true",1,15
"1158",129,3,6,1,0.466,"false",1,22
"1159",129,3,7,1,0.221,"true",1,35
"1160",129,3,8,1,0.315,"false",0,63
"1161",129,3,9,1,0.237,"true",0,66
"1162",129,3,10,2,0.277,"true",1,16
"1163",129,3,11,2,0.219,"true",1,6
"1164",129,3,12,1,0.278,"false",1,26
"1165",129,3,13,2,0.211,"true",1,3
"1166",129,3,14,2,0.327,"false",0,42
"1167",129,3,15,1,0.31,"true",0,69
"1168",129,3,16,1,0.244,"true",1,32
"1169",129,3,17,2,0.247,"false",0,46
"1170",129,3,18,1,0.385,"true",1,27
"1171",129,3,19,2,0.323,"true",0,41
"1172",129,3,20,1,0.392,"true",0,59
"1173",129,3,21,1,0.234,"true",1,29
"1174",129,3,22,1,0.217,"false",0,55
"1175",129,3,23,2,0.371,"false",0,50
"1176",129,3,24,2,0.469,"true",1,10
"1177",129,3,25,2,0.782,"false",0,54
"1178",129,3,26,1,0.616,"true",1,28
"1179",129,3,27,1,0.649,"false",1,20
"1180",129,3,28,2,0.338,"true",1,17
"1181",129,3,29,2,0.315,"false",1,7
"1182",129,3,30,1,0.289,"true",0,65
"1183",129,3,31,2,NA,NA,1,5
"1184",129,3,32,1,0.514,"false",0,58
"1185",129,3,33,2,0.276,"true",0,48
"1186",129,3,34,1,0.538,"true",1,25
"1187",129,3,35,2,0.309,"true",0,45
"1188",129,3,36,2,0.31,"false",0,38
"1189",129,3,37,1,0.589,"false",0,72
"1190",129,3,38,1,0.932,"true",0,56
"1191",129,3,39,2,0.714,"false",0,49
"1192",129,3,40,1,0.248,"true",1,30
"1193",129,3,41,1,0.231,"false",0,62
"1194",129,3,42,1,0.195,"true",1,33
"1195",129,3,43,2,0.338,"false",0,39
"1196",129,3,44,1,0.213,"false",1,21
"1197",129,3,45,2,0.584,"false",1,1
"1198",129,3,46,2,0.277,"true",1,14
"1199",129,3,47,2,0.273,"false",1,12
"1200",129,3,48,1,0.253,"true",0,64
"1201",131,3,1,2,NA,NA,0,43
"1202",131,3,2,2,0.049,"false",1,3
"1203",131,3,3,1,0.182,"false",1,20
"1204",131,3,4,2,0.272,"false",1,2
"1205",131,3,5,1,0.254,"true",0,68
"1206",131,3,6,1,0.039,"true",1,24
"1207",131,3,7,2,0.161,"false",0,40
"1208",131,3,8,2,0.324,"false",0,37
"1209",131,3,9,2,0.253,"false",0,49
"1210",131,3,10,2,0.24,"false",1,18
"1211",131,3,11,2,0.527,"false",0,54
"1212",131,3,12,1,0.351,"true",0,67
"1213",131,3,13,1,0.414,"false",1,25
"1214",131,3,14,1,0.188,"true",1,29
"1215",131,3,15,2,0.258,"true",0,47
"1216",131,3,16,1,NA,NA,0,62
"1217",131,3,17,1,0.437,"true",1,30
"1218",131,3,18,1,0.295,"true",0,71
"1219",131,3,19,1,0.302,"false",0,59
"1220",131,3,20,2,0.528,"false",1,1
"1221",131,3,21,1,0.241,"false",1,36
"1222",131,3,22,2,0.297,"false",1,10
"1223",131,3,23,2,0.323,"false",1,17
"1224",131,3,24,1,0.244,"true",0,63
"1225",131,3,25,2,0.326,"false",0,42
"1226",131,3,26,1,0.279,"false",0,66
"1227",131,3,27,1,0.322,"false",1,22
"1228",131,3,28,2,0.455,"true",0,53
"1229",131,3,29,2,0.294,"false",0,52
"1230",131,3,30,2,0.268,"true",0,41
"1231",131,3,31,2,0.423,"true",1,7
"1232",131,3,32,1,0.384,"true",1,28
"1233",131,3,33,1,0.281,"false",0,55
"1234",131,3,34,1,0.267,"false",0,58
"1235",131,3,35,2,0.289,"true",1,9
"1236",131,3,36,2,0.251,"false",1,11
"1237",131,3,37,2,0.226,"false",0,46
"1238",131,3,38,2,0.324,"true",1,6
"1239",131,3,39,2,0.212,"false",1,12
"1240",131,3,40,1,NA,NA,0,60
"1241",131,3,41,1,NA,NA,0,72
"1242",131,3,42,1,0.336,"false",1,34
"1243",131,3,43,1,0.205,"true",1,19
"1244",131,3,44,2,0.294,"false",1,13
"1245",131,3,45,1,0.259,"false",1,21
"1246",131,3,46,1,0.183,"true",0,69
"1247",131,3,47,2,0.503,"false",0,39
"1248",131,3,48,1,0.246,"true",1,33
"1249",133,3,1,2,0.477,"true",0,8
"1250",133,3,2,2,0.171,"false",1,48
"1251",133,3,3,1,0.149,"false",0,22
"1252",133,3,4,2,NA,NA,0,5
"1253",133,3,5,2,0.238,"true",1,45
"1254",133,3,6,2,0.152,"false",1,49
"1255",133,3,7,1,0.139,"true",1,68
"1256",133,3,8,1,0.183,"true",1,72
"1257",133,3,9,1,0.049,"true",1,70
"1258",133,3,10,1,0.206,"false",0,26
"1259",133,3,11,2,0.201,"true",1,53
"1260",133,3,12,1,0.189,"true",0,30
"1261",133,3,13,1,0.133,"true",0,31
"1262",133,3,14,1,0.19,"false",1,60
"1263",133,3,15,1,0.321,"false",0,25
"1264",133,3,16,2,0.221,"true",0,14
"1265",133,3,17,2,0.155,"false",1,43
"1266",133,3,18,2,0.213,"false",1,42
"1267",133,3,19,1,0.168,"true",1,62
"1268",133,3,20,2,0.213,"true",0,9
"1269",133,3,21,1,0.253,"false",1,58
"1270",133,3,22,1,0.289,"true",0,29
"1271",133,3,23,2,0.24,"false",0,17
"1272",133,3,24,2,0.32,"false",0,18
"1273",133,3,25,2,0.188,"true",1,41
"1274",133,3,26,2,0.196,"false",0,11
"1275",133,3,27,1,0.165,"false",1,57
"1276",133,3,28,2,0.196,"false",0,10
"1277",133,3,29,2,0.312,"false",0,1
"1278",133,3,30,1,0.387,"false",0,34
"1279",133,3,31,1,0.277,"false",0,23
"1280",133,3,32,2,0.231,"true",0,12
"1281",133,3,33,1,0.154,"false",1,63
"1282",133,3,34,1,0.361,"false",1,59
"1283",133,3,35,2,0.224,"true",1,50
"1284",133,3,36,2,0.187,"true",1,40
"1285",133,3,37,1,0.173,"true",0,28
"1286",133,3,38,1,0.073,"true",0,35
"1287",133,3,39,1,0.257,"false",1,71
"1288",133,3,40,1,0.205,"true",1,67
"1289",133,3,41,2,0.204,"true",0,4
"1290",133,3,42,2,0.2,"true",1,52
"1291",133,3,43,2,0.191,"false",1,44
"1292",133,3,44,1,0.195,"true",0,27
"1293",133,3,45,1,0.183,"true",1,69
"1294",133,3,46,2,0.202,"true",0,2
"1295",133,3,47,1,0.029,"false",0,20
"1296",133,3,48,2,0.16,"false",1,54
"1297",134,3,1,1,0.131,"true",1,24
"1298",134,3,2,1,0.169,"false",1,36
"1299",134,3,3,2,NA,NA,1,10
"1300",134,3,4,1,0.218,"true",0,57
"1301",134,3,5,1,NA,NA,1,25
"1302",134,3,6,1,0.027,"false",1,26
"1303",134,3,7,1,0.126,"true",1,34
"1304",134,3,8,2,0.025,"false",0,38
"1305",134,3,9,1,NA,NA,1,31
"1306",134,3,10,1,0.216,"false",0,55
"1307",134,3,11,1,0.16,"true",0,68
"1308",134,3,12,1,0.134,"true",0,69
"1309",134,3,13,1,0.133,"true",0,63
"1310",134,3,14,2,0.025,"true",0,46
"1311",134,3,15,2,0.171,"true",1,7
"1312",134,3,16,2,0.248,"true",1,18
"1313",134,3,17,2,0.128,"true",1,17
"1314",134,3,18,1,0.162,"false",0,65
"1315",134,3,19,2,0.193,"true",0,43
"1316",134,3,20,2,NA,NA,0,42
"1317",134,3,21,2,0.087,"false",0,48
"1318",134,3,22,2,0.17,"true",1,1
"1319",134,3,23,2,0.131,"true",1,4
"1320",134,3,24,2,0.121,"true",0,52
"1321",134,3,25,2,NA,NA,0,37
"1322",134,3,26,2,0.083,"true",1,12
"1323",134,3,27,2,0.012,"true",1,9
"1324",134,3,28,2,NA,NA,0,40
"1325",134,3,29,1,NA,NA,1,30
"1326",134,3,30,1,0.069,"true",1,19
"1327",134,3,31,2,0.127,"true",0,54
"1328",134,3,32,2,0.087,"true",1,16
"1329",134,3,33,2,0.062,"false",1,8
"1330",134,3,34,1,0.098,"true",1,29
"1331",134,3,35,1,NA,NA,1,27
"1332",134,3,36,1,0.049,"true",0,72
"1333",134,3,37,1,0.149,"true",0,70
"1334",134,3,38,1,0.035,"true",1,20
"1335",134,3,39,1,0.105,"true",0,59
"1336",134,3,40,2,0.018,"true",0,39
"1337",134,3,41,1,NA,NA,0,60
"1338",134,3,42,1,0.047,"true",0,66
"1339",134,3,43,1,0.069,"true",0,58
"1340",134,3,44,1,NA,NA,1,32
"1341",134,3,45,2,NA,NA,0,50
"1342",134,3,46,2,0.099,"false",1,5
"1343",134,3,47,2,0.025,"true",0,53
"1344",134,3,48,2,0.109,"true",1,11
"1345",136,2,1,1,9.045,"false",1,36
"1346",136,2,2,2,2.364,"true",0,43
"1347",136,2,3,1,0.962,"true",1,19
"1348",136,2,4,1,0.822,"false",1,20
"1349",136,2,5,1,0.332,"true",0,67
"1350",136,2,6,2,0.234,"true",0,39
"1351",136,2,7,2,0.253,"true",0,46
"1352",136,2,8,2,0.232,"true",1,13
"1353",136,2,9,2,1.237,"false",0,47
"1354",136,2,10,1,1.946,"false",0,63
"1355",136,2,11,1,0.236,"false",1,34
"1356",136,2,12,2,0.536,"true",1,6
"1357",136,2,13,2,0.931,"true",1,18
"1358",136,2,14,1,2.921,"false",0,55
"1359",136,2,15,1,0.637,"false",0,62
"1360",136,2,16,2,1.023,"true",1,17
"1361",136,2,17,2,3.002,"false",0,45
"1362",136,2,18,2,0.282,"true",0,50
"1363",136,2,19,1,0.344,"true",0,72
"1364",136,2,20,2,0.214,"false",1,8
"1365",136,2,21,1,0.138,"true",1,29
"1366",136,2,22,1,0.094,"true",1,24
"1367",136,2,23,1,9.873,"false",0,70
"1368",136,2,24,2,0.765,"true",1,3
"1369",136,2,25,2,0.924,"true",0,51
"1370",136,2,26,2,4.861,"false",1,1
"1371",136,2,27,1,6.574,"false",1,31
"1372",136,2,28,2,1.063,"true",0,38
"1373",136,2,29,2,0.506,"true",0,40
"1374",136,2,30,2,1.139,"true",1,4
"1375",136,2,31,1,1.563,"true",0,59
"1376",136,2,32,2,0.508,"true",1,2
"1377",136,2,33,1,0.836,"true",1,35
"1378",136,2,34,1,0.822,"true",0,64
"1379",136,2,35,2,1.566,"true",0,42
"1380",136,2,36,1,1.626,"true",0,65
"1381",136,2,37,2,1.202,"true",1,10
"1382",136,2,38,1,3.32,"true",1,21
"1383",136,2,39,1,0.942,"false",0,61
"1384",136,2,40,1,0.71,"false",0,57
"1385",136,2,41,1,0.459,"true",1,28
"1386",136,2,42,2,0.494,"true",1,14
"1387",136,2,43,1,0.657,"false",1,22
"1388",136,2,44,1,0.646,"false",1,25
"1389",136,2,45,2,0.245,"true",0,53
"1390",136,2,46,2,0.347,"true",0,49
"1391",136,2,47,2,0.273,"true",1,11
"1392",136,2,48,1,2.41,"true",0,69
"1393",138,3,1,2,0.241,"false",1,45
"1394",138,3,2,2,0.229,"false",0,14
"1395",138,3,3,2,0.282,"false",1,41
"1396",138,3,4,1,0.26,"true",1,66
"1397",138,3,5,1,0.224,"false",1,57
"1398",138,3,6,1,0.226,"false",1,67
"1399",138,3,7,1,0.216,"true",0,35
"1400",138,3,8,1,0.251,"false",1,63
"1401",138,3,9,2,0.378,"true",0,1
"1402",138,3,10,2,0.513,"false",1,47
"1403",138,3,11,2,0.29,"true",0,8
"1404",138,3,12,1,0.218,"false",0,20
"1405",138,3,13,2,0.232,"true",0,2
"1406",138,3,14,2,0.39,"false",0,16
"1407",138,3,15,2,0.22,"false",1,49
"1408",138,3,16,1,0.269,"true",1,68
"1409",138,3,17,1,0.242,"true",0,33
"1410",138,3,18,2,0.229,"false",1,46
"1411",138,3,19,1,0.248,"false",0,26
"1412",138,3,20,1,0.248,"false",1,60
"1413",138,3,21,1,0.467,"false",0,24
"1414",138,3,22,1,0.405,"true",0,30
"1415",138,3,23,2,0.293,"false",1,37
"1416",138,3,24,2,0.329,"false",0,10
"1417",138,3,25,2,0.225,"true",0,4
"1418",138,3,26,1,0.219,"true",0,32
"1419",138,3,27,1,0.205,"false",0,27
"1420",138,3,28,2,0.264,"false",1,39
"1421",138,3,29,1,0.367,"false",0,21
"1422",138,3,30,2,0.235,"true",1,53
"1423",138,3,31,2,0.255,"false",0,11
"1424",138,3,32,1,0.223,"true",0,34
"1425",138,3,33,1,0.404,"false",0,36
"1426",138,3,34,2,0.323,"false",1,42
"1427",138,3,35,2,0.292,"true",1,50
"1428",138,3,36,2,0.33,"true",0,7
"1429",138,3,37,2,0.28,"false",0,5
"1430",138,3,38,2,0.359,"true",0,18
"1431",138,3,39,2,0.351,"false",0,15
"1432",138,3,40,1,0.222,"false",1,62
"1433",138,3,41,1,NA,NA,1,72
"1434",138,3,42,1,0.138,"false",0,22
"1435",138,3,43,2,0.224,"true",1,40
"1436",138,3,44,1,0.335,"true",1,65
"1437",138,3,45,1,0.27,"true",1,64
"1438",138,3,46,1,0.393,"true",1,58
"1439",138,3,47,1,0.307,"false",1,55
"1440",138,3,48,2,0.307,"true",1,51
"1441",14,2,1,2,0.765,"true",1,52
"1442",14,2,2,2,2.109,"true",0,7
"1443",14,2,3,1,0.494,"true",1,63
"1444",14,2,4,2,1.813,"false",1,46
"1445",14,2,5,1,0.731,"false",0,25
"1446",14,2,6,1,0.558,"true",1,65
"1447",14,2,7,1,0.375,"true",1,72
"1448",14,2,8,2,1.948,"false",1,54
"1449",14,2,9,2,0.859,"true",0,10
"1450",14,2,10,1,3.535,"true",1,58
"1451",14,2,11,1,0.548,"true",0,31
"1452",14,2,12,2,0.937,"false",0,18
"1453",14,2,13,2,0.313,"true",0,2
"1454",14,2,14,2,5.659,"false",0,11
"1455",14,2,15,2,2.227,"true",1,41
"1456",14,2,16,1,2.818,"false",0,20
"1457",14,2,17,1,1.079,"true",0,21
"1458",14,2,18,1,6.34,"false",0,32
"1459",14,2,19,1,1.75,"true",1,57
"1460",14,2,20,2,3.504,"false",1,38
"1461",14,2,21,1,0.367,"true",1,67
"1462",14,2,22,2,0.809,"true",0,6
"1463",14,2,23,1,1.236,"true",0,36
"1464",14,2,24,2,0.406,"true",1,39
"1465",14,2,25,1,1.861,"false",0,22
"1466",14,2,26,1,2.173,"false",1,64
"1467",14,2,27,2,5.222,"false",1,37
"1468",14,2,28,2,1.243,"true",0,17
"1469",14,2,29,1,2.688,"true",1,71
"1470",14,2,30,1,0.323,"true",1,61
"1471",14,2,31,2,0.667,"true",0,12
"1472",14,2,32,1,1.421,"false",0,26
"1473",14,2,33,1,1.599,"true",0,30
"1474",14,2,34,1,3.026,"false",0,34
"1475",14,2,35,1,5.16,"false",1,55
"1476",14,2,36,1,0.335,"true",1,68
"1477",14,2,37,2,1.093,"true",0,9
"1478",14,2,38,2,1.424,"true",0,4
"1479",14,2,39,2,1.374,"true",1,45
"1480",14,2,40,1,1.817,"true",0,27
"1481",14,2,41,2,2.321,"false",0,5
"1482",14,2,42,2,0.451,"true",1,49
"1483",14,2,43,1,3.886,"false",1,56
"1484",14,2,44,1,1.637,"true",0,35
"1485",14,2,45,2,3.01,"true",0,16
"1486",14,2,46,2,0.443,"false",1,48
"1487",14,2,47,2,1.384,"true",1,51
"1488",14,2,48,2,1.773,"false",1,42
"1489",140,2,1,2,0.468,"false",1,46
"1490",140,2,2,1,0.727,"false",1,65
"1491",140,2,3,2,1.5,"true",1,39
"1492",140,2,4,1,0.479,"false",1,55
"1493",140,2,5,1,0.973,"true",1,66
"1494",140,2,6,1,1.845,"false",0,28
"1495",140,2,7,1,2.317,"false",1,58
"1496",140,2,8,2,6.706,"false",1,40
"1497",140,2,9,2,6.518,"true",1,50
"1498",140,2,10,1,2.58,"true",0,33
"1499",140,2,11,1,0.769,"true",1,69
"1500",140,2,12,2,2.874,"true",0,4
"1501",140,2,13,1,2.826,"false",0,22
"1502",140,2,14,1,1.525,"false",0,23
"1503",140,2,15,2,1.559,"false",1,52
"1504",140,2,16,2,2.248,"true",0,1
"1505",140,2,17,1,2.175,"true",0,24
"1506",140,2,18,1,5.27,"false",1,57
"1507",140,2,19,2,2.079,"false",0,10
"1508",140,2,20,2,2.389,"true",1,37
"1509",140,2,21,1,3.083,"true",0,36
"1510",140,2,22,2,2.945,"false",0,11
"1511",140,2,23,2,3.342,"true",0,5
"1512",140,2,24,2,4.24,"true",0,16
"1513",140,2,25,2,8.942,"false",1,51
"1514",140,2,26,1,2.253,"true",1,71
"1515",140,2,27,1,1.059,"true",0,32
"1516",140,2,28,2,1.559,"true",0,3
"1517",140,2,29,2,1.465,"true",1,42
"1518",140,2,30,1,1.569,"false",0,26
"1519",140,2,31,2,1.051,"false",0,18
"1520",140,2,32,2,1.177,"false",0,15
"1521",140,2,33,2,0.66,"true",0,2
"1522",140,2,34,1,3.922,"false",0,25
"1523",140,2,35,1,0.714,"false",1,61
"1524",140,2,36,1,0.272,"true",1,56
"1525",140,2,37,1,1.122,"true",0,27
"1526",140,2,38,2,6.072,"false",1,38
"1527",140,2,39,1,3.493,"false",1,60
"1528",140,2,40,1,3.639,"true",1,67
"1529",140,2,41,2,1.605,"true",1,54
"1530",140,2,42,2,0.938,"false",0,12
"1531",140,2,43,2,9.322,"true",1,48
"1532",140,2,44,2,3.01,"false",0,6
"1533",140,2,45,1,1.93,"true",0,30
"1534",140,2,46,1,3.57,"true",0,31
"1535",140,2,47,1,0.542,"false",1,70
"1536",140,2,48,2,7.219,"true",1,43
"1537",141,2,1,2,2.906,"false",0,38
"1538",141,2,2,2,0.789,"true",1,9
"1539",141,2,3,2,0.395,"true",1,4
"1540",141,2,4,2,1.629,"true",0,54
"1541",141,2,5,2,0.832,"true",1,2
"1542",141,2,6,2,7.016,"true",1,10
"1543",141,2,7,2,0.366,"true",1,17
"1544",141,2,8,1,0.917,"false",1,26
"1545",141,2,9,2,0.379,"true",1,16
"1546",141,2,10,1,0.622,"true",0,65
"1547",141,2,11,2,0.559,"true",0,51
"1548",141,2,12,1,0.483,"true",0,68
"1549",141,2,13,1,0.502,"false",0,63
"1550",141,2,14,1,1.269,"false",0,60
"1551",141,2,15,1,0.483,"false",1,25
"1552",141,2,16,2,2.03,"true",0,42
"1553",141,2,17,2,1.27,"true",0,41
"1554",141,2,18,2,0.552,"false",0,50
"1555",141,2,19,1,0.344,"true",0,69
"1556",141,2,20,1,0.667,"true",0,57
"1557",141,2,21,1,0.908,"true",1,24
"1558",141,2,22,1,0.353,"true",1,33
"1559",141,2,23,1,0.314,"true",1,29
"1560",141,2,24,1,0.622,"true",1,31
"1561",141,2,25,2,2.452,"true",0,39
"1562",141,2,26,1,1.643,"true",0,61
"1563",141,2,27,2,0.421,"true",0,46
"1564",141,2,28,2,1.147,"true",1,3
"1565",141,2,29,2,0.513,"true",1,11
"1566",141,2,30,1,0.385,"false",0,62
"1567",141,2,31,1,0.287,"true",1,27
"1568",141,2,32,2,0.382,"true",1,18
"1569",141,2,33,1,1.03,"false",1,20
"1570",141,2,34,1,4.605,"false",0,66
"1571",141,2,35,2,1.069,"false",1,5
"1572",141,2,36,2,4.749,"false",0,43
"1573",141,2,37,2,1.171,"false",0,52
"1574",141,2,38,1,1.696,"true",1,30
"1575",141,2,39,1,0.583,"true",0,72
"1576",141,2,40,1,1.176,"true",0,58
"1577",141,2,41,2,0.32,"true",1,8
"1578",141,2,42,1,3.681,"true",0,70
"1579",141,2,43,2,0.718,"true",0,44
"1580",141,2,44,2,0.371,"true",1,13
"1581",141,2,45,1,2.305,"false",1,35
"1582",141,2,46,1,0.566,"true",1,23
"1583",141,2,47,2,0.555,"false",0,53
"1584",141,2,48,1,0.56,"true",1,28
"1585",143,3,1,2,0.282,"false",0,47
"1586",143,3,2,2,0.245,"true",0,52
"1587",143,3,3,2,0.237,"false",0,37
"1588",143,3,4,1,0.233,"true",0,69
"1589",143,3,5,1,0.275,"true",1,30
"1590",143,3,6,2,0.342,"false",1,9
"1591",143,3,7,1,0.275,"false",0,67
"1592",143,3,8,1,0.192,"false",0,56
"1593",143,3,9,2,0.301,"false",0,39
"1594",143,3,10,2,0.498,"false",0,54
"1595",143,3,11,2,0.307,"true",1,2
"1596",143,3,12,1,0.488,"true",1,22
"1597",143,3,13,1,0.225,"true",1,36
"1598",143,3,14,2,0.579,"true",1,16
"1599",143,3,15,1,0.247,"true",1,28
"1600",143,3,16,2,0.322,"false",1,17
"1601",143,3,17,2,0.257,"true",1,18
"1602",143,3,18,2,0.237,"false",0,45
"1603",143,3,19,1,0.285,"false",1,20
"1604",143,3,20,1,0.267,"true",0,61
"1605",143,3,21,1,0.229,"true",0,72
"1606",143,3,22,1,0.514,"false",0,62
"1607",143,3,23,1,0.272,"false",1,26
"1608",143,3,24,2,0.617,"false",1,8
"1609",143,3,25,2,0.298,"true",0,40
"1610",143,3,26,2,0.375,"false",1,14
"1611",143,3,27,1,NA,NA,1,33
"1612",143,3,28,2,0.267,"true",1,7
"1613",143,3,29,2,0.311,"true",1,13
"1614",143,3,30,2,0.307,"false",1,6
"1615",143,3,31,2,0.229,"false",0,46
"1616",143,3,32,2,0.276,"true",1,5
"1617",143,3,33,1,0.162,"false",0,57
"1618",143,3,34,1,NA,NA,1,24
"1619",143,3,35,1,0.326,"true",0,68
"1620",143,3,36,1,0.244,"false",1,19
"1621",143,3,37,2,0.404,"false",1,15
"1622",143,3,38,2,0.31,"true",0,43
"1623",143,3,39,1,0.239,"true",1,34
"1624",143,3,40,1,0.663,"false",0,59
"1625",143,3,41,1,0.201,"false",1,27
"1626",143,3,42,1,0.28,"true",1,31
"1627",143,3,43,2,0.263,"true",0,48
"1628",143,3,44,2,0.277,"false",0,51
"1629",143,3,45,2,NA,NA,0,41
"1630",143,3,46,1,0.258,"false",0,71
"1631",143,3,47,1,0.442,"false",0,65
"1632",143,3,48,1,0.281,"true",0,58
"1633",144,2,1,1,4.034,"true",0,36
"1634",144,2,2,2,0.334,"true",1,45
"1635",144,2,3,2,4.06,"true",1,40
"1636",144,2,4,2,4.834,"false",0,8
"1637",144,2,5,2,1.704,"true",1,51
"1638",144,2,6,2,3.808,"false",0,1
"1639",144,2,7,1,0.688,"false",0,21
"1640",144,2,8,2,0.287,"true",1,48
"1641",144,2,9,1,1.188,"false",1,61
"1642",144,2,10,1,1.445,"false",1,60
"1643",144,2,11,2,8.546,"false",0,13
"1644",144,2,12,2,2.301,"true",1,42
"1645",144,2,13,1,0.837,"true",1,71
"1646",144,2,14,1,3.188,"true",0,30
"1647",144,2,15,2,1.996,"true",0,4
"1648",144,2,16,1,0.309,"true",1,64
"1649",144,2,17,1,4.211,"true",0,20
"1650",144,2,18,1,0.516,"false",1,57
"1651",144,2,19,1,0.495,"false",0,27
"1652",144,2,20,2,2.72,"false",1,49
"1653",144,2,21,2,0.668,"false",0,16
"1654",144,2,22,2,1.672,"true",0,10
"1655",144,2,23,1,13.037,"false",0,33
"1656",144,2,24,1,0.287,"true",1,69
"1657",144,2,25,1,0.66,"false",0,35
"1658",144,2,26,1,1.654,"false",0,22
"1659",144,2,27,2,1.18,"false",0,18
"1660",144,2,28,1,2.366,"true",0,24
"1661",144,2,29,1,2.989,"true",0,28
"1662",144,2,30,2,0.546,"false",0,6
"1663",144,2,31,2,0.626,"true",1,44
"1664",144,2,32,1,5.64,"false",1,59
"1665",144,2,33,2,1.421,"true",1,47
"1666",144,2,34,2,0.222,"false",1,46
"1667",144,2,35,2,1.888,"false",0,9
"1668",144,2,36,1,6.921,"false",1,58
"1669",144,2,37,2,0.357,"false",1,41
"1670",144,2,38,1,4.967,"true",1,70
"1671",144,2,39,2,3.74,"false",1,37
"1672",144,2,40,2,1.335,"true",1,53
"1673",144,2,41,1,1.174,"false",1,66
"1674",144,2,42,2,1.127,"true",0,3
"1675",144,2,43,2,6.252,"true",0,12
"1676",144,2,44,1,1.148,"false",1,72
"1677",144,2,45,1,3.773,"true",0,31
"1678",144,2,46,1,0.766,"false",0,26
"1679",144,2,47,2,1.975,"false",0,14
"1680",144,2,48,1,0.674,"false",1,55
"1681",145,2,1,2,3.654,"true",0,38
"1682",145,2,2,2,3.473,"false",0,50
"1683",145,2,3,2,2.048,"false",1,2
"1684",145,2,4,2,3.873,"true",0,41
"1685",145,2,5,1,5.647,"true",1,29
"1686",145,2,6,2,2.801,"false",0,42
"1687",145,2,7,1,4.488,"false",1,24
"1688",145,2,8,1,3.111,"false",0,60
"1689",145,2,9,1,4.334,"true",0,64
"1690",145,2,10,2,3.986,"true",1,7
"1691",145,2,11,1,4.222,"false",1,32
"1692",145,2,12,1,0.664,"true",1,27
"1693",145,2,13,2,3.616,"true",1,13
"1694",145,2,14,1,0.609,"true",1,19
"1695",145,2,15,1,2.176,"true",0,68
"1696",145,2,16,1,3.203,"false",0,58
"1697",145,2,17,2,12.056,"true",1,12
"1698",145,2,18,2,2.15,"false",0,53
"1699",145,2,19,1,6.069,"false",1,31
"1700",145,2,20,2,3.757,"true",1,17
"1701",145,2,21,1,3.389,"true",0,56
"1702",145,2,22,1,8.606,"false",0,66
"1703",145,2,23,2,4.589,"true",1,6
"1704",145,2,24,2,6.131,"true",0,49
"1705",145,2,25,1,3.717,"false",0,62
"1706",145,2,26,1,3.653,"true",0,72
"1707",145,2,27,2,2.048,"false",1,5
"1708",145,2,28,2,1.177,"false",0,39
"1709",145,2,29,1,1.279,"true",1,34
"1710",145,2,30,1,1.988,"true",1,23
"1711",145,2,31,1,4.475,"true",1,30
"1712",145,2,32,2,2.539,"true",1,15
"1713",145,2,33,2,6.01,"false",1,1
"1714",145,2,34,2,5.881,"false",0,37
"1715",145,2,35,2,5.422,"false",1,10
"1716",145,2,36,1,2.273,"false",0,67
"1717",145,2,37,2,0.826,"true",1,8
"1718",145,2,38,1,1.484,"true",1,26
"1719",145,2,39,1,8.729,"false",1,20
"1720",145,2,40,1,1.205,"true",0,55
"1721",145,2,41,1,1.997,"true",0,69
"1722",145,2,42,1,9.865,"false",0,57
"1723",145,2,43,2,2.216,"true",0,52
"1724",145,2,44,2,4.237,"false",0,43
"1725",145,2,45,1,0.892,"true",1,33
"1726",145,2,46,2,3.958,"false",0,48
"1727",145,2,47,2,1.497,"false",1,11
"1728",145,2,48,2,3.143,"false",0,46
"1729",146,2,1,2,1.725,"true",0,9
"1730",146,2,2,2,6.294,"false",0,7
"1731",146,2,3,1,0.516,"true",1,72
"1732",146,2,4,2,1.184,"true",1,50
"1733",146,2,5,2,0.504,"true",1,49
"1734",146,2,6,2,1.411,"false",1,44
"1735",146,2,7,1,3.233,"false",0,25
"1736",146,2,8,2,1.933,"true",0,15
"1737",146,2,9,2,1.193,"true",1,37
"1738",146,2,10,1,7.048,"true",1,58
"1739",146,2,11,2,7.905,"false",0,1
"1740",146,2,12,1,2.605,"true",1,71
"1741",146,2,13,1,0.953,"false",1,57
"1742",146,2,14,1,0.596,"true",0,28
"1743",146,2,15,2,0.907,"false",1,38
"1744",146,2,16,1,0.612,"true",0,29
"1745",146,2,17,1,4.231,"false",0,27
"1746",146,2,18,1,2.73,"true",0,19
"1747",146,2,19,1,1.106,"false",1,55
"1748",146,2,20,1,2.568,"true",0,30
"1749",146,2,21,2,1.015,"false",0,10
"1750",146,2,22,2,2.09,"true",0,17
"1751",146,2,23,1,0.742,"true",1,68
"1752",146,2,24,2,0.787,"true",1,54
"1753",146,2,25,1,1.083,"true",1,59
"1754",146,2,26,1,1.24,"true",1,66
"1755",146,2,27,2,2.774,"false",1,43
"1756",146,2,28,1,1.125,"false",0,23
"1757",146,2,29,1,2.817,"true",0,32
"1758",146,2,30,2,0.593,"true",1,39
"1759",146,2,31,2,1.356,"true",1,40
"1760",146,2,32,2,2.859,"true",1,53
"1761",146,2,33,2,0.772,"false",1,52
"1762",146,2,34,1,3.178,"false",1,63
"1763",146,2,35,1,0.517,"true",1,69
"1764",146,2,36,1,0.534,"true",1,65
"1765",146,2,37,1,5.712,"false",0,20
"1766",146,2,38,2,3.103,"false",0,4
"1767",146,2,39,2,0.898,"true",0,2
"1768",146,2,40,1,0.778,"true",0,35
"1769",146,2,41,1,1.616,"true",0,33
"1770",146,2,42,2,5.123,"true",0,8
"1771",146,2,43,2,9.228,"false",1,48
"1772",146,2,44,2,0.8,"true",0,18
"1773",146,2,45,1,1.604,"true",0,24
"1774",146,2,46,2,3.752,"false",0,12
"1775",146,2,47,1,1.59,"false",1,56
"1776",146,2,48,2,8.08,"true",0,16
"1777",149,2,1,2,3.253,"true",1,17
"1778",149,2,2,1,1.408,"true",1,31
"1779",149,2,3,1,4.519,"false",1,25
"1780",149,2,4,1,13.609,"false",1,36
"1781",149,2,5,2,1.472,"true",1,7
"1782",149,2,6,2,1.783,"false",0,50
"1783",149,2,7,2,4.114,"false",0,42
"1784",149,2,8,2,1.042,"true",1,10
"1785",149,2,9,2,0.848,"false",0,49
"1786",149,2,10,2,0.713,"true",1,2
"1787",149,2,11,2,1.082,"false",1,6
"1788",149,2,12,1,3.1,"true",0,64
"1789",149,2,13,1,2.133,"false",0,57
"1790",149,2,14,1,4.467,"true",0,65
"1791",149,2,15,2,0.331,"true",1,13
"1792",149,2,16,1,1.055,"false",0,60
"1793",149,2,17,2,2.439,"false",0,54
"1794",149,2,18,2,1.019,"true",0,44
"1795",149,2,19,1,2.218,"true",1,30
"1796",149,2,20,1,2.454,"true",1,19
"1797",149,2,21,1,1.225,"false",1,22
"1798",149,2,22,2,1.179,"false",0,37
"1799",149,2,23,1,5.931,"false",0,63
"1800",149,2,24,1,0.756,"true",0,69
"1801",149,2,25,1,3.063,"true",1,24
"1802",149,2,26,2,7.333,"true",0,40
"1803",149,2,27,2,2.155,"true",1,8
"1804",149,2,28,1,1.291,"true",1,21
"1805",149,2,29,2,0.624,"false",0,52
"1806",149,2,30,2,1.025,"true",1,15
"1807",149,2,31,2,0.388,"true",1,9
"1808",149,2,32,2,1.11,"false",0,53
"1809",149,2,33,1,5.215,"true",0,71
"1810",149,2,34,2,6.656,"false",0,41
"1811",149,2,35,2,2.58,"true",0,48
"1812",149,2,36,2,2.993,"true",0,39
"1813",149,2,37,1,3.384,"true",1,32
"1814",149,2,38,1,0.379,"true",1,29
"1815",149,2,39,2,0.391,"true",1,5
"1816",149,2,40,1,0.874,"true",1,23
"1817",149,2,41,1,1.006,"false",0,58
"1818",149,2,42,1,0.673,"false",0,62
"1819",149,2,43,2,0.881,"true",1,14
"1820",149,2,44,1,0.725,"false",1,33
"1821",149,2,45,1,0.81,"true",0,68
"1822",149,2,46,1,3.011,"false",0,61
"1823",149,2,47,2,0.66,"true",1,11
"1824",149,2,48,1,7.6,"false",0,70
"1825",150,3,1,1,0.241,"true",1,34
"1826",150,3,2,1,0.213,"false",1,21
"1827",150,3,3,1,0.716,"false",0,58
"1828",150,3,4,1,0.297,"true",1,28
"1829",150,3,5,1,0.779,"false",0,60
"1830",150,3,6,1,0.282,"false",0,56
"1831",150,3,7,2,0.801,"false",1,14
"1832",150,3,8,2,0.261,"true",0,54
"1833",150,3,9,1,0.619,"false",0,68
"1834",150,3,10,1,0.422,"true",1,29
"1835",150,3,11,1,0.291,"false",1,22
"1836",150,3,12,2,0.357,"true",0,43
"1837",150,3,13,2,0.499,"true",0,42
"1838",150,3,14,2,0.038,"false",1,8
"1839",150,3,15,2,0.352,"true",0,46
"1840",150,3,16,1,0.19,"true",0,69
"1841",150,3,17,2,0.264,"true",0,47
"1842",150,3,18,2,0.381,"false",1,10
"1843",150,3,19,2,0.478,"true",1,6
"1844",150,3,20,2,NA,NA,1,15
"1845",150,3,21,2,0.228,"false",1,5
"1846",150,3,22,1,0.598,"false",1,19
"1847",150,3,23,1,0.196,"true",0,66
"1848",150,3,24,2,0.635,"false",0,44
"1849",150,3,25,1,0.294,"true",0,65
"1850",150,3,26,2,0.326,"true",0,37
"1851",150,3,27,2,0.334,"true",1,7
"1852",150,3,28,1,0.261,"true",1,31
"1853",150,3,29,2,0.649,"false",1,12
"1854",150,3,30,1,0.482,"true",1,33
"1855",150,3,31,2,0.285,"false",1,11
"1856",150,3,32,2,0.263,"true",0,41
"1857",150,3,33,2,0.283,"true",0,45
"1858",150,3,34,2,0.68,"true",1,2
"1859",150,3,35,1,0.304,"true",1,32
"1860",150,3,36,1,0.644,"false",0,72
"1861",150,3,37,1,0.789,"true",0,71
"1862",150,3,38,2,0.508,"false",0,52
"1863",150,3,39,1,0.206,"false",1,25
"1864",150,3,40,2,0.21,"true",1,1
"1865",150,3,41,2,0.191,"false",0,48
"1866",150,3,42,1,0.242,"false",1,27
"1867",150,3,43,1,0.234,"true",0,61
"1868",150,3,44,1,0.797,"false",1,20
"1869",150,3,45,1,0.039,"false",0,55
"1870",150,3,46,1,0.446,"false",0,57
"1871",150,3,47,2,0.444,"true",1,13
"1872",150,3,48,2,0.552,"true",0,51
"1873",151,2,1,1,0.719,"true",0,35
"1874",151,2,2,2,5.972,"true",0,5
"1875",151,2,3,2,3.857,"true",1,54
"1876",151,2,4,2,0.466,"false",1,48
"1877",151,2,5,2,5.929,"true",0,8
"1878",151,2,6,1,1.575,"true",0,30
"1879",151,2,7,2,1.049,"true",1,50
"1880",151,2,8,2,0.544,"false",1,44
"1881",151,2,9,2,1.839,"true",1,42
"1882",151,2,10,2,3.14,"false",1,37
"1883",151,2,11,1,0.711,"false",0,26
"1884",151,2,12,1,0.531,"true",1,70
"1885",151,2,13,1,0.585,"false",0,19
"1886",151,2,14,1,0.409,"true",1,65
"1887",151,2,15,1,0.442,"false",1,57
"1888",151,2,16,1,0.808,"true",0,28
"1889",151,2,17,2,1.954,"false",0,18
"1890",151,2,18,2,0.973,"false",0,9
"1891",151,2,19,2,0.777,"true",0,12
"1892",151,2,20,1,0.663,"true",1,64
"1893",151,2,21,1,1.608,"false",0,27
"1894",151,2,22,1,3.974,"true",1,58
"1895",151,2,23,2,2.774,"true",0,16
"1896",151,2,24,1,0.566,"false",1,56
"1897",151,2,25,2,0.29,"false",1,52
"1898",151,2,26,1,0.502,"false",0,23
"1899",151,2,27,1,2.261,"false",1,67
"1900",151,2,28,2,5.632,"false",1,39
"1901",151,2,29,1,0.28,"true",1,66
"1902",151,2,30,2,1.592,"true",0,14
"1903",151,2,31,2,0.298,"true",1,49
"1904",151,2,32,2,3.857,"false",1,41
"1905",151,2,33,1,0.256,"true",0,29
"1906",151,2,34,2,1.309,"true",0,17
"1907",151,2,35,2,4.137,"true",0,6
"1908",151,2,36,1,1.463,"false",1,55
"1909",151,2,37,1,1.568,"false",0,20
"1910",151,2,38,1,0.89,"true",1,72
"1911",151,2,39,2,0.325,"true",1,46
"1912",151,2,40,2,2.661,"true",1,38
"1913",151,2,41,1,0.761,"false",1,60
"1914",151,2,42,1,0.375,"false",1,62
"1915",151,2,43,2,0.519,"false",0,1
"1916",151,2,44,2,2.034,"true",0,7
"1917",151,2,45,1,1.177,"true",0,33
"1918",151,2,46,2,2.873,"false",0,15
"1919",151,2,47,1,0.381,"true",0,32
"1920",151,2,48,1,0.73,"false",0,25
"1921",152,2,1,2,2.07,"true",0,42
"1922",152,2,2,1,1.402,"false",1,25
"1923",152,2,3,2,1.611,"true",1,5
"1924",152,2,4,2,0.424,"true",1,18
"1925",152,2,5,1,0.351,"true",1,32
"1926",152,2,6,1,0.338,"true",1,34
"1927",152,2,7,1,0.319,"false",0,63
"1928",152,2,8,2,9.903,"true",1,2
"1929",152,2,9,1,0.276,"true",0,69
"1930",152,2,10,1,0.106,"false",1,27
"1931",152,2,11,1,0.325,"true",0,65
"1932",152,2,12,1,0.296,"false",0,62
"1933",152,2,13,2,0.662,"false",0,47
"1934",152,2,14,1,1.266,"true",0,70
"1935",152,2,15,2,1.229,"false",1,7
"1936",152,2,16,2,1.052,"false",0,37
"1937",152,2,17,1,0.226,"false",1,21
"1938",152,2,18,1,0.294,"false",1,33
"1939",152,2,19,2,1.394,"true",0,48
"1940",152,2,20,2,0.418,"true",0,45
"1941",152,2,21,2,0.801,"true",1,10
"1942",152,2,22,2,1.338,"false",0,52
"1943",152,2,23,2,1.484,"false",1,15
"1944",152,2,24,1,0.438,"false",0,58
"1945",152,2,25,2,0.469,"true",1,9
"1946",152,2,26,2,0.679,"false",0,46
"1947",152,2,27,1,0.829,"true",0,61
"1948",152,2,28,2,4.387,"false",0,38
"1949",152,2,29,2,0.356,"true",0,51
"1950",152,2,30,1,0.512,"false",0,60
"1951",152,2,31,2,1.473,"true",1,12
"1952",152,2,32,2,0.484,"false",1,16
"1953",152,2,33,1,1.073,"false",0,59
"1954",152,2,34,2,0.339,"true",1,4
"1955",152,2,35,1,0.327,"true",0,68
"1956",152,2,36,2,0.309,"true",1,14
"1957",152,2,37,1,1.452,"true",0,66
"1958",152,2,38,1,1.072,"false",0,71
"1959",152,2,39,1,0.514,"false",1,24
"1960",152,2,40,1,0.323,"false",1,20
"1961",152,2,41,1,0.406,"true",1,31
"1962",152,2,42,1,1.985,"true",1,30
"1963",152,2,43,1,0.732,"false",1,26
"1964",152,2,44,1,0.99,"true",1,29
"1965",152,2,45,2,1.265,"true",0,40
"1966",152,2,46,2,0.302,"true",1,6
"1967",152,2,47,2,0.318,"false",0,53
"1968",152,2,48,2,1.775,"false",0,43
"1969",16,2,1,2,7.472,"true",0,15
"1970",16,2,2,2,1.107,"true",0,3
"1971",16,2,3,1,2.576,"true",1,69
"1972",16,2,4,1,0.957,"false",0,21
"1973",16,2,5,2,7.81,"false",1,37
"1974",16,2,6,1,4.594,"false",0,26
"1975",16,2,7,2,2.399,"true",0,5
"1976",16,2,8,1,4.301,"true",1,61
"1977",16,2,9,1,0.969,"true",0,24
"1978",16,2,10,2,0.261,"true",1,44
"1979",16,2,11,2,2.188,"true",0,13
"1980",16,2,12,1,1.922,"false",0,33
"1981",16,2,13,2,2.345,"true",0,17
"1982",16,2,14,2,0.832,"false",0,9
"1983",16,2,15,2,0.586,"true",1,54
"1984",16,2,16,2,2.805,"false",1,38
"1985",16,2,17,1,2.581,"true",1,72
"1986",16,2,18,1,0.254,"false",0,36
"1987",16,2,19,1,0.275,"true",1,62
"1988",16,2,20,1,2.578,"true",0,30
"1989",16,2,21,2,1.196,"true",1,48
"1990",16,2,22,2,0.294,"true",1,46
"1991",16,2,23,1,0.267,"true",1,57
"1992",16,2,24,1,0.292,"true",1,65
"1993",16,2,25,2,0.325,"true",1,40
"1994",16,2,26,1,0.288,"true",0,35
"1995",16,2,27,1,0.551,"true",0,28
"1996",16,2,28,2,0.992,"true",0,14
"1997",16,2,29,2,0.645,"true",1,42
"1998",16,2,30,1,1.088,"false",1,67
"1999",16,2,31,1,1.973,"true",0,23
"2000",16,2,32,2,2.121,"false",0,7
"2001",16,2,33,1,0.376,"false",1,55
"2002",16,2,34,2,0.256,"true",1,51
"2003",16,2,35,1,1.974,"false",0,25
"2004",16,2,36,2,0.253,"true",1,47
"2005",16,2,37,1,1.256,"true",1,58
"2006",16,2,38,1,4.302,"true",0,20
"2007",16,2,39,2,5.629,"true",0,2
"2008",16,2,40,2,0.275,"true",0,4
"2009",16,2,41,2,0.749,"false",0,11
"2010",16,2,42,2,2.332,"false",0,18
"2011",16,2,43,1,0.338,"true",1,71
"2012",16,2,44,1,0.648,"true",0,31
"2013",16,2,45,1,1.887,"true",1,56
"2014",16,2,46,2,0.252,"true",1,53
"2015",16,2,47,1,0.767,"true",1,66
"2016",16,2,48,2,0.215,"true",1,43
"2017",17,3,1,2,1.022,"true",0,11
"2018",17,3,2,2,2.004,"true",0,4
"2019",17,3,3,2,NA,NA,0,16
"2020",17,3,4,2,1.486,"false",0,3
"2021",17,3,5,2,1.968,"false",1,53
"2022",17,3,6,1,NA,NA,0,36
"2023",17,3,7,2,0.897,"false",1,38
"2024",17,3,8,1,0.987,"false",1,63
"2025",17,3,9,1,1.126,"false",1,60
"2026",17,3,10,1,1.112,"false",1,62
"2027",17,3,11,1,1.098,"true",1,68
"2028",17,3,12,2,1.045,"true",0,18
"2029",17,3,13,2,0.879,"true",0,9
"2030",17,3,14,1,0.871,"false",0,26
"2031",17,3,15,2,1.136,"true",1,52
"2032",17,3,16,1,0.838,"false",1,72
"2033",17,3,17,2,0.988,"true",1,37
"2034",17,3,18,1,1.446,"false",0,22
"2035",17,3,19,1,0.972,"true",0,32
"2036",17,3,20,1,1.139,"false",1,66
"2037",17,3,21,2,0.628,"false",1,45
"2038",17,3,22,1,1.102,"false",0,27
"2039",17,3,23,2,1.29,"true",1,48
"2040",17,3,24,1,0.922,"false",0,29
"2041",17,3,25,1,1.379,"true",0,20
"2042",17,3,26,2,1.603,"false",0,1
"2043",17,3,27,2,1.346,"false",0,14
"2044",17,3,28,1,0.383,"true",0,34
"2045",17,3,29,1,1.726,"false",0,35
"2046",17,3,30,1,NA,NA,1,58
"2047",17,3,31,1,1.191,"true",0,25
"2048",17,3,32,2,1.631,"false",0,17
"2049",17,3,33,1,1.364,"true",1,71
"2050",17,3,34,2,1.533,"false",1,46
"2051",17,3,35,1,1.524,"true",0,24
"2052",17,3,36,2,1.78,"false",0,8
"2053",17,3,37,1,0.62,"false",1,59
"2054",17,3,38,1,0.507,"true",1,64
"2055",17,3,39,2,0.631,"false",1,41
"2056",17,3,40,2,1.238,"false",1,43
"2057",17,3,41,1,1.2,"true",1,70
"2058",17,3,42,2,2.016,"false",0,15
"2059",17,3,43,2,1.897,"true",1,54
"2060",17,3,44,2,1.569,"false",0,5
"2061",17,3,45,2,0.548,"true",1,40
"2062",17,3,46,1,2.033,"false",1,56
"2063",17,3,47,2,NA,NA,1,50
"2064",17,3,48,1,0.658,"true",0,31
"2065",19,3,1,1,0.478,"false",0,32
"2066",19,3,2,2,0.307,"true",1,47
"2067",19,3,3,2,0.626,"false",1,40
"2068",19,3,4,1,0.331,"false",1,61
"2069",19,3,5,1,NA,NA,0,24
"2070",19,3,6,2,0.236,"false",1,49
"2071",19,3,7,1,0.349,"true",1,60
"2072",19,3,8,1,0.449,"true",0,33
"2073",19,3,9,2,0.306,"true",0,9
"2074",19,3,10,1,0.237,"false",0,21
"2075",19,3,11,1,0.376,"true",1,71
"2076",19,3,12,2,0.38,"false",1,50
"2077",19,3,13,2,0.308,"true",0,7
"2078",19,3,14,1,0.333,"true",1,64
"2079",19,3,15,1,0.545,"true",1,72
"2080",19,3,16,1,0.325,"false",0,26
"2081",19,3,17,1,0.376,"false",1,62
"2082",19,3,18,2,0.521,"false",0,10
"2083",19,3,19,2,0.412,"true",0,4
"2084",19,3,20,2,0.33,"false",1,45
"2085",19,3,21,2,0.158,"true",0,13
"2086",19,3,22,2,0.331,"false",0,11
"2087",19,3,23,1,0.249,"false",0,34
"2088",19,3,24,2,0.359,"false",1,44
"2089",19,3,25,1,0.313,"true",1,57
"2090",19,3,26,1,0.477,"true",1,58
"2091",19,3,27,2,0.289,"true",1,53
"2092",19,3,28,2,0.353,"false",1,46
"2093",19,3,29,1,NA,NA,0,20
"2094",19,3,30,2,0.518,"true",0,15
"2095",19,3,31,1,0.219,"false",0,27
"2096",19,3,32,1,0.269,"true",0,28
"2097",19,3,33,1,0.284,"false",0,19
"2098",19,3,34,1,0.353,"false",1,66
"2099",19,3,35,2,0.277,"true",1,41
"2100",19,3,36,2,0.32,"true",1,43
"2101",19,3,37,2,0.355,"false",1,51
"2102",19,3,38,2,NA,NA,1,42
"2103",19,3,39,2,0.249,"true",0,1
"2104",19,3,40,2,0.242,"true",0,3
"2105",19,3,41,1,0.233,"false",1,55
"2106",19,3,42,1,0.253,"true",0,29
"2107",19,3,43,2,0.294,"false",0,6
"2108",19,3,44,2,0.286,"true",0,17
"2109",19,3,45,1,0.149,"true",1,67
"2110",19,3,46,1,0.22,"true",1,69
"2111",19,3,47,1,0.273,"false",0,35
"2112",19,3,48,2,0.306,"false",0,18
"2113",2,2,1,1,0.903,"false",1,67
"2114",2,2,2,1,5.239,"false",0,21
"2115",2,2,3,2,1.757,"false",0,7
"2116",2,2,4,2,1.95,"true",1,37
"2117",2,2,5,1,1.321,"false",1,66
"2118",2,2,6,1,3.009,"true",1,71
"2119",2,2,7,2,1.425,"false",1,46
"2120",2,2,8,2,1.032,"true",0,6
"2121",2,2,9,2,2.182,"false",1,43
"2122",2,2,10,2,2.999,"true",1,47
"2123",2,2,11,2,2.35,"false",1,40
"2124",2,2,12,1,5.422,"false",1,58
"2125",2,2,13,1,2.831,"false",0,27
"2126",2,2,14,1,0.389,"false",0,20
"2127",2,2,15,2,0.862,"true",0,14
"2128",2,2,16,1,1.181,"false",1,61
"2129",2,2,17,1,5.074,"true",0,31
"2130",2,2,18,1,1.51,"true",1,57
"2131",2,2,19,1,3.129,"true",0,34
"2132",2,2,20,2,1.921,"true",1,53
"2133",2,2,21,1,1.426,"false",0,29
"2134",2,2,22,2,2.963,"false",0,3
"2135",2,2,23,2,2.347,"false",0,16
"2136",2,2,24,2,3.305,"false",0,18
"2137",2,2,25,2,1.896,"false",0,8
"2138",2,2,26,1,1.106,"true",0,23
"2139",2,2,27,1,2.479,"true",0,24
"2140",2,2,28,2,0.42,"true",1,48
"2141",2,2,29,2,1.41,"true",1,45
"2142",2,2,30,1,0.903,"false",1,62
"2143",2,2,31,1,0.953,"true",1,65
"2144",2,2,32,2,4.505,"false",0,5
"2145",2,2,33,1,0.396,"true",1,69
"2146",2,2,34,1,2.237,"true",1,72
"2147",2,2,35,2,2.294,"false",0,12
"2148",2,2,36,2,1.066,"true",1,38
"2149",2,2,37,1,1.567,"true",0,35
"2150",2,2,38,1,0.569,"true",0,33
"2151",2,2,39,1,2.257,"false",1,55
"2152",2,2,40,2,1.748,"true",1,52
"2153",2,2,41,2,2.921,"false",1,54
"2154",2,2,42,2,3.175,"false",1,41
"2155",2,2,43,2,2.478,"false",0,11
"2156",2,2,44,1,1.231,"true",0,28
"2157",2,2,45,1,1.454,"false",1,56
"2158",2,2,46,1,2.548,"true",0,22
"2159",2,2,47,2,2.783,"false",0,9
"2160",2,2,48,2,1.561,"false",0,17
"2161",20,2,1,2,9.995,"false",1,43
"2162",20,2,2,2,0.638,"true",1,44
"2163",20,2,3,1,9.915,"false",1,61
"2164",20,2,4,1,0.341,"true",0,29
"2165",20,2,5,1,4.496,"false",0,23
"2166",20,2,6,1,0.931,"false",1,62
"2167",20,2,7,2,0.614,"true",1,54
"2168",20,2,8,2,1.718,"true",1,50
"2169",20,2,9,2,4.077,"true",0,17
"2170",20,2,10,2,0.566,"false",0,6
"2171",20,2,11,2,0.955,"true",1,38
"2172",20,2,12,1,0.687,"true",1,64
"2173",20,2,13,1,0.918,"false",0,20
"2174",20,2,14,1,0.99,"true",1,71
"2175",20,2,15,1,1.801,"false",0,26
"2176",20,2,16,2,1.046,"false",1,48
"2177",20,2,17,1,2.071,"true",0,30
"2178",20,2,18,2,3.344,"true",0,13
"2179",20,2,19,2,4.432,"true",0,7
"2180",20,2,20,1,1.529,"true",0,31
"2181",20,2,21,1,0.398,"true",1,69
"2182",20,2,22,2,3.887,"true",0,16
"2183",20,2,23,2,5.56,"true",0,2
"2184",20,2,24,1,9.235,"true",1,60
"2185",20,2,25,2,6.087,"true",1,37
"2186",20,2,26,2,5.068,"false",0,10
"2187",20,2,27,1,5.964,"false",1,59
"2188",20,2,28,2,0.332,"true",1,47
"2189",20,2,29,1,0.888,"true",1,56
"2190",20,2,30,1,2.174,"false",0,27
"2191",20,2,31,1,0.675,"false",0,21
"2192",20,2,32,1,3.493,"true",0,35
"2193",20,2,33,1,1.43,"false",0,25
"2194",20,2,34,2,4.072,"true",0,8
"2195",20,2,35,2,3.57,"true",0,14
"2196",20,2,36,1,25.549,"false",0,32
"2197",20,2,37,2,4.21,"true",0,4
"2198",20,2,38,2,0.51,"false",0,18
"2199",20,2,39,2,3.16,"false",1,49
"2200",20,2,40,2,0.555,"true",0,3
"2201",20,2,41,1,0.371,"true",1,67
"2202",20,2,42,1,3.699,"true",1,57
"2203",20,2,43,2,0.506,"true",1,52
"2204",20,2,44,1,0.797,"true",1,72
"2205",20,2,45,2,0.703,"false",1,40
"2206",20,2,46,1,3.702,"true",0,34
"2207",20,2,47,1,0.638,"true",1,68
"2208",20,2,48,2,0.766,"true",1,39
"2209",21,3,1,1,0.402,"true",0,35
"2210",21,3,2,1,0.674,"false",0,21
"2211",21,3,3,1,0.48,"true",1,56
"2212",21,3,4,2,0.354,"true",0,8
"2213",21,3,5,2,0.321,"true",1,39
"2214",21,3,6,1,0.287,"false",1,60
"2215",21,3,7,2,0.219,"true",1,41
"2216",21,3,8,2,0.677,"false",1,54
"2217",21,3,9,2,0.476,"false",0,17
"2218",21,3,10,2,0.622,"false",1,42
"2219",21,3,11,1,0.338,"false",0,24
"2220",21,3,12,1,0.075,"true",1,67
"2221",21,3,13,1,0.659,"false",0,20
"2222",21,3,14,1,0.417,"true",1,68
"2223",21,3,15,2,0.536,"true",0,7
"2224",21,3,16,2,0.286,"false",1,48
"2225",21,3,17,1,0.592,"true",1,57
"2226",21,3,18,2,0.503,"true",0,13
"2227",21,3,19,1,0.3,"false",1,64
"2228",21,3,20,2,0.475,"false",0,10
"2229",21,3,21,2,0.628,"false",0,5
"2230",21,3,22,1,0.38,"true",0,28
"2231",21,3,23,2,0.761,"true",1,49
"2232",21,3,24,1,0.349,"true",0,29
"2233",21,3,25,1,0.376,"false",1,62
"2234",21,3,26,1,0.347,"false",0,22
"2235",21,3,27,2,0.319,"true",0,18
"2236",21,3,28,2,0.441,"false",0,1
"2237",21,3,29,1,0.282,"false",0,27
"2238",21,3,30,2,0.34,"true",1,38
"2239",21,3,31,1,NA,NA,0,23
"2240",21,3,32,1,0.362,"true",1,66
"2241",21,3,33,1,0.349,"true",0,34
"2242",21,3,34,2,0.317,"true",1,47
"2243",21,3,35,2,0.706,"false",0,16
"2244",21,3,36,2,0.656,"true",1,52
"2245",21,3,37,1,0.723,"false",1,63
"2246",21,3,38,2,0.397,"false",0,4
"2247",21,3,39,2,0.369,"true",0,14
"2248",21,3,40,1,0.338,"true",0,32
"2249",21,3,41,2,0.599,"false",0,9
"2250",21,3,42,1,0.297,"true",1,72
"2251",21,3,43,2,0.386,"true",1,45
"2252",21,3,44,1,0.26,"true",1,55
"2253",21,3,45,2,0.408,"true",1,51
"2254",21,3,46,1,0.569,"false",0,30
"2255",21,3,47,2,0.484,"true",1,37
"2256",21,3,48,1,0.517,"true",1,65
"2257",23,2,1,2,0.745,"true",0,47
"2258",23,2,2,2,8.036,"true",1,16
"2259",23,2,3,2,0.961,"true",1,3
"2260",23,2,4,2,3.192,"false",1,7
"2261",23,2,5,1,3.576,"false",1,26
"2262",23,2,6,2,2.611,"false",0,51
"2263",23,2,7,2,1.432,"true",0,46
"2264",23,2,8,1,0.55,"true",1,28
"2265",23,2,9,1,0.591,"false",0,68
"2266",23,2,10,1,1.652,"false",0,60
"2267",23,2,11,1,2.057,"true",1,19
"2268",23,2,12,1,4.788,"false",1,22
"2269",23,2,13,2,1.988,"true",1,4
"2270",23,2,14,2,5.422,"false",0,40
"2271",23,2,15,2,2.357,"false",0,45
"2272",23,2,16,1,4.856,"true",0,66
"2273",23,2,17,2,5.023,"false",0,41
"2274",23,2,18,1,0.991,"true",1,35
"2275",23,2,19,1,6.791,"false",0,72
"2276",23,2,20,1,3.262,"false",0,56
"2277",23,2,21,2,4.031,"false",1,15
"2278",23,2,22,2,1.257,"true",1,18
"2279",23,2,23,1,4.114,"true",1,30
"2280",23,2,24,1,3.29,"false",0,63
"2281",23,2,25,1,1.089,"true",1,32
"2282",23,2,26,2,1.346,"false",0,44
"2283",23,2,27,1,0.453,"true",1,29
"2284",23,2,28,1,0.501,"true",0,69
"2285",23,2,29,1,1.988,"true",0,71
"2286",23,2,30,2,2.093,"false",1,11
"2287",23,2,31,1,0.643,"true",1,27
"2288",23,2,32,2,2.415,"false",1,14
"2289",23,2,33,2,4.597,"false",0,43
"2290",23,2,34,2,2.014,"false",1,1
"2291",23,2,35,1,3.101,"false",0,64
"2292",23,2,36,1,0.939,"false",0,55
"2293",23,2,37,2,8.162,"true",1,8
"2294",23,2,38,2,0.495,"false",1,5
"2295",23,2,39,1,0.527,"true",1,33
"2296",23,2,40,1,2.417,"true",0,61
"2297",23,2,41,2,1.554,"true",1,12
"2298",23,2,42,1,2.236,"false",1,20
"2299",23,2,43,2,2.391,"false",0,54
"2300",23,2,44,2,1.89,"true",0,48
"2301",23,2,45,2,2.604,"false",0,37
"2302",23,2,46,1,5.87,"false",0,57
"2303",23,2,47,2,3.028,"true",0,50
"2304",23,2,48,1,0.486,"false",1,23
"2305",25,3,1,1,0.138,"true",1,69
"2306",25,3,2,2,0.19,"true",1,47
"2307",25,3,3,2,0.007,"false",0,3
"2308",25,3,4,2,0.245,"false",0,18
"2309",25,3,5,2,0.427,"true",1,39
"2310",25,3,6,1,0.228,"true",1,56
"2311",25,3,7,1,0.237,"true",1,67
"2312",25,3,8,2,0.23,"true",1,49
"2313",25,3,9,1,0.446,"false",0,22
"2314",25,3,10,1,NA,NA,1,57
"2315",25,3,11,1,0.253,"false",1,63
"2316",25,3,12,1,0.415,"false",0,23
"2317",25,3,13,2,0.26,"true",1,40
"2318",25,3,14,2,0.384,"true",0,4
"2319",25,3,15,1,0.305,"false",0,19
"2320",25,3,16,1,NA,NA,0,33
"2321",25,3,17,2,NA,NA,1,43
"2322",25,3,18,2,0.227,"false",1,48
"2323",25,3,19,2,0.27,"false",0,16
"2324",25,3,20,2,NA,NA,0,8
"2325",25,3,21,1,NA,NA,0,35
"2326",25,3,22,1,0.119,"true",0,31
"2327",25,3,23,1,0.2,"false",1,71
"2328",25,3,24,2,NA,NA,0,17
"2329",25,3,25,2,0.441,"false",0,7
"2330",25,3,26,2,0.241,"true",0,13
"2331",25,3,27,1,0.261,"true",0,24
"2332",25,3,28,1,0.254,"true",0,32
"2333",25,3,29,2,0.301,"false",0,10
"2334",25,3,30,1,0.194,"true",1,60
"2335",25,3,31,1,0.211,"true",1,68
"2336",25,3,32,2,0.219,"false",1,41
"2337",25,3,33,2,0.191,"true",1,45
"2338",25,3,34,2,0.369,"true",1,53
"2339",25,3,35,1,0.412,"true",0,28
"2340",25,3,36,1,0.213,"true",1,61
"2341",25,3,37,2,0.177,"true",1,46
"2342",25,3,38,2,NA,NA,0,2
"2343",25,3,39,1,0.063,"true",0,27
"2344",25,3,40,1,NA,NA,0,26
"2345",25,3,41,2,0.212,"false",0,1
"2346",25,3,42,2,0.247,"false",0,11
"2347",25,3,43,2,0.16,"true",1,38
"2348",25,3,44,1,0.023,"true",0,36
"2349",25,3,45,1,0.247,"false",1,55
"2350",25,3,46,1,0.252,"true",1,65
"2351",25,3,47,2,0.276,"true",1,50
"2352",25,3,48,1,0.362,"false",1,72
"2353",28,3,1,2,0.09,"false",1,41
"2354",28,3,2,1,0.207,"false",1,55
"2355",28,3,3,2,0.216,"false",1,44
"2356",28,3,4,1,0.323,"false",0,19
"2357",28,3,5,1,0.193,"true",1,61
"2358",28,3,6,1,0.306,"true",0,21
"2359",28,3,7,2,0.438,"false",0,15
"2360",28,3,8,1,0.302,"true",0,30
"2361",28,3,9,1,0.295,"false",0,23
"2362",28,3,10,1,0.254,"true",1,72
"2363",28,3,11,2,0.216,"true",0,9
"2364",28,3,12,1,0.279,"true",1,69
"2365",28,3,13,2,NA,NA,0,12
"2366",28,3,14,2,0.344,"false",1,50
"2367",28,3,15,2,0.043,"false",0,4
"2368",28,3,16,1,0.264,"false",1,63
"2369",28,3,17,1,0.272,"true",1,67
"2370",28,3,18,2,0.446,"true",1,42
"2371",28,3,19,2,0.54,"true",0,13
"2372",28,3,20,2,NA,NA,1,53
"2373",28,3,21,2,0.345,"false",1,51
"2374",28,3,22,1,0.279,"true",0,36
"2375",28,3,23,1,0.184,"true",0,35
"2376",28,3,24,2,0.22,"false",0,3
"2377",28,3,25,2,0.239,"true",1,43
"2378",28,3,26,1,NA,NA,0,20
"2379",28,3,27,2,0.186,"true",0,14
"2380",28,3,28,1,0.254,"false",1,59
"2381",28,3,29,1,0.247,"true",0,28
"2382",28,3,30,1,0.103,"true",0,32
"2383",28,3,31,1,0.076,"true",0,27
"2384",28,3,32,1,0.279,"true",1,70
"2385",28,3,33,1,0.471,"false",1,65
"2386",28,3,34,2,0.412,"true",1,47
"2387",28,3,35,1,0.246,"true",0,34
"2388",28,3,36,1,0.326,"false",0,22
"2389",28,3,37,1,0.249,"true",1,66
"2390",28,3,38,2,0.243,"false",0,11
"2391",28,3,39,1,0.466,"false",1,60
"2392",28,3,40,2,0.387,"true",1,54
"2393",28,3,41,2,0.479,"true",1,38
"2394",28,3,42,2,0.335,"false",0,18
"2395",28,3,43,1,0.216,"false",1,62
"2396",28,3,44,2,0.015,"true",1,48
"2397",28,3,45,2,0.443,"false",0,8
"2398",28,3,46,2,0.218,"true",0,5
"2399",28,3,47,2,0.268,"false",0,6
"2400",28,3,48,2,0.279,"false",1,40
"2401",3,3,1,2,0.235,"true",1,9
"2402",3,3,2,1,0.257,"true",0,67
"2403",3,3,3,1,0.402,"true",1,35
"2404",3,3,4,2,0.615,"true",1,10
"2405",3,3,5,2,0.703,"false",1,17
"2406",3,3,6,1,0.659,"false",0,61
"2407",3,3,7,2,0.603,"true",1,5
"2408",3,3,8,2,0.447,"true",0,39
"2409",3,3,9,2,0.272,"true",0,49
"2410",3,3,10,1,0.253,"false",0,55
"2411",3,3,11,1,0.235,"false",0,62
"2412",3,3,12,1,0.244,"true",1,27
"2413",3,3,13,2,0.473,"false",0,50
"2414",3,3,14,2,0.291,"true",0,44
"2415",3,3,15,2,0.703,"false",0,47
"2416",3,3,16,2,1.108,"false",1,6
"2417",3,3,17,1,0.294,"true",1,19
"2418",3,3,18,1,0.692,"true",0,72
"2419",3,3,19,1,0.545,"true",1,28
"2420",3,3,20,1,0.448,"false",1,25
"2421",3,3,21,1,0.228,"true",0,70
"2422",3,3,22,2,0.386,"false",0,43
"2423",3,3,23,2,0.402,"true",1,16
"2424",3,3,24,1,0.294,"true",1,29
"2425",3,3,25,1,0.663,"true",0,64
"2426",3,3,26,2,0.93,"true",1,15
"2427",3,3,27,2,0.795,"true",1,3
"2428",3,3,28,2,0.263,"true",1,8
"2429",3,3,29,1,0.409,"false",0,63
"2430",3,3,30,2,0.442,"false",0,38
"2431",3,3,31,1,0.489,"true",1,30
"2432",3,3,32,2,0.324,"true",0,45
"2433",3,3,33,1,0.739,"false",1,36
"2434",3,3,34,1,0.37,"false",1,21
"2435",3,3,35,2,0.538,"true",1,12
"2436",3,3,36,2,0.335,"true",0,40
"2437",3,3,37,1,0.667,"true",1,24
"2438",3,3,38,1,0.257,"false",0,57
"2439",3,3,39,1,0.363,"true",1,34
"2440",3,3,40,1,0.691,"true",0,58
"2441",3,3,41,2,0.651,"true",0,51
"2442",3,3,42,2,0.228,"true",1,7
"2443",3,3,43,1,0.393,"false",0,66
"2444",3,3,44,2,0.307,"true",1,14
"2445",3,3,45,1,0.888,"true",1,23
"2446",3,3,46,2,1.113,"false",0,53
"2447",3,3,47,1,0.584,"true",0,69
"2448",3,3,48,2,0.259,"true",0,48
"2449",30,2,1,1,0.214,"false",1,26
"2450",30,2,2,2,0.335,"true",0,54
"2451",30,2,3,2,0.24,"true",0,47
"2452",30,2,4,2,0.735,"true",0,39
"2453",30,2,5,2,0.228,"false",1,8
"2454",30,2,6,1,0.099,"false",0,62
"2455",30,2,7,1,0.241,"true",0,72
"2456",30,2,8,2,0.355,"false",1,11
"2457",30,2,9,1,0.265,"false",1,24
"2458",30,2,10,2,0.322,"true",1,18
"2459",30,2,11,2,0.326,"true",0,51
"2460",30,2,12,1,0.274,"true",1,32
"2461",30,2,13,1,0.335,"false",0,55
"2462",30,2,14,1,0.398,"true",0,64
"2463",30,2,15,2,0.224,"false",0,44
"2464",30,2,16,1,0.551,"true",1,31
"2465",30,2,17,1,0.613,"false",1,30
"2466",30,2,18,2,0.344,"false",1,10
"2467",30,2,19,1,0.77,"true",0,71
"2468",30,2,20,2,1.914,"false",1,1
"2469",30,2,21,2,0.641,"true",0,40
"2470",30,2,22,2,0.311,"true",1,4
"2471",30,2,23,1,0.341,"false",1,20
"2472",30,2,24,1,0.534,"false",0,63
"2473",30,2,25,1,0.587,"false",1,22
"2474",30,2,26,2,0.262,"true",1,2
"2475",30,2,27,2,0.267,"true",0,41
"2476",30,2,28,1,0.463,"true",0,67
"2477",30,2,29,2,0.337,"true",0,46
"2478",30,2,30,2,0.728,"true",1,5
"2479",30,2,31,1,0.262,"true",1,34
"2480",30,2,32,1,1.007,"false",0,65
"2481",30,2,33,1,1.179,"true",0,59
"2482",30,2,34,1,0.268,"false",0,57
"2483",30,2,35,2,0.412,"false",0,53
"2484",30,2,36,2,0.472,"false",1,16
"2485",30,2,37,1,0.232,"false",1,33
"2486",30,2,38,2,0.248,"false",0,38
"2487",30,2,39,1,0.265,"false",1,19
"2488",30,2,40,2,0.465,"true",1,14
"2489",30,2,41,2,0.876,"true",1,7
"2490",30,2,42,1,0.54,"false",0,70
"2491",30,2,43,1,0.29,"true",0,61
"2492",30,2,44,1,0.176,"false",1,27
"2493",30,2,45,2,0.444,"true",0,50
"2494",30,2,46,1,1.775,"true",1,36
"2495",30,2,47,2,0.65,"false",0,42
"2496",30,2,48,2,0.238,"true",1,13
"2497",32,2,1,2,3.356,"true",1,49
"2498",32,2,2,2,4.896,"false",0,4
"2499",32,2,3,1,2.204,"false",0,22
"2500",32,2,4,2,4.629,"false",0,12
"2501",32,2,5,2,1.561,"false",1,48
"2502",32,2,6,2,6.001,"true",1,41
"2503",32,2,7,1,5.289,"false",0,30
"2504",32,2,8,1,2.983,"false",0,25
"2505",32,2,9,1,2.57,"false",0,23
"2506",32,2,10,2,2.247,"false",1,43
"2507",32,2,11,1,1.438,"true",0,29
"2508",32,2,12,1,2.638,"true",1,64
"2509",32,2,13,2,5.838,"false",0,13
"2510",32,2,14,2,2.846,"false",0,5
"2511",32,2,15,1,0.73,"true",1,68
"2512",32,2,16,2,11.963,"false",0,1
"2513",32,2,17,1,1.281,"true",0,28
"2514",32,2,18,1,0.418,"true",1,66
"2515",32,2,19,1,9.249,"false",1,61
"2516",32,2,20,1,9.368,"true",1,60
"2517",32,2,21,2,0.96,"true",1,44
"2518",32,2,22,2,13.416,"false",0,15
"2519",32,2,23,2,2.581,"true",1,47
"2520",32,2,24,1,2.033,"false",1,59
"2521",32,2,25,2,1.444,"true",1,45
"2522",32,2,26,2,1.888,"true",0,18
"2523",32,2,27,2,0.931,"true",0,2
"2524",32,2,28,1,5.69,"true",1,62
"2525",32,2,29,1,0.699,"false",1,55
"2526",32,2,30,1,6.193,"true",1,71
"2527",32,2,31,1,7.215,"true",1,65
"2528",32,2,32,1,1.601,"false",0,35
"2529",32,2,33,2,2.111,"false",0,9
"2530",32,2,34,2,4.673,"false",1,53
"2531",32,2,35,2,6.257,"true",0,7
"2532",32,2,36,2,2.598,"false",1,46
"2533",32,2,37,1,1.027,"true",0,32
"2534",32,2,38,1,8.969,"true",0,27
"2535",32,2,39,2,3.875,"true",0,14
"2536",32,2,40,1,1.201,"false",0,21
"2537",32,2,41,2,2.491,"true",1,54
"2538",32,2,42,2,1.757,"true",0,10
"2539",32,2,43,1,2.883,"true",0,31
"2540",32,2,44,1,0.718,"true",1,69
"2541",32,2,45,2,4.256,"false",1,38
"2542",32,2,46,1,0.908,"false",1,57
"2543",32,2,47,2,6.032,"true",1,40
"2544",32,2,48,1,4.326,"false",0,19
"2545",34,2,1,2,2.163,"false",1,52
"2546",34,2,2,2,1.644,"false",0,16
"2547",34,2,3,2,1.863,"false",0,4
"2548",34,2,4,1,0.314,"false",1,56
"2549",34,2,5,1,0.655,"true",0,34
"2550",34,2,6,2,1.792,"false",1,42
"2551",34,2,7,2,9.596,"false",0,17
"2552",34,2,8,1,0.301,"false",0,23
"2553",34,2,9,1,0.493,"true",1,72
"2554",34,2,10,1,2.714,"true",0,32
"2555",34,2,11,1,0.917,"false",0,20
"2556",34,2,12,2,1.975,"false",0,10
"2557",34,2,13,2,0.468,"false",0,8
"2558",34,2,14,2,2.511,"false",1,41
"2559",34,2,15,1,0.363,"false",1,57
"2560",34,2,16,2,3.117,"true",1,50
"2561",34,2,17,1,0.472,"true",1,69
"2562",34,2,18,2,1.913,"false",1,54
"2563",34,2,19,1,0.875,"true",1,68
"2564",34,2,20,2,8.982,"true",1,43
"2565",34,2,21,2,4.292,"false",0,5
"2566",34,2,22,1,0.433,"false",0,21
"2567",34,2,23,1,0.463,"false",1,55
"2568",34,2,24,1,8.717,"true",0,30
"2569",34,2,25,1,0.64,"true",1,64
"2570",34,2,26,1,4.279,"true",0,33
"2571",34,2,27,2,1.147,"false",1,44
"2572",34,2,28,2,1,"true",1,46
"2573",34,2,29,1,1.431,"false",1,60
"2574",34,2,30,2,2.883,"true",1,53
"2575",34,2,31,1,3.514,"true",0,28
"2576",34,2,32,2,1.88,"false",0,11
"2577",34,2,33,1,6.513,"false",1,71
"2578",34,2,34,2,1.763,"false",1,45
"2579",34,2,35,1,3.786,"false",0,19
"2580",34,2,36,2,3.802,"true",0,3
"2581",34,2,37,2,1.893,"false",1,37
"2582",34,2,38,2,1.532,"true",0,7
"2583",34,2,39,2,4.108,"false",0,14
"2584",34,2,40,1,2.327,"false",1,58
"2585",34,2,41,1,0.676,"true",1,66
"2586",34,2,42,1,4.388,"true",0,26
"2587",34,2,43,2,1.652,"false",0,13
"2588",34,2,44,1,3.737,"true",1,59
"2589",34,2,45,1,8.21,"true",0,29
"2590",34,2,46,2,2.018,"true",1,51
"2591",34,2,47,1,8.568,"false",0,22
"2592",34,2,48,2,0.686,"true",0,6
"2593",35,2,1,1,2.205,"false",1,27
"2594",35,2,2,2,2.257,"false",0,48
"2595",35,2,3,2,5.754,"false",1,14
"2596",35,2,4,2,2.49,"false",1,3
"2597",35,2,5,1,1.506,"false",1,33
"2598",35,2,6,2,1.915,"false",1,6
"2599",35,2,7,2,0.357,"true",0,44
"2600",35,2,8,2,0.297,"false",1,5
"2601",35,2,9,2,4.627,"false",0,43
"2602",35,2,10,1,2.397,"true",1,34
"2603",35,2,11,2,3.913,"false",0,41
"2604",35,2,12,1,6.413,"true",0,66
"2605",35,2,13,1,1.211,"false",1,19
"2606",35,2,14,1,0.358,"false",1,35
"2607",35,2,15,1,0.658,"true",0,64
"2608",35,2,16,2,1.54,"false",1,18
"2609",35,2,17,1,1.428,"true",0,61
"2610",35,2,18,1,1.03,"false",1,23
"2611",35,2,19,2,1.924,"false",1,15
"2612",35,2,20,1,4.1,"true",0,58
"2613",35,2,21,1,1.771,"false",0,63
"2614",35,2,22,2,0.779,"false",0,46
"2615",35,2,23,1,6.323,"true",0,71
"2616",35,2,24,2,1.174,"true",0,47
"2617",35,2,25,2,3.51,"false",1,1
"2618",35,2,26,1,0.701,"false",0,55
"2619",35,2,27,2,3.605,"true",1,4
"2620",35,2,28,2,0.823,"true",0,51
"2621",35,2,29,2,1.418,"false",0,38
"2622",35,2,30,2,5.378,"false",0,54
"2623",35,2,31,1,2.768,"true",1,36
"2624",35,2,32,1,0.328,"false",0,56
"2625",35,2,33,2,3.768,"false",1,11
"2626",35,2,34,2,1.142,"false",0,45
"2627",35,2,35,1,1.175,"true",0,68
"2628",35,2,36,1,1.378,"false",0,72
"2629",35,2,37,1,1.488,"false",1,24
"2630",35,2,38,1,1.74,"false",0,60
"2631",35,2,39,1,5.009,"false",1,30
"2632",35,2,40,1,1.018,"false",1,25
"2633",35,2,41,2,2.548,"false",1,16
"2634",35,2,42,2,1.626,"true",1,13
"2635",35,2,43,2,1.85,"false",0,49
"2636",35,2,44,2,0.539,"false",1,8
"2637",35,2,45,1,3.042,"true",1,29
"2638",35,2,46,1,2.876,"true",0,65
"2639",35,2,47,1,0.27,"false",1,20
"2640",35,2,48,2,1.178,"false",0,39
"2641",38,3,1,2,0.67,"false",1,54
"2642",38,3,2,2,0.927,"false",1,50
"2643",38,3,3,1,0.349,"false",1,59
"2644",38,3,4,1,0.541,"false",1,55
"2645",38,3,5,1,1.099,"false",1,60
"2646",38,3,6,2,0.845,"true",1,45
"2647",38,3,7,1,0.678,"true",1,68
"2648",38,3,8,2,0.619,"true",0,3
"2649",38,3,9,1,1.045,"false",0,20
"2650",38,3,10,2,NA,NA,0,15
"2651",38,3,11,2,0.491,"false",0,14
"2652",38,3,12,1,0.591,"true",1,72
"2653",38,3,13,1,0.376,"true",0,36
"2654",38,3,14,2,0.807,"true",0,7
"2655",38,3,15,2,0.845,"false",1,46
"2656",38,3,16,1,1.269,"false",0,24
"2657",38,3,17,1,0.532,"false",1,70
"2658",38,3,18,1,1.516,"true",0,32
"2659",38,3,19,1,0.688,"true",0,35
"2660",38,3,20,2,0.731,"true",0,6
"2661",38,3,21,2,0.635,"false",0,11
"2662",38,3,22,2,0.587,"true",1,39
"2663",38,3,23,1,1.214,"false",0,22
"2664",38,3,24,2,0.691,"false",1,43
"2665",38,3,25,1,1.064,"false",0,29
"2666",38,3,26,2,1.049,"false",0,4
"2667",38,3,27,2,0.6,"true",1,42
"2668",38,3,28,1,1.082,"false",1,64
"2669",38,3,29,2,1.133,"false",0,18
"2670",38,3,30,1,1.529,"false",0,31
"2671",38,3,31,2,0.802,"true",1,52
"2672",38,3,32,1,0.625,"true",1,69
"2673",38,3,33,1,0.661,"false",0,27
"2674",38,3,34,1,0.482,"true",1,57
"2675",38,3,35,2,0.753,"false",0,10
"2676",38,3,36,2,NA,NA,0,5
"2677",38,3,37,1,0.972,"false",1,58
"2678",38,3,38,1,1.315,"true",0,21
"2679",38,3,39,1,0.672,"false",0,25
"2680",38,3,40,1,0.697,"true",0,33
"2681",38,3,41,2,0.768,"false",1,40
"2682",38,3,42,1,1.094,"false",1,63
"2683",38,3,43,2,0.564,"true",0,12
"2684",38,3,44,2,1.181,"false",0,9
"2685",38,3,45,2,0.312,"false",1,49
"2686",38,3,46,2,0.935,"false",1,44
"2687",38,3,47,2,0.677,"false",1,48
"2688",38,3,48,1,0.995,"true",1,71
"2689",40,3,1,1,0.272,"true",0,69
"2690",40,3,2,2,0.377,"true",0,51
"2691",40,3,3,1,0.645,"false",0,61
"2692",40,3,4,2,0.456,"true",1,4
"2693",40,3,5,2,0.444,"true",1,1
"2694",40,3,6,2,0.442,"true",1,3
"2695",40,3,7,2,0.546,"true",1,18
"2696",40,3,8,1,0.741,"true",0,59
"2697",40,3,9,2,0.34,"false",0,46
"2698",40,3,10,2,0.49,"true",0,53
"2699",40,3,11,1,0.258,"true",1,36
"2700",40,3,12,1,0.219,"true",1,34
"2701",40,3,13,1,0.229,"false",0,56
"2702",40,3,14,1,NA,NA,1,32
"2703",40,3,15,1,0.253,"false",1,24
"2704",40,3,16,1,0.268,"false",1,20
"2705",40,3,17,1,0.45,"false",0,72
"2706",40,3,18,2,0.411,"true",0,39
"2707",40,3,19,2,0.263,"true",1,17
"2708",40,3,20,2,0.318,"true",0,43
"2709",40,3,21,1,0.289,"true",1,23
"2710",40,3,22,1,0.413,"true",0,71
"2711",40,3,23,2,0.476,"true",0,45
"2712",40,3,24,2,0.577,"true",1,10
"2713",40,3,25,1,0.761,"false",0,55
"2714",40,3,26,1,0.259,"true",0,67
"2715",40,3,27,2,0.559,"false",0,47
"2716",40,3,28,2,0.404,"true",0,49
"2717",40,3,29,1,0.285,"false",1,21
"2718",40,3,30,1,0.344,"false",1,29
"2719",40,3,31,2,0.349,"true",1,14
"2720",40,3,32,2,0.415,"false",1,13
"2721",40,3,33,1,0.284,"false",0,62
"2722",40,3,34,1,0.23,"false",1,27
"2723",40,3,35,2,0.541,"true",1,7
"2724",40,3,36,1,0.564,"false",1,26
"2725",40,3,37,2,0.66,"false",1,8
"2726",40,3,38,2,0.309,"false",1,11
"2727",40,3,39,2,0.202,"true",1,9
"2728",40,3,40,2,0.477,"true",0,37
"2729",40,3,41,2,0.769,"false",0,38
"2730",40,3,42,1,0.289,"false",0,63
"2731",40,3,43,1,0.38,"true",0,64
"2732",40,3,44,2,0.548,"true",0,44
"2733",40,3,45,2,NA,NA,0,54
"2734",40,3,46,1,0.239,"true",1,33
"2735",40,3,47,1,0.225,"true",1,28
"2736",40,3,48,1,0.31,"true",0,65
"2737",41,3,1,2,0.377,"true",1,3
"2738",41,3,2,2,0.173,"true",0,51
"2739",41,3,3,2,0.134,"true",0,39
"2740",41,3,4,2,0.691,"false",1,14
"2741",41,3,5,2,0.421,"false",0,48
"2742",41,3,6,1,0.198,"true",0,68
"2743",41,3,7,1,NA,NA,0,60
"2744",41,3,8,2,0.129,"false",1,8
"2745",41,3,9,1,0.726,"false",1,25
"2746",41,3,10,2,0.312,"false",1,11
"2747",41,3,11,1,0.22,"true",1,30
"2748",41,3,12,2,0.429,"false",0,41
"2749",41,3,13,1,0.428,"true",1,29
"2750",41,3,14,1,0.717,"false",1,22
"2751",41,3,15,1,0.675,"false",0,61
"2752",41,3,16,1,0.262,"false",1,24
"2753",41,3,17,1,0.306,"true",0,63
"2754",41,3,18,1,0.687,"false",0,66
"2755",41,3,19,2,NA,NA,1,10
"2756",41,3,20,1,0.46,"true",1,33
"2757",41,3,21,2,0.521,"true",1,4
"2758",41,3,22,2,0.319,"false",0,46
"2759",41,3,23,2,0.762,"false",0,42
"2760",41,3,24,1,0.245,"true",0,72
"2761",41,3,25,2,0.241,"true",1,9
"2762",41,3,26,2,0.666,"false",0,43
"2763",41,3,27,1,0.339,"true",1,34
"2764",41,3,28,1,0.264,"true",0,65
"2765",41,3,29,1,NA,NA,0,70
"2766",41,3,30,1,0.611,"true",0,71
"2767",41,3,31,1,0.255,"true",1,27
"2768",41,3,32,2,0.59,"true",1,13
"2769",41,3,33,2,0.291,"false",0,53
"2770",41,3,34,2,0.423,"true",1,7
"2771",41,3,35,1,0.392,"false",1,21
"2772",41,3,36,1,0.726,"false",0,62
"2773",41,3,37,2,0.636,"false",0,50
"2774",41,3,38,1,0.47,"false",0,56
"2775",41,3,39,1,0.597,"false",0,55
"2776",41,3,40,2,0.486,"false",1,15
"2777",41,3,41,1,NA,NA,1,36
"2778",41,3,42,2,0.582,"true",0,52
"2779",41,3,43,2,NA,NA,0,38
"2780",41,3,44,2,0.263,"false",1,18
"2781",41,3,45,1,0.671,"true",1,35
"2782",41,3,46,1,NA,NA,1,26
"2783",41,3,47,2,0.273,"false",0,45
"2784",41,3,48,2,0.243,"true",1,5
"2785",42,2,1,1,11.597,"true",0,36
"2786",42,2,2,1,0.37,"false",1,62
"2787",42,2,3,2,1.003,"false",1,50
"2788",42,2,4,2,2.268,"false",1,46
"2789",42,2,5,2,2.664,"false",1,53
"2790",42,2,6,2,4.116,"false",0,15
"2791",42,2,7,1,1.682,"false",0,23
"2792",42,2,8,1,0.703,"true",1,71
"2793",42,2,9,1,2.627,"false",0,30
"2794",42,2,10,1,6.27,"false",1,58
"2795",42,2,11,1,3.361,"false",0,25
"2796",42,2,12,1,0.3,"false",0,33
"2797",42,2,13,2,4.963,"false",0,14
"2798",42,2,14,1,3.293,"false",0,21
"2799",42,2,15,2,8.634,"false",1,38
"2800",42,2,16,1,1.073,"true",1,69
"2801",42,2,17,1,0.998,"false",1,68
"2802",42,2,18,2,3.48,"false",0,9
"2803",42,2,19,2,2.399,"false",1,41
"2804",42,2,20,2,6.533,"false",1,43
"2805",42,2,21,2,1.491,"false",0,4
"2806",42,2,22,2,0.932,"false",0,12
"2807",42,2,23,1,1.574,"false",1,63
"2808",42,2,24,2,2.694,"false",0,5
"2809",42,2,25,1,0.578,"true",0,32
"2810",42,2,26,2,2.438,"false",0,17
"2811",42,2,27,1,5.435,"true",0,29
"2812",42,2,28,1,5.895,"false",1,70
"2813",42,2,29,1,1.804,"false",0,24
"2814",42,2,30,1,0.583,"true",1,65
"2815",42,2,31,2,1.513,"false",0,16
"2816",42,2,32,2,0.379,"false",1,45
"2817",42,2,33,2,0.717,"false",1,47
"2818",42,2,34,2,2.155,"true",0,2
"2819",42,2,35,2,3.659,"true",0,8
"2820",42,2,36,2,2.763,"false",1,51
"2821",42,2,37,1,4.844,"false",0,35
"2822",42,2,38,1,3.686,"false",1,59
"2823",42,2,39,2,0.572,"true",1,44
"2824",42,2,40,2,0.568,"false",1,48
"2825",42,2,41,1,0.344,"false",1,56
"2826",42,2,42,2,1.116,"false",0,6
"2827",42,2,43,1,1.531,"false",1,55
"2828",42,2,44,1,8.445,"true",1,66
"2829",42,2,45,1,1.048,"false",0,20
"2830",42,2,46,1,14.918,"false",0,26
"2831",42,2,47,2,2.173,"false",0,18
"2832",42,2,48,2,9.929,"false",1,39
"2833",43,2,1,2,2.148,"false",1,10
"2834",43,2,2,2,2.261,"true",0,43
"2835",43,2,3,2,0.382,"false",0,48
"2836",43,2,4,2,0.729,"true",1,6
"2837",43,2,5,2,0.568,"false",0,52
"2838",43,2,6,2,1.823,"false",0,40
"2839",43,2,7,2,0.978,"false",0,38
"2840",43,2,8,1,2.253,"false",0,56
"2841",43,2,9,1,0.521,"true",1,19
"2842",43,2,10,1,0.571,"true",0,69
"2843",43,2,11,1,1.389,"true",0,60
"2844",43,2,12,1,0.543,"true",1,32
"2845",43,2,13,2,0.519,"true",1,4
"2846",43,2,14,1,1.349,"true",1,33
"2847",43,2,15,1,3.17,"false",1,26
"2848",43,2,16,2,0.272,"true",0,49
"2849",43,2,17,1,2.331,"true",0,71
"2850",43,2,18,2,0.597,"true",1,11
"2851",43,2,19,1,0.369,"true",1,30
"2852",43,2,20,1,0.475,"false",0,57
"2853",43,2,21,1,0.37,"false",1,20
"2854",43,2,22,2,0.64,"true",1,2
"2855",43,2,23,2,0.461,"true",1,17
"2856",43,2,24,1,3.561,"true",0,68
"2857",43,2,25,1,1.05,"false",0,72
"2858",43,2,26,2,0.41,"true",1,14
"2859",43,2,27,1,0.442,"false",0,55
"2860",43,2,28,1,0.945,"true",1,31
"2861",43,2,29,1,0.448,"true",1,29
"2862",43,2,30,2,0.418,"false",0,53
"2863",43,2,31,1,3.421,"false",1,24
"2864",43,2,32,2,6.7,"true",1,9
