"","subject","presentation_identifier","trial","within_identifier","rt","response","repeated","statement_identifier"
"1",1,2,1,2,3.443,"true",0,23
"2",1,2,2,1,0.36,"false",1,105
"3",1,2,3,2,0.517,"true",1,80
"4",1,2,4,1,5.801,"true",0,40
"5",1,2,5,1,2.244,"true",1,119
"6",1,2,6,1,0.458,"false",1,98
"7",1,2,7,1,0.853,"true",0,53
"8",1,2,8,2,1.507,"true",0,7
"9",1,2,9,2,1.158,"true",0,14
"10",1,2,10,1,3.158,"false",1,107
"11",1,2,11,1,2.392,"false",1,99
"12",1,2,12,2,0.708,"true",1,72
"13",1,2,13,2,9.724,"true",0,25
"14",1,2,14,1,0.956,"false",0,33
"15",1,2,15,1,5.935,"false",0,36
"16",1,2,16,2,2.791,"false",1,82
"17",1,2,17,1,0.472,"false",1,102
"18",1,2,18,1,5.798,"true",0,43
"19",1,2,19,1,1.457,"true",0,56
"20",1,2,20,2,0.894,"true",1,83
"21",1,2,21,1,1.004,"false",0,37
"22",1,2,22,2,5.308,"true",1,74
"23",1,2,23,2,1.154,"true",0,13
"24",1,2,24,1,4.402,"true",0,51
"25",1,2,25,1,0.428,"true",0,42
"26",1,2,26,1,0.448,"true",1,117
"27",1,2,27,1,5.348,"false",1,97
"28",1,2,28,2,0.46,"false",1,75
"29",1,2,29,2,3.267,"true",1,71
"30",1,2,30,1,2.095,"false",0,39
"31",1,2,31,2,1.744,"false",0,17
"32",1,2,32,1,1.967,"false",1,95
"33",1,2,33,2,1.064,"true",1,87
"34",1,2,34,2,1.994,"true",0,21
"35",1,2,35,1,0.523,"true",1,110
"36",1,2,36,2,0.484,"false",0,20
"37",1,2,37,2,2.422,"false",0,18
"38",1,2,38,2,1.121,"true",1,64
"39",1,2,39,2,5.73,"false",1,66
"40",1,2,40,1,2.187,"false",1,100
"41",1,2,41,2,0.41,"true",1,88
"42",1,2,42,2,1.519,"true",1,62
"43",1,2,43,1,0.368,"true",1,106
"44",1,2,44,2,0.511,"true",0,28
"45",1,2,45,1,0.505,"true",1,111
"46",1,2,46,2,6.764,"false",1,85
"47",1,2,47,2,1.158,"true",1,90
"48",1,2,48,1,1.35,"false",1,91
"49",1,2,49,2,9.182,"false",1,67
"50",1,2,50,2,5.327,"true",0,15
"51",1,2,51,2,2.074,"true",0,1
"52",1,2,52,2,4.001,"true",1,63
"53",1,2,53,1,1.062,"false",0,35
"54",1,2,54,1,2.336,"false",1,96
"55",1,2,55,2,0.935,"false",1,61
"56",1,2,56,2,1.587,"true",1,81
"57",1,2,57,2,1.358,"true",1,73
"58",1,2,58,2,3.072,"true",0,9
"59",1,2,59,2,4.265,"false",1,76
"60",1,2,60,2,5.938,"true",0,26
"61",1,2,61,1,0.782,"false",0,44
"62",1,2,62,1,0.667,"true",1,116
"63",1,2,63,2,0.352,"false",1,65
"64",1,2,64,1,1.696,"false",1,94
"65",1,2,65,1,0.507,"true",1,120
"66",1,2,66,2,0.73,"true",0,12
"67",1,2,67,2,1.794,"false",0,30
"68",1,2,68,1,8.969,"true",0,32
"69",1,2,69,2,0.907,"false",0,27
"70",1,2,70,2,0.262,"true",1,79
"71",1,2,71,1,0.393,"true",1,104
"72",1,2,72,2,0.629,"true",0,16
"73",1,2,73,2,4.426,"false",0,29
"74",1,2,74,1,1.118,"true",0,50
"75",1,2,75,1,1.005,"true",0,59
"76",1,2,76,1,0.771,"false",0,34
"77",1,2,77,1,1.134,"false",1,101
"78",1,2,78,2,4.483,"true",0,22
"79",1,2,79,1,0.608,"false",0,31
"80",1,2,80,1,0.661,"true",0,45
"81",1,2,81,1,1.097,"true",0,54
"82",1,2,82,2,2.544,"true",0,3
"83",1,2,83,1,0.773,"false",0,41
"84",1,2,84,2,2.122,"true",1,70
"85",1,2,85,2,0.42,"true",0,8
"86",1,2,86,2,0.495,"true",0,24
"87",1,2,87,2,1.181,"false",1,89
"88",1,2,88,1,2.426,"false",1,109
"89",1,2,89,1,4.811,"true",1,112
"90",1,2,90,1,1.258,"true",0,60
"91",1,2,91,2,0.964,"true",0,19
"92",1,2,92,1,2.954,"true",0,52
"93",1,2,93,2,0.537,"true",1,84
"94",1,2,94,1,3.376,"true",0,57
"95",1,2,95,1,1.799,"true",1,92
"96",1,2,96,1,0.02,"true",0,55
"97",1,2,97,1,2.233,"true",1,118
"98",1,2,98,1,0.67,"false",0,38
"99",1,2,99,1,1.04,"true",1,113
"100",1,2,100,1,1.792,"true",0,46
"101",1,2,101,1,0.388,"true",0,47
"102",1,2,102,1,10.063,"true",0,49
"103",1,2,103,1,7.325,"false",1,114
"104",1,2,104,2,0.632,"false",1,86
"105",1,2,105,2,2.518,"false",0,4
"106",1,2,106,1,0.365,"true",1,103
"107",1,2,107,2,2.35,"false",0,11
"108",1,2,108,2,1.356,"true",0,6
"109",1,2,109,2,1.2,"false",1,77
"110",1,2,110,2,1.946,"true",0,2
"111",1,2,111,1,1.033,"true",0,48
"112",1,2,112,2,1.37,"false",1,78
"113",1,2,113,1,6.952,"true",1,108
"114",1,2,114,2,6.009,"false",0,5
"115",1,2,115,2,6.197,"false",1,68
"116",1,2,116,1,5.717,"false",1,93
"117",1,2,117,1,7.172,"true",1,115
"118",1,2,118,2,0.592,"false",1,69
"119",1,2,119,2,15.176,"true",0,10
"120",1,2,120,1,1.278,"true",0,58
"121",10,3,1,1,0.969,"false",1,43
"122",10,3,2,1,0.872,"true",1,53
"123",10,3,3,2,0.255,"false",1,18
"124",10,3,4,2,0.966,"true",1,17
"125",10,3,5,2,0.38,"false",0,89
"126",10,3,6,2,NA,NA,1,3
"127",10,3,7,2,0.296,"true",0,69
"128",10,3,8,2,0.349,"false",0,88
"129",10,3,9,2,0.791,"true",1,23
"130",10,3,10,2,NA,NA,1,5
"131",10,3,11,2,0.234,"false",0,66
"132",10,3,12,2,0.295,"false",0,78
"133",10,3,13,1,0.348,"false",0,92
"134",10,3,14,2,0.305,"false",0,71
"135",10,3,15,1,0.684,"false",1,40
"136",10,3,16,2,0.814,"true",0,77
"137",10,3,17,1,0.553,"false",1,46
"138",10,3,18,1,0.268,"false",1,35
"139",10,3,19,2,0.372,"true",1,27
"140",10,3,20,1,0.286,"false",1,38
"141",10,3,21,1,0.809,"false",0,101
"142",10,3,22,1,0.284,"true",1,54
"143",10,3,23,2,0.26,"true",1,8
"144",10,3,24,1,0.346,"false",1,45
"145",10,3,25,1,0.375,"false",0,115
"146",10,3,26,2,0.263,"true",0,75
"147",10,3,27,2,0.296,"false",0,90
"148",10,3,28,1,0.307,"true",1,56
"149",10,3,29,2,0.465,"true",1,15
"150",10,3,30,2,0.522,"true",1,4
"151",10,3,31,1,0.744,"true",0,96
"152",10,3,32,1,0.506,"true",0,107
"153",10,3,33,1,0.316,"false",0,104
"154",10,3,34,2,0.359,"true",1,20
"155",10,3,35,2,0.291,"false",0,85
"156",10,3,36,2,0.536,"true",1,7
"157",10,3,37,1,0.38,"false",1,51
"158",10,3,38,1,0.885,"false",0,99
"159",10,3,39,2,0.453,"true",1,26
"160",10,3,40,2,0.36,"false",1,21
"161",10,3,41,1,0.396,"true",1,36
"162",10,3,42,2,0.258,"true",1,30
"163",10,3,43,2,0.816,"true",1,29
"164",10,3,44,1,0.321,"true",1,49
"165",10,3,45,1,0.527,"true",0,94
"166",10,3,46,1,0.513,"true",0,102
"167",10,3,47,2,NA,NA,1,11
"168",10,3,48,2,0.282,"true",1,2
"169",10,3,49,2,0.375,"false",0,72
"170",10,3,50,2,0.368,"false",1,14
"171",10,3,51,1,0.319,"false",0,117
"172",10,3,52,1,0.308,"true",1,42
"173",10,3,53,1,0.283,"true",0,118
"174",10,3,54,1,0.573,"true",0,100
"175",10,3,55,1,0.531,"false",0,109
"176",10,3,56,2,0.471,"false",0,68
"177",10,3,57,2,0.392,"true",0,80
"178",10,3,58,2,0.793,"false",0,87
"179",10,3,59,2,0.33,"false",0,86
"180",10,3,60,1,0.255,"true",1,60
"181",10,3,61,1,0.892,"true",1,44
"182",10,3,62,1,0.863,"true",0,114
"183",10,3,63,1,0.3,"true",0,116
"184",10,3,64,1,0.213,"false",1,37
"185",10,3,65,2,0.402,"true",0,64
"186",10,3,66,1,0.256,"true",0,113
"187",10,3,67,1,0.261,"true",0,120
"188",10,3,68,2,0.451,"false",1,9
"189",10,3,69,2,0.311,"true",1,1
"190",10,3,70,1,0.324,"false",1,34
"191",10,3,71,2,0.425,"true",0,67
"192",10,3,72,2,0.454,"true",0,83
"193",10,3,73,2,0.3,"false",0,79
"194",10,3,74,1,0.414,"true",0,95
"195",10,3,75,1,0.266,"true",1,59
"196",10,3,76,1,0.308,"true",0,97
"197",10,3,77,1,0.669,"false",0,91
"198",10,3,78,1,0.356,"false",1,32
"199",10,3,79,2,0.957,"false",1,28
"200",10,3,80,2,0.639,"true",0,76
"201",10,3,81,2,0.313,"false",0,62
"202",10,3,82,1,0.268,"true",0,106
"203",10,3,83,1,0.52,"true",1,57
"204",10,3,84,1,0.369,"false",1,47
"205",10,3,85,1,0.232,"false",0,93
"206",10,3,86,2,0.329,"true",1,13
"207",10,3,87,2,0.233,"false",0,70
"208",10,3,88,1,0.317,"true",0,108
"209",10,3,89,1,0.278,"false",0,105
"210",10,3,90,2,0.289,"false",0,81
"211",10,3,91,1,0.241,"true",0,112
"212",10,3,92,1,0.449,"true",0,98
"213",10,3,93,1,0.39,"true",1,39
"214",10,3,94,2,0.515,"true",0,82
"215",10,3,95,2,0.171,"false",0,65
"216",10,3,96,2,0.139,"true",0,63
"217",10,3,97,2,0.639,"true",1,6
"218",10,3,98,2,0.278,"false",0,74
"219",10,3,99,1,0.302,"true",1,58
"220",10,3,100,2,0.767,"true",1,19
"221",10,3,101,1,0.439,"false",1,31
"222",10,3,102,2,0.377,"true",1,10
"223",10,3,103,1,0.495,"false",0,119
"224",10,3,104,2,0.735,"false",1,25
"225",10,3,105,2,0.514,"false",0,84
"226",10,3,106,2,0.409,"true",0,73
"227",10,3,107,2,0.403,"false",0,61
"228",10,3,108,1,0.235,"false",1,41
"229",10,3,109,1,0.494,"false",1,33
"230",10,3,110,1,0.23,"false",0,110
"231",10,3,111,1,0.267,"false",0,103
"232",10,3,112,2,0.249,"false",1,16
"233",10,3,113,1,0.92,"false",1,55
"234",10,3,114,1,0.306,"true",1,48
"235",10,3,115,1,0.84,"false",1,52
"236",10,3,116,1,0.42,"true",1,50
"237",10,3,117,2,0.376,"false",1,12
"238",10,3,118,2,0.231,"true",1,24
"239",10,3,119,1,0.324,"true",0,111
"240",10,3,120,2,0.277,"false",1,22
"241",11,3,1,1,NA,NA,1,59
"242",11,3,2,1,0.632,"true",0,117
"243",11,3,3,1,0.958,"false",0,94
"244",11,3,4,1,0.648,"false",1,38
"245",11,3,5,1,0.913,"false",1,57
"246",11,3,6,1,NA,NA,0,93
"247",11,3,7,2,NA,NA,1,3
"248",11,3,8,1,0.804,"false",1,31
"249",11,3,9,2,0.353,"true",0,69
"250",11,3,10,1,NA,NA,1,56
"251",11,3,11,1,0.448,"false",0,102
"252",11,3,12,2,NA,NA,0,71
"253",11,3,13,2,0.557,"true",0,65
"254",11,3,14,2,0.511,"true",1,28
"255",11,3,15,1,0.98,"true",1,60
"256",11,3,16,2,0.822,"false",0,79
"257",11,3,17,2,0.701,"true",0,66
"258",11,3,18,1,0.85,"false",0,119
"259",11,3,19,1,0.235,"false",1,37
"260",11,3,20,1,0.408,"true",0,115
"261",11,3,21,1,0.924,"true",1,32
"262",11,3,22,2,NA,NA,0,67
"263",11,3,23,2,NA,NA,0,85
"264",11,3,24,1,0.844,"true",0,91
"265",11,3,25,1,0.424,"true",0,120
"266",11,3,26,1,0.764,"true",0,95
"267",11,3,27,1,0.935,"true",0,98
"268",11,3,28,2,0.884,"false",1,13
"269",11,3,29,1,NA,NA,0,110
"270",11,3,30,1,0.902,"true",1,55
"271",11,3,31,1,NA,NA,1,35
"272",11,3,32,2,0.453,"false",1,23
"273",11,3,33,2,0.376,"false",1,12
"274",11,3,34,1,0.595,"false",1,40
"275",11,3,35,1,0.899,"true",0,107
"276",11,3,36,2,0.563,"false",0,77
"277",11,3,37,1,NA,NA,1,51
"278",11,3,38,2,NA,NA,1,24
"279",11,3,39,1,0.854,"false",1,42
"280",11,3,40,2,NA,NA,0,70
"281",11,3,41,1,0.727,"false",0,104
"282",11,3,42,2,0.479,"false",1,14
"283",11,3,43,2,NA,NA,1,29
"284",11,3,44,2,0.351,"true",0,87
"285",11,3,45,2,0.761,"true",1,16
"286",11,3,46,1,NA,NA,0,100
"287",11,3,47,2,NA,NA,1,18
"288",11,3,48,1,0.668,"false",1,48
"289",11,3,49,1,0.406,"false",1,34
"290",11,3,50,1,0.536,"false",0,105
"291",11,3,51,2,0.326,"true",1,10
"292",11,3,52,2,0.415,"false",1,21
"293",11,3,53,2,0.541,"false",0,86
"294",11,3,54,2,NA,NA,0,89
"295",11,3,55,1,0.753,"false",0,103
"296",11,3,56,1,0.584,"false",0,109
"297",11,3,57,2,0.644,"true",0,62
"298",11,3,58,1,0.87,"false",0,112
"299",11,3,59,1,0.441,"false",1,44
"300",11,3,60,2,0.511,"true",1,15
"301",11,3,61,2,NA,NA,0,63
"302",11,3,62,1,0.671,"false",1,50
"303",11,3,63,1,NA,NA,0,106
"304",11,3,64,1,0.377,"true",1,53
"305",11,3,65,2,0.715,"false",0,64
"306",11,3,66,1,0.451,"true",0,97
"307",11,3,67,2,0.559,"true",0,73
"308",11,3,68,2,NA,NA,0,80
"309",11,3,69,1,NA,NA,1,39
"310",11,3,70,1,0.308,"true",0,118
"311",11,3,71,2,0.986,"false",1,8
"312",11,3,72,2,0.648,"false",1,26
"313",11,3,73,2,NA,NA,1,6
"314",11,3,74,1,0.817,"true",1,58
"315",11,3,75,1,NA,NA,1,46
"316",11,3,76,2,0.598,"false",0,84
"317",11,3,77,2,0.624,"true",0,72
"318",11,3,78,2,NA,NA,1,20
"319",11,3,79,2,0.74,"true",0,90
"320",11,3,80,2,0.589,"false",1,19
"321",11,3,81,2,NA,NA,0,75
"322",11,3,82,2,0.252,"true",1,27
"323",11,3,83,2,0.985,"true",1,5
"324",11,3,84,1,NA,NA,1,36
"325",11,3,85,1,NA,NA,1,54
"326",11,3,86,1,0.825,"false",1,41
"327",11,3,87,2,NA,NA,0,61
"328",11,3,88,1,0.571,"false",1,52
"329",11,3,89,1,0.585,"false",1,43
"330",11,3,90,2,NA,NA,1,7
"331",11,3,91,1,NA,NA,1,33
"332",11,3,92,1,0.53,"false",1,47
"333",11,3,93,2,0.485,"false",1,9
"334",11,3,94,2,0.57,"false",0,68
"335",11,3,95,2,0.672,"true",0,82
"336",11,3,96,2,0.419,"false",1,22
"337",11,3,97,2,0.382,"true",0,78
"338",11,3,98,2,0.862,"false",0,88
"339",11,3,99,2,0.41,"false",1,30
"340",11,3,100,2,NA,NA,1,17
"341",11,3,101,1,0.322,"true",1,49
"342",11,3,102,2,0.788,"false",1,1
"343",11,3,103,1,0.885,"false",1,45
"344",11,3,104,1,NA,NA,0,99
"345",11,3,105,2,0.4,"false",0,81
"346",11,3,106,1,0.374,"true",0,116
"347",11,3,107,1,0.444,"true",0,108
"348",11,3,108,1,0.86,"true",0,113
"349",11,3,109,2,0.704,"false",0,74
"350",11,3,110,1,NA,NA,0,96
"351",11,3,111,1,NA,NA,0,101
"352",11,3,112,2,0.787,"true",1,11
"353",11,3,113,2,0.49,"true",0,76
"354",11,3,114,1,0.766,"false",0,111
"355",11,3,115,1,0.408,"true",0,114
"356",11,3,116,2,0.453,"false",1,25
"357",11,3,117,2,0.437,"true",0,83
"358",11,3,118,1,0.645,"false",0,92
"359",11,3,119,2,0.844,"false",1,2
"360",11,3,120,2,0.464,"false",1,4
"361",12,2,1,1,0.247,"true",1,44
"362",12,2,2,1,1.395,"true",0,112
"363",12,2,3,1,0.375,"false",1,40
"364",12,2,4,1,2.2,"false",1,53
"365",12,2,5,2,2.675,"false",0,79
"366",12,2,6,2,0.337,"true",0,77
"367",12,2,7,2,0.355,"false",0,78
"368",12,2,8,2,2.64,"true",0,86
"369",12,2,9,1,0.559,"false",1,46
"370",12,2,10,1,1.569,"true",0,118
"371",12,2,11,2,1.539,"false",0,68
"372",12,2,12,2,0.527,"true",1,28
"373",12,2,13,1,0.346,"true",0,95
"374",12,2,14,1,1.343,"true",0,107
"375",12,2,15,1,0.576,"true",1,54
"376",12,2,16,1,0.379,"false",1,41
"377",12,2,17,1,0.264,"false",0,91
"378",12,2,18,2,0.474,"false",0,74
"379",12,2,19,2,1.108,"true",0,67
"380",12,2,20,2,4.831,"true",0,80
"381",12,2,21,2,0.262,"true",1,24
"382",12,2,22,1,0.328,"false",1,59
"383",12,2,23,1,0.122,"false",1,33
"384",12,2,24,2,0.217,"false",1,29
"385",12,2,25,2,1.61,"true",0,76
"386",12,2,26,2,0.107,"false",0,82
"387",12,2,27,2,2.205,"false",0,72
"388",12,2,28,2,0.795,"true",0,62
"389",12,2,29,2,0.574,"true",1,13
"390",12,2,30,2,0.338,"true",0,69
"391",12,2,31,2,4.522,"false",0,71
"392",12,2,32,1,0.375,"true",0,111
"393",12,2,33,2,5.883,"true",0,66
"394",12,2,34,1,4.517,"false",0,109
"395",12,2,35,1,1.106,"true",0,106
"396",12,2,36,2,1.129,"false",1,27
"397",12,2,37,1,0.426,"false",1,37
"398",12,2,38,2,0.315,"true",0,65
"399",12,2,39,2,4.056,"true",1,19
"400",12,2,40,2,5.239,"true",0,70
"401",12,2,41,1,0.622,"true",0,117
"402",12,2,42,2,0.371,"false",1,23
"403",12,2,43,2,2.204,"false",0,75
"404",12,2,44,2,0.303,"true",1,9
"405",12,2,45,1,3.34,"false",0,96
"406",12,2,46,2,2.464,"true",0,81
"407",12,2,47,1,1.062,"false",0,103
"408",12,2,48,2,0.864,"true",0,85
"409",12,2,49,1,3.444,"true",1,58
"410",12,2,50,2,1.58,"true",1,2
"411",12,2,51,2,3.332,"true",0,90
"412",12,2,52,2,0.127,"false",1,7
"413",12,2,53,1,0.549,"true",1,49
"414",12,2,54,1,0.118,"true",1,47
"415",12,2,55,1,0.883,"false",1,42
"416",12,2,56,2,2.742,"true",0,83
"417",12,2,57,1,1.346,"false",1,45
"418",12,2,58,2,2.283,"false",1,26
"419",12,2,59,1,0.291,"true",1,31
"420",12,2,60,2,1.279,"false",0,89
"421",12,2,61,1,2.469,"true",0,119
"422",12,2,62,2,1.139,"true",1,30
"423",12,2,63,1,0.445,"true",0,104
"424",12,2,64,1,0.547,"false",0,108
"425",12,2,65,2,0.7,"false",1,18
"426",12,2,66,1,0.298,"false",0,97
"427",12,2,67,2,2.086,"false",1,21
"428",12,2,68,2,1.27,"true",1,20
"429",12,2,69,1,2.631,"true",0,98
"430",12,2,70,2,2.814,"true",1,5
"431",12,2,71,1,2.95,"false",0,99
"432",12,2,72,2,1.382,"false",1,4
"433",12,2,73,1,0.377,"false",1,36
"434",12,2,74,1,0.396,"true",0,113
"435",12,2,75,2,0.209,"false",0,61
"436",12,2,76,1,0.382,"false",0,93
"437",12,2,77,1,2.251,"false",1,43
"438",12,2,78,1,0.339,"true",0,92
"439",12,2,79,2,6.608,"false",1,15
"440",12,2,80,1,1.883,"false",1,48
"441",12,2,81,2,0.289,"true",0,63
"442",12,2,82,1,0.345,"true",1,57
"443",12,2,83,1,0.433,"true",1,32
"444",12,2,84,2,0.881,"false",1,6
"445",12,2,85,2,0.353,"false",0,88
"446",12,2,86,1,1.193,"true",1,38
"447",12,2,87,2,0.398,"true",1,17
"448",12,2,88,1,0.921,"true",0,114
"449",12,2,89,1,2.358,"true",0,115
"450",12,2,90,1,0.129,"false",1,39
"451",12,2,91,1,0.03,"true",0,120
"452",12,2,92,2,1.369,"false",1,11
"453",12,2,93,2,0.375,"false",0,73
"454",12,2,94,1,0.37,"false",1,55
"455",12,2,95,1,0.308,"true",1,50
"456",12,2,96,2,0.353,"false",1,25
"457",12,2,97,1,0.252,"true",0,116
"458",12,2,98,1,0.47,"true",1,52
"459",12,2,99,1,0.75,"false",0,94
"460",12,2,100,2,0.252,"false",1,8
"461",12,2,101,2,0.327,"false",0,84
"462",12,2,102,2,0.656,"true",1,12
"463",12,2,103,2,1.692,"true",0,87
"464",12,2,104,1,2.102,"true",0,110
"465",12,2,105,1,0.316,"false",0,101
"466",12,2,106,2,3.161,"true",1,1
"467",12,2,107,2,1.484,"false",1,22
"468",12,2,108,2,0.791,"true",1,10
"469",12,2,109,1,0.275,"false",1,35
"470",12,2,110,1,0.615,"false",0,105
"471",12,2,111,2,0.755,"false",1,3
"472",12,2,112,2,0.558,"false",1,16
"473",12,2,113,1,5.724,"false",1,34
"474",12,2,114,1,0.34,"true",1,60
"475",12,2,115,2,1.661,"true",1,14
"476",12,2,116,2,1.743,"false",0,64
"477",12,2,117,1,0.673,"false",0,100
"478",12,2,118,1,6.899,"false",1,51
"479",12,2,119,1,0.333,"true",0,102
"480",12,2,120,1,0.567,"true",1,56
"481",13,2,1,1,5.562,"false",0,45
"482",13,2,2,2,0.918,"true",1,65
"483",13,2,3,1,0.964,"false",0,50
"484",13,2,4,1,1.78,"true",1,118
"485",13,2,5,1,0.644,"true",1,116
"486",13,2,6,1,0.493,"true",1,96
"487",13,2,7,2,0.894,"false",0,20
"488",13,2,8,1,0.873,"false",0,43
"489",13,2,9,1,0.59,"true",0,59
"490",13,2,10,1,0.755,"true",1,99
"491",13,2,11,2,0.263,"true",1,67
"492",13,2,12,2,0.258,"true",0,1
"493",13,2,13,2,1.288,"true",1,78
"494",13,2,14,1,0.915,"false",0,36
"495",13,2,15,1,2.407,"false",0,49
"496",13,2,16,1,1.455,"false",1,110
"497",13,2,17,2,3.773,"true",0,11
"498",13,2,18,2,0.942,"true",0,28
"499",13,2,19,1,2.058,"true",0,54
"500",13,2,20,2,0.349,"false",0,26
"501",13,2,21,2,0.635,"false",0,22
"502",13,2,22,2,3.091,"true",0,3
"503",13,2,23,1,1.059,"false",0,38
"504",13,2,24,1,0.302,"true",0,42
"505",13,2,25,2,0.913,"true",1,80
"506",13,2,26,2,3.151,"false",1,81
"507",13,2,27,2,0.305,"true",1,83
"508",13,2,28,1,0.401,"false",1,119
"509",13,2,29,2,4.21,"false",0,8
"510",13,2,30,1,0.766,"true",0,33
"511",13,2,31,2,1.166,"true",0,29
"512",13,2,32,1,0.398,"false",1,95
"513",13,2,33,2,0.284,"true",0,13
"514",13,2,34,2,0.846,"true",1,69
"515",13,2,35,1,1.033,"true",1,120
"516",13,2,36,1,0.35,"true",0,41
"517",13,2,37,1,0.766,"false",1,91
"518",13,2,38,2,0.704,"true",1,88
"519",13,2,39,1,0.295,"true",1,107
"520",13,2,40,2,0.907,"true",1,87
"521",13,2,41,2,1.58,"true",0,5
"522",13,2,42,2,1.63,"true",0,18
"523",13,2,43,1,1.105,"true",0,46
"524",13,2,44,2,4.248,"true",0,30
"525",13,2,45,1,1.945,"true",0,35
"526",13,2,46,2,3.119,"false",0,6
"527",13,2,47,1,1.244,"false",1,114
"528",13,2,48,2,0.292,"true",1,73
"529",13,2,49,1,0.601,"true",0,60
"530",13,2,50,1,2.46,"false",0,44
"531",13,2,51,1,1.017,"false",0,37
"532",13,2,52,2,1.314,"false",0,12
"533",13,2,53,1,1.01,"true",1,112
"534",13,2,54,2,1.908,"true",0,25
"535",13,2,55,1,1.167,"true",1,115
"536",13,2,56,1,0.565,"true",1,109
"537",13,2,57,1,1.947,"true",0,40
"538",13,2,58,2,0.841,"true",0,16
"539",13,2,59,2,0.347,"false",1,89
"540",13,2,60,2,0.953,"true",1,71
"541",13,2,61,2,0.995,"true",1,74
"542",13,2,62,2,0.84,"true",0,2
"543",13,2,63,1,0.441,"true",1,92
"544",13,2,64,2,3.306,"false",0,23
"545",13,2,65,2,0.379,"true",0,4
"546",13,2,66,2,0.357,"true",1,76
"547",13,2,67,1,0.599,"false",1,94
"548",13,2,68,2,1.417,"false",1,79
"549",13,2,69,1,0.393,"true",0,56
"550",13,2,70,1,0.672,"true",0,57
"551",13,2,71,2,1.688,"false",0,21
"552",13,2,72,1,2.864,"false",1,111
"553",13,2,73,1,1.02,"false",1,101
"554",13,2,74,1,3.177,"true",0,48
"555",13,2,75,1,1.231,"true",0,58
"556",13,2,76,1,0.353,"true",0,47
"557",13,2,77,2,0.258,"true",0,14
"558",13,2,78,2,0.737,"true",1,86
"559",13,2,79,1,0.257,"true",0,55
"560",13,2,80,2,2.3,"false",1,62
"561",13,2,81,1,1.428,"true",1,100
"562",13,2,82,2,0.301,"true",0,10
"563",13,2,83,2,0.304,"true",1,63
"564",13,2,84,1,0.281,"true",1,108
"565",13,2,85,2,2.974,"true",1,82
"566",13,2,86,1,3.243,"false",1,105
"567",13,2,87,1,1.861,"true",0,51
"568",13,2,88,1,0.193,"true",1,113
"569",13,2,89,2,0.433,"true",1,64
"570",13,2,90,1,0.435,"true",1,97
"571",13,2,91,2,0.454,"true",1,90
"572",13,2,92,1,2.534,"false",1,93
"573",13,2,93,1,0.829,"true",0,31
"574",13,2,94,2,1.192,"true",1,75
"575",13,2,95,2,0.339,"false",1,77
"576",13,2,96,1,0.676,"true",0,52
"577",13,2,97,2,0.791,"true",0,17
"578",13,2,98,1,1.268,"true",0,34
"579",13,2,99,1,0.623,"true",1,104
"580",13,2,100,1,1.209,"false",0,53
"581",13,2,101,1,0.312,"true",1,103
"582",13,2,102,1,0.274,"true",1,117
"583",13,2,103,2,0.365,"true",0,19
"584",13,2,104,2,0.454,"true",1,66
"585",13,2,105,1,0.363,"true",1,102
"586",13,2,106,2,3.033,"false",0,15
"587",13,2,107,2,0.252,"true",1,68
"588",13,2,108,2,0.499,"true",0,7
"589",13,2,109,2,0.279,"true",0,27
"590",13,2,110,1,0.336,"true",1,98
"591",13,2,111,1,0.29,"true",1,106
"592",13,2,112,2,2.149,"false",0,24
"593",13,2,113,2,0.597,"true",1,72
"594",13,2,114,2,0.432,"false",1,61
"595",13,2,115,2,1.1,"false",1,85
"596",13,2,116,2,0.27,"true",1,70
"597",13,2,117,1,0.614,"false",0,39
"598",13,2,118,1,0.263,"true",0,32
"599",13,2,119,2,0.376,"true",1,84
"600",13,2,120,2,0.851,"true",0,9
"601",14,2,1,1,0.735,"true",0,106
"602",14,2,2,2,0.811,"true",0,67
"603",14,2,3,1,3.524,"true",1,42
"604",14,2,4,2,0.262,"false",0,62
"605",14,2,5,1,0.315,"true",0,111
"606",14,2,6,2,0.589,"false",1,1
"607",14,2,7,1,3.089,"false",0,119
"608",14,2,8,2,1.061,"true",1,24
"609",14,2,9,2,4.117,"true",1,4
"610",14,2,10,1,0.871,"false",1,36
"611",14,2,11,2,2.325,"true",0,77
"612",14,2,12,2,0.253,"false",0,65
"613",14,2,13,1,0.302,"false",1,37
"614",14,2,14,1,0.286,"false",0,99
"615",14,2,15,1,0.327,"true",0,104
"616",14,2,16,2,0.245,"false",1,26
"617",14,2,17,2,0.663,"false",0,69
"618",14,2,18,2,1.555,"true",1,20
"619",14,2,19,2,0.303,"false",1,22
"620",14,2,20,1,1.731,"false",1,40
"621",14,2,21,2,0.656,"true",1,18
"622",14,2,22,2,5.067,"false",0,75
"623",14,2,23,2,0.274,"false",0,86
"624",14,2,24,2,0.524,"false",1,19
"625",14,2,25,1,0.241,"false",1,35
"626",14,2,26,1,0.292,"false",0,105
"627",14,2,27,1,0.295,"true",0,107
"628",14,2,28,2,2.669,"true",1,7
"629",14,2,29,2,0.284,"false",1,9
"630",14,2,30,2,0.308,"true",0,78
"631",14,2,31,2,0.353,"false",0,73
"632",14,2,32,1,4.531,"false",1,54
"633",14,2,33,2,1.981,"false",0,64
"634",14,2,34,2,3.07,"false",1,17
"635",14,2,35,2,0.313,"false",0,87
"636",14,2,36,1,0.742,"true",1,48
"637",14,2,37,1,0.291,"false",1,32
"638",14,2,38,1,0.412,"false",1,50
"639",14,2,39,2,1.026,"true",1,14
"640",14,2,40,1,0.515,"true",1,46
"641",14,2,41,2,0.396,"false",1,28
"642",14,2,42,2,1.56,"true",0,89
"643",14,2,43,2,3.277,"true",0,83
"644",14,2,44,1,0.278,"true",0,116
"645",14,2,45,1,0.396,"false",1,41
"646",14,2,46,1,1.692,"false",0,117
"647",14,2,47,2,0.43,"true",1,13
"648",14,2,48,1,0.5,"false",1,59
"649",14,2,49,2,0.351,"false",0,63
"650",14,2,50,2,1.023,"true",1,2
"651",14,2,51,1,1.469,"true",0,91
"652",14,2,52,1,0.87,"true",0,100
"653",14,2,53,2,0.557,"false",1,8
"654",14,2,54,1,1.296,"true",1,53
"655",14,2,55,1,0.285,"false",0,115
"656",14,2,56,1,0.255,"true",1,39
"657",14,2,57,2,1.558,"true",1,10
"658",14,2,58,2,0.303,"false",1,16
"659",14,2,59,1,1.82,"false",1,45
"660",14,2,60,1,5.416,"true",0,114
"661",14,2,61,1,1.511,"false",1,47
"662",14,2,62,2,3.419,"true",0,66
"663",14,2,63,1,1.415,"false",1,38
"664",14,2,64,1,4.606,"true",0,120
"665",14,2,65,1,1.901,"false",0,101
"666",14,2,66,1,2.463,"false",0,94
"667",14,2,67,1,3.331,"false",1,49
"668",14,2,68,1,0.613,"false",0,98
"669",14,2,69,1,0.407,"true",0,109
"670",14,2,70,2,0.289,"true",0,88
"671",14,2,71,1,0.281,"false",1,33
"672",14,2,72,1,0.294,"false",1,34
"673",14,2,73,2,0.464,"false",1,25
"674",14,2,74,2,0.288,"true",0,90
"675",14,2,75,2,0.436,"false",0,71
"676",14,2,76,1,1.638,"true",0,112
"677",14,2,77,1,1.203,"true",0,92
"678",14,2,78,1,0.263,"false",0,95
"679",14,2,79,1,0.347,"false",1,55
"680",14,2,80,1,0.272,"true",0,118
"681",14,2,81,1,0.617,"true",1,56
"682",14,2,82,1,0.401,"false",1,52
"683",14,2,83,2,0.665,"false",0,74
"684",14,2,84,2,0.353,"false",1,3
"685",14,2,85,2,0.329,"true",0,70
"686",14,2,86,2,1.819,"true",0,85
"687",14,2,87,2,1.641,"false",0,61
"688",14,2,88,1,0.89,"false",0,97
"689",14,2,89,1,0.307,"false",0,108
"690",14,2,90,1,2.337,"true",0,110
"691",14,2,91,1,1.395,"false",0,93
"692",14,2,92,2,0.596,"true",0,79
"693",14,2,93,1,0.276,"true",0,113
"694",14,2,94,1,0.705,"true",0,96
"695",14,2,95,2,0.293,"true",1,23
"696",14,2,96,2,0.23,"false",0,80
"697",14,2,97,1,1.659,"false",1,44
"698",14,2,98,2,0.271,"false",1,27
"699",14,2,99,2,0.392,"false",0,81
"700",14,2,100,2,0.375,"true",0,84
"701",14,2,101,2,0.872,"false",0,68
"702",14,2,102,2,1.891,"true",1,11
"703",14,2,103,2,1.364,"false",1,5
"704",14,2,104,2,0.787,"false",0,76
"705",14,2,105,2,0.312,"true",1,30
"706",14,2,106,2,0.485,"true",1,6
"707",14,2,107,1,0.338,"false",1,51
"708",14,2,108,1,0.266,"false",0,102
"709",14,2,109,1,0.329,"true",1,58
"710",14,2,110,2,0.465,"false",1,21
"711",14,2,111,1,3.253,"true",1,57
"712",14,2,112,2,1.503,"false",0,72
"713",14,2,113,1,0.258,"true",1,60
"714",14,2,114,2,0.297,"true",1,29
"715",14,2,115,2,0.5,"false",1,15
"716",14,2,116,1,0.226,"false",1,43
"717",14,2,117,1,0.19,"false",1,31
"718",14,2,118,2,0.441,"false",1,12
"719",14,2,119,2,0.327,"true",0,82
"720",14,2,120,1,4.006,"false",0,103
"721",15,3,1,2,0.205,"true",0,82
"722",15,3,2,2,0.026,"false",0,86
"723",15,3,3,1,0.204,"true",1,35
"724",15,3,4,1,0.289,"true",0,117
"725",15,3,5,2,0.575,"false",1,28
"726",15,3,6,2,0.231,"true",1,5
"727",15,3,7,1,0.724,"false",0,111
"728",15,3,8,1,0.486,"false",0,106
"729",15,3,9,2,0.227,"true",1,16
"730",15,3,10,1,0.496,"false",0,102
"731",15,3,11,2,0.429,"false",1,7
"732",15,3,12,2,0.431,"true",1,17
"733",15,3,13,2,0.227,"true",1,12
"734",15,3,14,2,0.258,"false",1,25
"735",15,3,15,1,0.222,"true",0,119
"736",15,3,16,2,0.133,"false",0,77
"737",15,3,17,1,0.197,"false",1,46
"738",15,3,18,1,0.242,"false",0,110
"739",15,3,19,1,0.396,"false",1,36
"740",15,3,20,1,0.154,"true",0,112
"741",15,3,21,2,0.727,"true",0,67
"742",15,3,22,2,0.065,"true",0,85
"743",15,3,23,2,0.228,"false",1,22
"744",15,3,24,1,0.053,"false",1,31
"745",15,3,25,1,0.338,"true",0,95
"746",15,3,26,2,0.299,"false",0,70
"747",15,3,27,1,0.674,"false",0,97
"748",15,3,28,2,0.108,"false",1,18
"749",15,3,29,2,0.154,"true",0,76
"750",15,3,30,2,0.198,"false",1,29
"751",15,3,31,1,0.246,"false",0,99
"752",15,3,32,2,0.226,"false",0,64
"753",15,3,33,1,0.343,"false",1,43
"754",15,3,34,2,0.06,"false",0,74
"755",15,3,35,1,0.209,"false",0,108
"756",15,3,36,2,0.229,"false",0,65
"757",15,3,37,1,0.049,"true",1,54
"758",15,3,38,2,0.187,"false",0,88
"759",15,3,39,1,0.156,"true",0,103
"760",15,3,40,2,0.123,"false",1,26
"761",15,3,41,2,0.118,"false",1,14
"762",15,3,42,1,0.049,"false",1,47
"763",15,3,43,2,0.233,"false",0,71
"764",15,3,44,2,0.392,"false",1,23
"765",15,3,45,1,0.01,"false",0,94
"766",15,3,46,1,0.181,"true",1,49
"767",15,3,47,1,0.268,"true",0,115
"768",15,3,48,1,0.244,"false",0,92
"769",15,3,49,2,0.005,"false",0,61
"770",15,3,50,2,0.194,"false",1,3
"771",15,3,51,2,0.276,"false",0,87
"772",15,3,52,2,0.584,"true",1,1
"773",15,3,53,1,0.007,"true",0,120
"774",15,3,54,2,0.414,"false",0,78
"775",15,3,55,1,0.084,"false",1,39
"776",15,3,56,1,0.29,"true",0,114
"777",15,3,57,2,0.036,"false",0,80
"778",15,3,58,2,0.077,"true",0,79
"779",15,3,59,1,0.11,"false",1,32
"780",15,3,60,2,0.27,"false",0,84
"781",15,3,61,2,0.379,"false",0,63
"782",15,3,62,2,0.163,"true",1,19
"783",15,3,63,1,0.127,"true",1,60
"784",15,3,64,2,0.12,"true",0,62
"785",15,3,65,2,0.218,"false",1,30
"786",15,3,66,1,0.137,"false",0,116
"787",15,3,67,1,0.19,"false",1,38
"788",15,3,68,2,0.027,"false",1,8
"789",15,3,69,1,0.293,"true",1,52
"790",15,3,70,2,0.159,"true",1,4
"791",15,3,71,1,0.45,"true",0,100
"792",15,3,72,1,0.161,"false",1,34
"793",15,3,73,2,0.26,"true",1,2
"794",15,3,74,1,0.109,"false",1,41
"795",15,3,75,1,0.147,"false",1,55
"796",15,3,76,2,0.283,"true",0,83
"797",15,3,77,1,0.158,"false",0,93
"798",15,3,78,1,0.214,"false",0,109
"799",15,3,79,1,0.581,"false",0,96
"800",15,3,80,2,0.174,"true",1,24
"801",15,3,81,2,0.18,"false",0,90
"802",15,3,82,2,0.203,"true",0,81
"803",15,3,83,2,0.23,"true",1,10
"804",15,3,84,2,0.205,"false",0,68
"805",15,3,85,1,0.146,"true",1,56
"806",15,3,86,2,0.144,"false",0,72
"807",15,3,87,1,0.164,"false",1,40
"808",15,3,88,2,0.047,"false",1,20
"809",15,3,89,1,0.087,"true",1,53
"810",15,3,90,1,0.13,"true",0,104
"811",15,3,91,2,0.138,"true",0,69
"812",15,3,92,1,0.163,"false",0,105
"813",15,3,93,2,0.088,"false",1,11
"814",15,3,94,1,0.001,"false",1,33
"815",15,3,95,1,0.1,"false",0,98
"816",15,3,96,1,0.159,"false",1,37
"817",15,3,97,1,0.126,"true",1,51
"818",15,3,98,1,0.139,"true",0,113
"819",15,3,99,1,0.174,"true",0,118
"820",15,3,100,1,0.697,"true",0,101
"821",15,3,101,2,0.413,"true",0,75
"822",15,3,102,2,0.447,"false",1,6
"823",15,3,103,1,0.124,"false",1,59
"824",15,3,104,1,0.617,"true",1,57
"825",15,3,105,2,0.079,"false",1,15
"826",15,3,106,1,0.727,"false",1,45
"827",15,3,107,2,0.161,"true",1,21
"828",15,3,108,1,0.201,"false",1,50
"829",15,3,109,2,0.19,"false",0,73
"830",15,3,110,1,0.088,"false",1,42
"831",15,3,111,2,0.052,"false",1,9
"832",15,3,112,1,0.081,"false",1,44
"833",15,3,113,2,0.028,"false",0,89
"834",15,3,114,2,0.03,"true",0,66
"835",15,3,115,1,0.146,"true",1,58
"836",15,3,116,1,0.309,"true",0,91
"837",15,3,117,2,0.037,"false",1,13
"838",15,3,118,1,0.389,"true",0,107
"839",15,3,119,1,0.462,"true",1,48
"840",15,3,120,2,0.206,"true",1,27
"841",16,3,1,1,0.882,"false",1,35
"842",16,3,2,2,0.479,"true",0,63
"843",16,3,3,2,0.281,"false",0,89
"844",16,3,4,1,0.351,"true",0,111
"845",16,3,5,2,0.665,"true",1,20
"846",16,3,6,2,0.724,"true",1,8
"847",16,3,7,1,0.231,"false",0,102
"848",16,3,8,1,0.426,"false",0,91
"849",16,3,9,1,0.223,"true",1,50
"850",16,3,10,1,0.438,"false",1,40
"851",16,3,11,2,0.508,"false",1,9
"852",16,3,12,1,0.551,"false",1,44
"853",16,3,13,1,0.51,"true",1,47
"854",16,3,14,2,0.547,"false",0,67
"855",16,3,15,2,0.971,"true",1,28
"856",16,3,16,2,0.601,"false",1,21
"857",16,3,17,2,0.966,"true",1,25
"858",16,3,18,2,NA,NA,0,80
"859",16,3,19,1,0.558,"true",1,52
"860",16,3,20,2,0.437,"false",0,90
"861",16,3,21,2,0.706,"false",1,1
"862",16,3,22,2,0.26,"true",1,19
"863",16,3,23,1,0.606,"false",1,32
"864",16,3,24,2,0.972,"true",0,64
"865",16,3,25,2,NA,NA,0,72
"866",16,3,26,1,0.403,"false",0,108
"867",16,3,27,2,0.256,"false",1,18
"868",16,3,28,2,0.752,"true",1,7
"869",16,3,29,2,0.254,"true",0,69
"870",16,3,30,1,0.402,"false",0,112
"871",16,3,31,1,0.639,"true",0,110
"872",16,3,32,1,0.662,"true",0,116
"873",16,3,33,1,0.807,"true",1,58
"874",16,3,34,1,0.902,"true",0,118
"875",16,3,35,2,0.86,"true",1,6
"876",16,3,36,1,0.439,"true",0,119
"877",16,3,37,1,NA,NA,0,101
"878",16,3,38,2,0.485,"false",1,15
"879",16,3,39,1,0.545,"false",1,31
"880",16,3,40,1,0.52,"false",0,92
"881",16,3,41,1,0.878,"true",0,94
"882",16,3,42,2,0.617,"true",0,75
"883",16,3,43,1,NA,NA,0,97
"884",16,3,44,1,0.823,"true",1,51
"885",16,3,45,2,0.447,"true",1,16
"886",16,3,46,1,0.492,"false",0,109
"887",16,3,47,1,0.567,"true",1,39
"888",16,3,48,2,0.283,"false",0,87
"889",16,3,49,2,0.858,"true",0,76
"890",16,3,50,2,0.719,"false",1,17
"891",16,3,51,1,0.47,"false",1,36
"892",16,3,52,2,0.523,"false",0,81
"893",16,3,53,2,0.324,"false",0,77
"894",16,3,54,1,0.796,"true",1,54
"895",16,3,55,1,0.506,"false",1,53
"896",16,3,56,1,0.357,"true",1,59
"897",16,3,57,1,0.802,"false",1,33
"898",16,3,58,2,0.442,"false",0,70
"899",16,3,59,2,0.565,"false",0,88
"900",16,3,60,2,0.637,"false",0,82
"901",16,3,61,1,0.801,"true",0,120
"902",16,3,62,2,0.527,"true",0,62
"903",16,3,63,1,0.59,"false",1,46
"904",16,3,64,2,0.782,"true",1,22
"905",16,3,65,1,0.605,"false",0,100
"906",16,3,66,1,0.424,"true",1,49
"907",16,3,67,1,0.579,"false",1,43
"908",16,3,68,1,0.677,"false",1,45
"909",16,3,69,1,0.464,"false",0,93
"910",16,3,70,2,NA,NA,0,68
"911",16,3,71,2,0.4,"true",1,12
"912",16,3,72,2,0.382,"false",1,26
"913",16,3,73,2,0.295,"true",1,23
"914",16,3,74,2,0.341,"true",1,29
"915",16,3,75,1,0.635,"true",1,42
"916",16,3,76,2,0.303,"false",1,10
"917",16,3,77,2,0.598,"true",0,66
"918",16,3,78,1,0.27,"true",1,60
"919",16,3,79,1,0.282,"false",1,56
"920",16,3,80,1,0.593,"true",0,114
"921",16,3,81,2,0.758,"false",0,71
"922",16,3,82,1,0.48,"true",1,57
"923",16,3,83,2,0.532,"false",1,24
"924",16,3,84,1,0.584,"true",1,41
"925",16,3,85,2,0.771,"false",0,61
"926",16,3,86,2,0.358,"false",0,73
"927",16,3,87,1,NA,NA,0,103
"928",16,3,88,2,0.446,"false",0,78
"929",16,3,89,1,0.35,"false",1,38
"930",16,3,90,2,0.387,"true",1,13
"931",16,3,91,2,0.543,"false",0,74
"932",16,3,92,2,0.567,"true",1,5
"933",16,3,93,2,0.397,"false",1,30
"934",16,3,94,2,0.971,"false",0,84
"935",16,3,95,1,0.45,"false",0,106
"936",16,3,96,1,0.537,"false",1,55
"937",16,3,97,2,0.437,"true",1,2
"938",16,3,98,2,0.573,"true",1,27
"939",16,3,99,1,0.583,"true",0,117
"940",16,3,100,1,0.597,"false",0,105
"941",16,3,101,1,0.351,"false",0,96
"942",16,3,102,2,0.437,"false",0,65
"943",16,3,103,1,0.531,"false",1,34
"944",16,3,104,2,0.747,"true",1,3
"945",16,3,105,1,0.305,"false",0,98
"946",16,3,106,2,0.584,"false",0,79
"947",16,3,107,2,0.594,"false",0,86
"948",16,3,108,2,0.375,"false",1,14
"949",16,3,109,2,0.493,"false",1,4
"950",16,3,110,1,0.502,"true",0,115
"951",16,3,111,2,0.828,"true",0,85
"952",16,3,112,1,0.396,"true",1,48
"953",16,3,113,1,0.25,"false",1,37
"954",16,3,114,1,0.719,"true",0,104
"955",16,3,115,1,0.482,"true",0,95
"956",16,3,116,1,0.535,"true",0,113
"957",16,3,117,2,0.501,"false",1,11
"958",16,3,118,2,0.463,"true",0,83
"959",16,3,119,1,0.994,"true",0,107
"960",16,3,120,1,0.434,"false",0,99
"961",2,3,1,1,0.196,"true",1,50
"962",2,3,2,1,0.155,"true",0,118
"963",2,3,3,2,0.26,"false",1,29
"964",2,3,4,2,0.311,"true",1,10
"965",2,3,5,2,0.386,"false",0,63
"966",2,3,6,1,0.221,"false",1,43
"967",2,3,7,1,0.196,"true",1,57
"968",2,3,8,2,0.208,"true",1,30
"969",2,3,9,2,0.092,"false",1,8
"970",2,3,10,2,0.207,"true",1,22
"971",2,3,11,2,0.516,"true",0,62
"972",2,3,12,2,0.29,"false",1,26
"973",2,3,13,2,0.526,"false",0,86
"974",2,3,14,2,0.658,"false",0,66
"975",2,3,15,1,0.204,"true",1,46
"976",2,3,16,1,0.538,"true",0,109
"977",2,3,17,2,0.694,"true",0,74
"978",2,3,18,1,0.229,"false",0,93
"979",2,3,19,2,0.377,"true",0,70
"980",2,3,20,1,0.301,"true",1,49
"981",2,3,21,2,0.263,"false",1,15
"982",2,3,22,2,0.179,"true",0,80
"983",2,3,23,1,0.513,"true",0,115
"984",2,3,24,1,0.705,"true",0,108
"985",2,3,25,1,0.793,"true",0,112
"986",2,3,26,1,0.272,"true",0,116
"987",2,3,27,2,0.254,"true",1,23
"988",2,3,28,1,0.279,"false",1,35
"989",2,3,29,2,0.547,"false",0,61
"990",2,3,30,2,NA,NA,1,19
"991",2,3,31,1,0.201,"true",1,33
"992",2,3,32,2,0.241,"true",1,25
"993",2,3,33,2,0.492,"false",0,81
"994",2,3,34,1,0.283,"true",0,94
"995",2,3,35,1,0.259,"true",1,58
"996",2,3,36,2,0.31,"true",1,1
"997",2,3,37,2,0.594,"false",1,20
"998",2,3,38,1,0.41,"false",1,34
"999",2,3,39,1,0.97,"true",0,114
"1000",2,3,40,2,0.298,"false",1,28
"1001",2,3,41,1,0.443,"true",0,117
"1002",2,3,42,1,0.377,"false",0,106
"1003",2,3,43,1,0.325,"false",1,36
"1004",2,3,44,2,0.408,"false",1,21
"1005",2,3,45,2,0.593,"true",1,17
"1006",2,3,46,2,0.5,"false",1,3
"1007",2,3,47,2,0.328,"true",0,64
"1008",2,3,48,2,NA,NA,0,68
"1009",2,3,49,1,0.166,"true",0,120
"1010",2,3,50,2,0.343,"false",1,27
"1011",2,3,51,1,0.431,"true",0,99
"1012",2,3,52,1,0.309,"true",0,111
"1013",2,3,53,2,0.249,"false",0,72
"1014",2,3,54,2,0.443,"false",0,87
"1015",2,3,55,1,0.329,"false",0,103
"1016",2,3,56,1,0.252,"true",1,48
"1017",2,3,57,2,0.273,"false",1,14
"1018",2,3,58,1,0.211,"false",1,37
"1019",2,3,59,1,0.244,"false",0,92
"1020",2,3,60,2,0.299,"false",0,79
"1021",2,3,61,1,0.253,"false",1,39
"1022",2,3,62,2,0.885,"true",0,71
"1023",2,3,63,1,0.511,"true",0,100
"1024",2,3,64,1,0.263,"true",0,119
"1025",2,3,65,2,0.253,"true",1,16
"1026",2,3,66,2,0.525,"true",1,6
"1027",2,3,67,1,0.229,"true",0,95
"1028",2,3,68,1,0.379,"true",1,55
"1029",2,3,69,2,0.397,"true",1,7
"1030",2,3,70,1,0.239,"false",0,98
"1031",2,3,71,1,0.255,"true",1,51
"1032",2,3,72,1,0.257,"true",1,54
"1033",2,3,73,2,0.229,"false",1,9
"1034",2,3,74,1,0.662,"true",0,101
"1035",2,3,75,1,0.232,"true",0,104
"1036",2,3,76,2,0.233,"false",0,65
"1037",2,3,77,1,0.335,"true",1,59
"1038",2,3,78,2,0.268,"true",0,83
"1039",2,3,79,1,0.291,"true",1,60
"1040",2,3,80,2,0.777,"false",1,11
"1041",2,3,81,1,0.772,"false",1,38
"1042",2,3,82,2,0.394,"false",1,12
"1043",2,3,83,1,0.442,"false",1,53
"1044",2,3,84,2,0.225,"true",1,13
"1045",2,3,85,1,0.503,"false",0,97
"1046",2,3,86,1,0.561,"false",1,56
"1047",2,3,87,1,0.233,"true",1,40
"1048",2,3,88,1,0.244,"false",0,105
"1049",2,3,89,2,0.293,"false",0,73
"1050",2,3,90,2,0.36,"true",0,76
"1051",2,3,91,1,0.496,"false",0,113
"1052",2,3,92,1,0.23,"false",1,42
"1053",2,3,93,2,0.242,"false",0,69
"1054",2,3,94,2,0.533,"true",1,18
"1055",2,3,95,2,0.439,"false",0,88
"1056",2,3,96,2,0.233,"true",0,89
"1057",2,3,97,2,0.421,"false",0,82
"1058",2,3,98,1,0.635,"true",1,52
"1059",2,3,99,1,0.312,"true",0,107
"1060",2,3,100,2,0.492,"false",0,84
"1061",2,3,101,2,0.469,"false",0,78
"1062",2,3,102,2,0.512,"false",1,24
"1063",2,3,103,1,0.259,"true",0,91
"1064",2,3,104,2,0.678,"true",0,90
"1065",2,3,105,1,0.56,"false",0,102
"1066",2,3,106,1,0.773,"true",0,110
"1067",2,3,107,1,0.517,"true",1,31
"1068",2,3,108,1,0.323,"false",1,45
"1069",2,3,109,1,0.157,"false",1,44
"1070",2,3,110,2,0.477,"true",0,77
"1071",2,3,111,1,0.33,"true",1,47
"1072",2,3,112,1,0.409,"false",1,41
"1073",2,3,113,2,0.467,"true",0,85
"1074",2,3,114,2,0.687,"true",1,5
"1075",2,3,115,2,0.294,"false",1,4
"1076",2,3,116,2,0.945,"false",0,75
"1077",2,3,117,1,0.542,"false",1,32
"1078",2,3,118,2,0.739,"false",0,67
"1079",2,3,119,1,0.491,"true",0,96
"1080",2,3,120,2,0.349,"false",1,2
"1081",20,2,1,2,6.327,"true",1,7
"1082",20,2,2,2,0.578,"false",0,62
"1083",20,2,3,1,0.372,"false",0,95
"1084",20,2,4,1,0.374,"true",0,120
"1085",20,2,5,1,0.266,"false",1,31
"1086",20,2,6,2,3.28,"false",1,10
"1087",20,2,7,2,9.279,"true",1,13
"1088",20,2,8,2,2.082,"true",0,67
"1089",20,2,9,2,6.569,"false",0,61
"1090",20,2,10,1,0.253,"false",1,45
"1091",20,2,11,2,0.239,"true",1,8
"1092",20,2,12,1,0.317,"false",0,105
"1093",20,2,13,1,0.362,"false",1,38
"1094",20,2,14,1,0.449,"false",1,37
"1095",20,2,15,1,0.33,"true",1,60
"1096",20,2,16,1,0.389,"false",1,46
"1097",20,2,17,1,0.688,"false",0,94
"1098",20,2,18,2,0.262,"true",1,2
"1099",20,2,19,1,3.134,"false",1,34
"1100",20,2,20,1,14.171,"true",0,115
"1101",20,2,21,1,0.552,"false",1,42
"1102",20,2,22,2,0.702,"true",0,65
"1103",20,2,23,1,0.648,"false",1,43
"1104",20,2,24,2,0.936,"true",0,66
"1105",20,2,25,1,1.393,"true",1,58
"1106",20,2,26,1,5.692,"true",0,116
"1107",20,2,27,2,4.777,"true",1,19
"1108",20,2,28,2,0.403,"false",0,89
"1109",20,2,29,2,0.761,"false",0,84
"1110",20,2,30,2,2.546,"true",1,30
"1111",20,2,31,2,2.633,"true",0,74
"1112",20,2,32,2,3.439,"false",0,81
"1113",20,2,33,1,0.271,"false",0,97
"1114",20,2,34,1,0.523,"true",1,32
"1115",20,2,35,2,1.289,"false",0,64
"1116",20,2,36,1,0.499,"false",1,35
"1117",20,2,37,2,2.552,"true",0,69
"1118",20,2,38,2,2.147,"false",1,1
"1119",20,2,39,1,0.871,"true",1,55
"1120",20,2,40,1,0.436,"false",1,39
"1121",20,2,41,2,1.778,"false",0,75
"1122",20,2,42,2,2.745,"false",1,3
"1123",20,2,43,1,0.58,"false",0,92
"1124",20,2,44,1,0.637,"false",0,102
"1125",20,2,45,2,0.58,"true",0,80
"1126",20,2,46,2,0.55,"true",0,83
"1127",20,2,47,1,0.803,"true",0,113
"1128",20,2,48,2,0.874,"false",1,21
"1129",20,2,49,2,0.551,"true",1,6
"1130",20,2,50,2,3.44,"false",1,26
"1131",20,2,51,1,0.663,"true",0,119
"1132",20,2,52,2,4.28,"false",1,20
"1133",20,2,53,1,1.592,"false",0,101
"1134",20,2,54,1,1.578,"false",0,106
"1135",20,2,55,2,1.252,"true",1,25
"1136",20,2,56,2,1.645,"false",1,29
"1137",20,2,57,1,0.469,"true",1,52
"1138",20,2,58,2,6.243,"true",0,78
"1139",20,2,59,1,0.693,"false",1,41
"1140",20,2,60,2,1.045,"false",1,9
"1141",20,2,61,1,1.91,"true",1,57
"1142",20,2,62,2,0.745,"false",1,4
"1143",20,2,63,1,0.532,"true",0,118
"1144",20,2,64,1,0.325,"false",0,98
"1145",20,2,65,1,0.29,"false",1,40
"1146",20,2,66,2,4.131,"false",0,86
"1147",20,2,67,1,1.034,"true",1,48
"1148",20,2,68,2,0.44,"false",1,18
"1149",20,2,69,2,0.712,"true",0,63
"1150",20,2,70,2,2.004,"true",1,12
"1151",20,2,71,1,1.043,"true",0,109
"1152",20,2,72,2,2.192,"true",0,71
"1153",20,2,73,1,6.245,"true",1,51
"1154",20,2,74,1,0.383,"true",0,107
"1155",20,2,75,1,0.35,"false",1,47
"1156",20,2,76,1,0.677,"false",0,103
"1157",20,2,77,2,0.287,"false",0,72
"1158",20,2,78,1,1.374,"true",0,111
"1159",20,2,79,1,0.598,"false",1,44
"1160",20,2,80,1,1.87,"true",0,112
"1161",20,2,81,1,0.593,"false",0,93
"1162",20,2,82,2,0.474,"true",1,16
"1163",20,2,83,2,6.615,"false",0,87
"1164",20,2,84,2,1.367,"false",1,15
"1165",20,2,85,1,0.488,"false",0,110
"1166",20,2,86,2,0.446,"false",0,70
"1167",20,2,87,2,1.531,"false",0,88
"1168",20,2,88,1,0.45,"true",1,49
"1169",20,2,89,2,0.305,"false",0,73
"1170",20,2,90,1,0.745,"true",1,59
"1171",20,2,91,2,0.28,"true",0,85
"1172",20,2,92,1,0.868,"true",0,108
"1173",20,2,93,2,0.236,"true",0,76
"1174",20,2,94,1,2.577,"true",1,54
"1175",20,2,95,2,0.468,"false",1,28
"1176",20,2,96,1,2.846,"false",1,36
"1177",20,2,97,2,0.532,"true",1,22
"1178",20,2,98,1,0.37,"false",0,99
"1179",20,2,99,1,0.494,"true",0,114
"1180",20,2,100,2,0.316,"true",0,82
"1181",20,2,101,2,5.573,"true",0,77
"1182",20,2,102,2,0.543,"true",0,90
"1183",20,2,103,2,0.326,"true",1,23
"1184",20,2,104,2,1.726,"false",1,11
"1185",20,2,105,2,0.289,"false",1,14
"1186",20,2,106,1,0.317,"true",1,56
"1187",20,2,107,1,0.577,"false",0,100
"1188",20,2,108,2,1.066,"true",1,5
"1189",20,2,109,2,0.515,"true",0,68
"1190",20,2,110,1,0.809,"false",0,117
"1191",20,2,111,1,0.745,"true",0,104
"1192",20,2,112,1,0.296,"false",0,91
"1193",20,2,113,1,0.557,"true",1,53
"1194",20,2,114,1,3.826,"false",0,96
"1195",20,2,115,1,1.345,"false",1,33
"1196",20,2,116,2,1.039,"false",1,17
"1197",20,2,117,2,1.297,"true",0,79
"1198",20,2,118,2,1.938,"false",1,27
"1199",20,2,119,1,0.357,"true",1,50
"1200",20,2,120,2,1.116,"true",1,24
"1201",21,3,1,1,0.289,"true",1,113
"1202",21,3,2,2,0.604,"true",0,25
"1203",21,3,3,2,0.537,"false",0,23
"1204",21,3,4,1,0.591,"false",0,50
"1205",21,3,5,1,0.993,"true",1,92
"1206",21,3,6,2,0.521,"true",0,7
"1207",21,3,7,1,0.306,"true",0,47
"1208",21,3,8,2,0.214,"false",1,84
"1209",21,3,9,2,0.629,"false",1,73
"1210",21,3,10,2,0.277,"true",1,86
"1211",21,3,11,2,0.664,"false",0,12
"1212",21,3,12,1,0.605,"false",0,45
"1213",21,3,13,2,0.357,"false",1,76
"1214",21,3,14,2,0.592,"true",0,6
"1215",21,3,15,1,0.358,"false",0,53
"1216",21,3,16,2,0.432,"true",0,28
"1217",21,3,17,1,0.335,"true",1,116
"1218",21,3,18,1,NA,NA,1,112
"1219",21,3,19,2,0.585,"true",1,75
"1220",21,3,20,2,0.281,"false",1,89
"1221",21,3,21,1,0.268,"false",1,118
"1222",21,3,22,2,0.369,"false",1,70
"1223",21,3,23,2,0.27,"true",1,74
"1224",21,3,24,1,0.263,"true",1,104
"1225",21,3,25,2,0.561,"false",1,88
"1226",21,3,26,1,0.552,"true",0,46
"1227",21,3,27,1,0.407,"true",1,110
"1228",21,3,28,2,0.606,"false",0,29
"1229",21,3,29,2,0.263,"true",1,71
"1230",21,3,30,1,0.447,"false",1,98
"1231",21,3,31,2,0.292,"true",0,16
"1232",21,3,32,2,0.737,"true",1,68
"1233",21,3,33,1,0.37,"false",1,99
"1234",21,3,34,2,0.28,"true",1,77
"1235",21,3,35,1,NA,NA,0,40
"1236",21,3,36,2,0.511,"false",0,13
"1237",21,3,37,1,0.575,"true",0,43
"1238",21,3,38,2,0.772,"false",1,67
"1239",21,3,39,1,0.461,"true",1,114
"1240",21,3,40,2,0.503,"true",0,14
"1241",21,3,41,1,0.507,"true",0,55
"1242",21,3,42,1,0.469,"true",0,39
"1243",21,3,43,1,0.295,"true",0,58
"1244",21,3,44,2,0.428,"true",0,15
"1245",21,3,45,2,0.468,"false",0,8
"1246",21,3,46,1,0.427,"true",0,36
"1247",21,3,47,1,0.764,"false",0,41
"1248",21,3,48,1,0.327,"true",0,49
"1249",21,3,49,1,0.423,"true",1,109
"1250",21,3,50,2,0.685,"false",0,18
"1251",21,3,51,2,0.527,"false",1,90
"1252",21,3,52,2,NA,NA,0,1
"1253",21,3,53,1,0.657,"false",1,93
"1254",21,3,54,1,0.467,"false",0,56
"1255",21,3,55,2,0.626,"false",1,65
"1256",21,3,56,1,0.298,"true",1,91
"1257",21,3,57,1,0.72,"true",0,31
"1258",21,3,58,1,0.587,"true",1,115
"1259",21,3,59,2,0.35,"false",1,85
"1260",21,3,60,1,0.67,"false",0,44
"1261",21,3,61,2,0.727,"false",1,62
"1262",21,3,62,2,0.557,"true",0,27
"1263",21,3,63,2,0.3,"false",1,87
"1264",21,3,64,2,0.693,"false",1,69
"1265",21,3,65,1,0.323,"true",0,48
"1266",21,3,66,2,0.453,"true",0,2
"1267",21,3,67,2,0.36,"false",0,30
"1268",21,3,68,1,0.521,"true",0,51
"1269",21,3,69,2,0.471,"false",1,78
"1270",21,3,70,1,NA,NA,0,34
"1271",21,3,71,2,0.342,"false",1,64
"1272",21,3,72,2,0.296,"true",1,63
"1273",21,3,73,2,0.25,"true",1,80
"1274",21,3,74,1,0.258,"true",0,37
"1275",21,3,75,1,0.582,"false",1,100
"1276",21,3,76,2,0.916,"true",0,10
"1277",21,3,77,1,0.289,"true",0,57
"1278",21,3,78,2,0.54,"true",1,83
"1279",21,3,79,1,0.486,"false",1,111
"1280",21,3,80,1,0.465,"false",0,33
"1281",21,3,81,1,0.377,"true",1,94
"1282",21,3,82,1,0.276,"false",0,35
"1283",21,3,83,1,NA,NA,1,103
"1284",21,3,84,2,0.79,"true",0,24
"1285",21,3,85,1,0.286,"true",1,120
"1286",21,3,86,2,0.332,"false",1,79
"1287",21,3,87,1,0.527,"true",1,101
"1288",21,3,88,2,0.791,"true",1,81
"1289",21,3,89,1,0.458,"true",0,60
"1290",21,3,90,1,0.404,"false",0,32
"1291",21,3,91,2,0.725,"true",0,17
"1292",21,3,92,1,0.379,"false",0,59
"1293",21,3,93,1,0.373,"false",0,42
"1294",21,3,94,2,0.734,"false",0,19
"1295",21,3,95,2,0.718,"true",0,4
"1296",21,3,96,2,0.354,"false",1,72
"1297",21,3,97,1,NA,NA,1,97
"1298",21,3,98,2,0.525,"true",1,82
"1299",21,3,99,2,0.549,"true",0,9
"1300",21,3,100,2,0.587,"false",0,3
"1301",21,3,101,1,0.307,"false",1,106
"1302",21,3,102,2,0.652,"false",0,21
"1303",21,3,103,2,0.932,"true",0,11
"1304",21,3,104,1,0.334,"true",1,117
"1305",21,3,105,1,0.491,"true",0,52
"1306",21,3,106,1,0.347,"true",1,119
"1307",21,3,107,2,0.255,"false",0,20
"1308",21,3,108,1,0.477,"false",1,96
"1309",21,3,109,2,0.976,"true",0,5
"1310",21,3,110,1,0.695,"true",1,102
"1311",21,3,111,1,0.571,"false",0,38
"1312",21,3,112,1,0.337,"false",1,105
"1313",21,3,113,2,0.561,"true",0,26
"1314",21,3,114,2,NA,NA,1,61
"1315",21,3,115,1,0.473,"true",1,95
"1316",21,3,116,1,0.324,"true",1,108
"1317",21,3,117,1,0.33,"true",0,54
"1318",21,3,118,1,0.312,"true",1,107
"1319",21,3,119,2,0.433,"false",0,22
"1320",21,3,120,2,0.672,"true",1,66
"1321",22,3,1,1,0.691,"true",0,36
"1322",22,3,2,1,0.237,"true",0,47
"1323",22,3,3,2,0.97,"false",0,19
"1324",22,3,4,2,0.277,"true",1,70
"1325",22,3,5,2,0.231,"false",0,18
"1326",22,3,6,1,0.232,"false",1,99
"1327",22,3,7,1,0.27,"true",1,113
"1328",22,3,8,1,0.414,"false",1,92
"1329",22,3,9,2,0.288,"true",1,74
"1330",22,3,10,2,0.235,"false",1,78
"1331",22,3,11,2,0.177,"true",1,80
"1332",22,3,12,2,0.824,"false",0,30
"1333",22,3,13,1,0.196,"false",0,37
"1334",22,3,14,1,0.303,"false",1,98
"1335",22,3,15,2,0.196,"true",1,69
"1336",22,3,16,1,0.266,"false",0,43
"1337",22,3,17,2,0.391,"true",0,7
"1338",22,3,18,2,0.926,"true",1,83
"1339",22,3,19,1,0.283,"true",1,119
"1340",22,3,20,2,0.399,"false",1,75
"1341",22,3,21,1,0.249,"true",1,115
"1342",22,3,22,2,0.406,"false",0,12
"1343",22,3,23,2,NA,NA,1,61
"1344",22,3,24,2,0.231,"true",0,1
"1345",22,3,25,2,0.228,"true",1,89
"1346",22,3,26,2,0.444,"false",1,82
"1347",22,3,27,2,0.26,"true",0,11
"1348",22,3,28,1,0.219,"false",1,107
"1349",22,3,29,1,0.307,"true",0,55
"1350",22,3,30,2,0.281,"false",0,8
"1351",22,3,31,1,0.221,"true",0,53
"1352",22,3,32,2,0.351,"true",1,85
"1353",22,3,33,1,0.211,"true",0,48
"1354",22,3,34,1,0.577,"false",0,33
"1355",22,3,35,1,0.252,"true",1,96
"1356",22,3,36,2,0.227,"true",0,9
"1357",22,3,37,1,0.369,"true",0,56
"1358",22,3,38,2,0.218,"true",0,24
"1359",22,3,39,1,0.391,"false",1,93
"1360",22,3,40,1,0.34,"true",0,60
"1361",22,3,41,2,0.512,"false",0,17
"1362",22,3,42,1,0.612,"false",1,104
"1363",22,3,43,1,0.562,"false",1,110
"1364",22,3,44,1,0.63,"true",1,101
"1365",22,3,45,2,0.674,"false",0,3
"1366",22,3,46,1,0.332,"true",0,54
"1367",22,3,47,1,0.248,"true",0,40
"1368",22,3,48,1,0.295,"true",0,52
"1369",22,3,49,1,0.716,"true",0,45
"1370",22,3,50,2,0.358,"true",0,10
"1371",22,3,51,2,0.641,"false",0,16
"1372",22,3,52,1,0.244,"false",0,34
"1373",22,3,53,1,0.347,"false",0,39
"1374",22,3,54,1,0.225,"true",0,59
"1375",22,3,55,1,0.663,"true",0,46
"1376",22,3,56,2,0.272,"false",0,13
"1377",22,3,57,2,0.327,"true",1,66
"1378",22,3,58,1,0.275,"true",1,120
"1379",22,3,59,1,0.227,"false",0,42
"1380",22,3,60,2,0.217,"true",0,26
"1381",22,3,61,2,0.514,"false",1,67
"1382",22,3,62,2,0.247,"true",1,77
"1383",22,3,63,1,0.363,"true",1,112
"1384",22,3,64,1,0.294,"false",1,111
"1385",22,3,65,1,0.342,"true",1,114
"1386",22,3,66,1,0.659,"true",0,51
"1387",22,3,67,2,0.435,"true",0,4
"1388",22,3,68,1,0.397,"true",1,95
"1389",22,3,69,1,0.256,"true",1,97
"1390",22,3,70,2,0.517,"false",0,14
"1391",22,3,71,2,0.337,"true",1,79
"1392",22,3,72,2,0.342,"false",1,72
"1393",22,3,73,2,0.253,"true",1,87
"1394",22,3,74,1,0.829,"true",1,117
"1395",22,3,75,2,0.614,"true",0,27
"1396",22,3,76,2,0.358,"true",0,25
"1397",22,3,77,2,0.265,"false",1,76
"1398",22,3,78,2,0.742,"true",1,81
"1399",22,3,79,1,0.264,"true",1,108
"1400",22,3,80,1,0.324,"false",1,100
"1401",22,3,81,1,0.328,"false",1,103
"1402",22,3,82,2,0.854,"false",0,6
"1403",22,3,83,1,0.223,"true",0,57
"1404",22,3,84,2,0.328,"true",1,68
"1405",22,3,85,2,0.408,"true",1,88
"1406",22,3,86,1,0.488,"true",1,118
"1407",22,3,87,1,0.223,"false",0,41
"1408",22,3,88,2,0.286,"false",1,73
"1409",22,3,89,1,0.214,"true",1,91
"1410",22,3,90,2,0.22,"true",0,21
"1411",22,3,91,2,0.338,"false",0,5
"1412",22,3,92,2,0.289,"false",0,23
"1413",22,3,93,2,0.25,"true",1,86
"1414",22,3,94,1,0.255,"true",1,102
"1415",22,3,95,1,0.556,"false",1,105
"1416",22,3,96,1,0.216,"true",0,49
"1417",22,3,97,2,0.37,"true",0,20
"1418",22,3,98,1,0.277,"true",1,116
"1419",22,3,99,2,NA,NA,0,15
"1420",22,3,100,1,0.465,"true",0,38
"1421",22,3,101,2,0.247,"true",0,28
"1422",22,3,102,2,0.205,"false",1,63
"1423",22,3,103,2,0.275,"true",1,62
"1424",22,3,104,1,0.289,"true",1,106
"1425",22,3,105,1,0.667,"true",0,58
"1426",22,3,106,2,0.268,"true",1,65
"1427",22,3,107,2,0.316,"false",0,29
"1428",22,3,108,1,0.388,"false",0,31
"1429",22,3,109,2,0.286,"true",1,64
"1430",22,3,110,2,0.186,"true",1,90
"1431",22,3,111,2,0.794,"false",0,2
"1432",22,3,112,1,0.226,"true",0,50
"1433",22,3,113,1,0.244,"true",1,94
"1434",22,3,114,2,0.425,"true",0,22
"1435",22,3,115,1,0.293,"true",0,32
"1436",22,3,116,1,0.521,"true",0,44
"1437",22,3,117,2,0.344,"false",1,84
"1438",22,3,118,1,0.686,"false",0,35
"1439",22,3,119,1,0.289,"false",1,109
"1440",22,3,120,2,0.25,"true",1,71
"1441",23,3,1,1,0.23,"true",0,120
"1442",23,3,2,2,0.204,"true",1,24
"1443",23,3,3,1,0.317,"true",1,55
"1444",23,3,4,1,0.234,"false",1,51
"1445",23,3,5,1,0.239,"false",1,37
"1446",23,3,6,1,0.278,"true",0,104
"1447",23,3,7,2,0.429,"true",1,2
"1448",23,3,8,1,0.302,"true",1,52
"1449",23,3,9,2,0.408,"false",0,75
"1450",23,3,10,2,0.422,"false",0,89
"1451",23,3,11,2,0.319,"false",1,16
"1452",23,3,12,2,0.263,"false",1,25
"1453",23,3,13,2,0.328,"true",1,11
"1454",23,3,14,2,0.256,"true",0,69
"1455",23,3,15,2,0.307,"true",0,73
"1456",23,3,16,2,0.585,"true",0,79
"1457",23,3,17,1,0.353,"true",0,117
"1458",23,3,18,2,0.326,"false",0,74
"1459",23,3,19,2,0.311,"false",1,19
"1460",23,3,20,1,0.034,"false",1,31
"1461",23,3,21,1,0.41,"true",0,114
"1462",23,3,22,2,0.443,"true",0,83
"1463",23,3,23,1,0.495,"false",1,33
"1464",23,3,24,1,0.159,"false",1,43
"1465",23,3,25,1,0.28,"false",0,96
"1466",23,3,26,1,0.4,"true",1,45
"1467",23,3,27,1,0.289,"true",1,53
"1468",23,3,28,1,0.423,"true",0,97
"1469",23,3,29,2,0.237,"false",1,1
"1470",23,3,30,2,0.62,"false",0,65
"1471",23,3,31,1,0.679,"true",0,94
"1472",23,3,32,1,0.268,"false",1,35
"1473",23,3,33,1,0.327,"true",1,47
"1474",23,3,34,2,0.262,"false",1,30
"1475",23,3,35,2,0.567,"false",0,72
"1476",23,3,36,1,0.407,"true",0,108
"1477",23,3,37,1,0.378,"false",0,92
"1478",23,3,38,2,0.809,"true",1,26
"1479",23,3,39,1,0.247,"true",1,60
"1480",23,3,40,2,0.255,"false",1,23
"1481",23,3,41,2,0.325,"true",0,82
"1482",23,3,42,1,0.594,"false",1,46
"1483",23,3,43,1,0.229,"true",1,49
"1484",23,3,44,1,0.183,"false",1,32
"1485",23,3,45,2,0.14,"true",1,8
"1486",23,3,46,1,0.447,"false",0,111
"1487",23,3,47,2,0.906,"false",0,90
"1488",23,3,48,2,0.235,"true",1,9
"1489",23,3,49,1,0.326,"true",1,36
"1490",23,3,50,1,0.29,"true",0,116
"1491",23,3,51,2,0.547,"true",0,68
"1492",23,3,52,1,0.342,"false",1,48
"1493",23,3,53,1,0.461,"true",0,98
"1494",23,3,54,1,0.985,"false",0,112
"1495",23,3,55,2,0.49,"false",1,27
"1496",23,3,56,1,0.732,"true",0,115
"1497",23,3,57,1,0.589,"true",0,106
"1498",23,3,58,2,0.924,"true",0,62
"1499",23,3,59,2,0.316,"false",1,18
"1500",23,3,60,1,0.32,"true",1,57
"1501",23,3,61,2,0.655,"true",0,84
"1502",23,3,62,1,0.635,"false",0,105
"1503",23,3,63,1,0.286,"true",1,54
"1504",23,3,64,1,0.896,"false",0,110
"1505",23,3,65,1,NA,NA,0,101
"1506",23,3,66,1,0.292,"false",1,38
"1507",23,3,67,1,0.176,"false",1,44
"1508",23,3,68,1,0.52,"false",0,100
"1509",23,3,69,1,0.348,"true",0,113
"1510",23,3,70,1,0.775,"true",0,107
"1511",23,3,71,2,0.324,"false",0,87
"1512",23,3,72,2,0.812,"true",1,10
"1513",23,3,73,2,0.715,"true",0,80
"1514",23,3,74,1,0.72,"false",0,99
"1515",23,3,75,1,0.411,"true",0,102
"1516",23,3,76,2,0.182,"false",1,13
"1517",23,3,77,2,0.313,"true",1,7
"1518",23,3,78,2,0.801,"true",0,88
"1519",23,3,79,1,0.407,"true",1,59
"1520",23,3,80,2,0.555,"false",0,67
"1521",23,3,81,2,0.334,"false",0,86
"1522",23,3,82,1,0.897,"true",1,39
"1523",23,3,83,2,0.279,"true",1,20
"1524",23,3,84,1,0.887,"false",0,109
"1525",23,3,85,1,0.621,"true",1,42
"1526",23,3,86,2,NA,NA,0,61
"1527",23,3,87,1,0.23,"false",1,34
"1528",23,3,88,2,0.888,"false",1,6
"1529",23,3,89,2,0.246,"false",1,4
"1530",23,3,90,2,0.603,"false",0,81
"1531",23,3,91,2,0.242,"true",1,22
"1532",23,3,92,2,0.319,"false",0,77
"1533",23,3,93,1,0.532,"true",0,91
"1534",23,3,94,1,0.703,"true",0,118
"1535",23,3,95,1,0.931,"true",0,103
"1536",23,3,96,1,0.3,"true",0,119
"1537",23,3,97,1,0.225,"false",1,40
"1538",23,3,98,1,0.486,"true",1,50
"1539",23,3,99,2,0.435,"true",1,5
"1540",23,3,100,1,0.51,"true",1,56
"1541",23,3,101,2,0.502,"true",0,71
"1542",23,3,102,2,0.452,"false",0,85
"1543",23,3,103,2,0.415,"true",1,3
"1544",23,3,104,2,0.457,"false",1,29
"1545",23,3,105,2,0.782,"true",0,64
"1546",23,3,106,2,0.338,"false",1,17
"1547",23,3,107,1,0.522,"true",0,93
"1548",23,3,108,2,0.573,"true",0,76
"1549",23,3,109,2,0.408,"false",0,66
"1550",23,3,110,2,0.273,"false",1,28
"1551",23,3,111,1,0.428,"false",0,95
"1552",23,3,112,2,0.665,"true",1,12
"1553",23,3,113,2,0.765,"true",0,70
"1554",23,3,114,2,0.302,"false",1,21
"1555",23,3,115,2,0.218,"true",1,15
"1556",23,3,116,1,0.409,"false",1,41
"1557",23,3,117,2,0.288,"false",1,14
"1558",23,3,118,1,0.319,"true",1,58
"1559",23,3,119,2,0.905,"true",0,63
"1560",23,3,120,2,0.402,"false",0,78
"1561",24,3,1,1,0.216,"true",1,119
"1562",24,3,2,1,0.622,"false",0,44
"1563",24,3,3,2,0.714,"true",1,81
"1564",24,3,4,2,0.523,"true",0,30
"1565",24,3,5,2,0.49,"false",0,11
"1566",24,3,6,1,0.659,"false",1,112
"1567",24,3,7,2,0.505,"true",1,63
"1568",24,3,8,2,0.482,"false",0,23
"1569",24,3,9,2,0.658,"false",0,8
"1570",24,3,10,2,0.346,"true",0,20
"1571",24,3,11,1,0.605,"false",0,41
"1572",24,3,12,1,0.271,"true",1,114
"1573",24,3,13,1,0.167,"true",1,113
"1574",24,3,14,2,0.264,"false",0,22
"1575",24,3,15,2,0.663,"false",0,7
"1576",24,3,16,1,0.356,"true",0,50
"1577",24,3,17,2,0.26,"false",0,21
"1578",24,3,18,2,0.775,"true",0,3
"1579",24,3,19,1,0.622,"false",1,102
"1580",24,3,20,2,0.22,"false",0,18
"1581",24,3,21,1,0.193,"false",0,37
"1582",24,3,22,2,0.263,"false",0,1
"1583",24,3,23,1,0.269,"true",1,120
"1584",24,3,24,1,0.175,"true",1,118
"1585",24,3,25,1,0.248,"false",1,96
"1586",24,3,26,1,0.286,"false",1,100
"1587",24,3,27,1,0.322,"true",0,39
"1588",24,3,28,2,0.424,"false",0,12
"1589",24,3,29,1,0.243,"true",0,48
"1590",24,3,30,2,0.306,"false",0,24
"1591",24,3,31,2,0.254,"false",0,9
"1592",24,3,32,1,0.273,"false",0,32
"1593",24,3,33,1,0.496,"true",0,57
"1594",24,3,34,1,0.223,"false",0,40
"1595",24,3,35,2,0.223,"false",1,76
"1596",24,3,36,1,0.229,"true",0,53
"1597",24,3,37,1,0.484,"false",1,106
"1598",24,3,38,2,0.257,"true",0,28
"1599",24,3,39,1,0.346,"false",0,31
"1600",24,3,40,2,NA,NA,0,2
"1601",24,3,41,2,0.276,"true",1,70
"1602",24,3,42,2,0.324,"false",1,85
"1603",24,3,43,2,0.243,"false",1,88
"1604",24,3,44,1,0.249,"true",0,56
"1605",24,3,45,1,0.636,"false",1,104
"1606",24,3,46,1,0.199,"false",1,98
"1607",24,3,47,1,0.194,"true",1,107
"1608",24,3,48,2,0.211,"false",0,5
"1609",24,3,49,1,0.407,"false",0,42
"1610",24,3,50,1,0.642,"true",0,52
"1611",24,3,51,2,0.451,"false",0,6
"1612",24,3,52,1,0.483,"false",0,38
"1613",24,3,53,1,0.247,"true",0,55
"1614",24,3,54,2,0.686,"false",1,66
"1615",24,3,55,2,0.322,"true",1,80
"1616",24,3,56,1,0.439,"true",0,49
"1617",24,3,57,2,0.34,"false",1,90
"1618",24,3,58,1,0.215,"false",1,97
"1619",24,3,59,1,0.193,"true",0,60
"1620",24,3,60,1,0.603,"true",1,92
"1621",24,3,61,2,0.31,"false",1,84
"1622",24,3,62,2,0.281,"false",1,68
"1623",24,3,63,1,0.214,"true",1,111
"1624",24,3,64,1,0.196,"false",1,95
"1625",24,3,65,2,0.181,"false",0,19
"1626",24,3,66,2,0.923,"true",1,75
"1627",24,3,67,2,0.188,"true",1,89
"1628",24,3,68,2,0.28,"false",1,86
"1629",24,3,69,1,0.841,"false",0,51
"1630",24,3,70,2,0.474,"false",1,72
"1631",24,3,71,2,0.245,"false",0,10
"1632",24,3,72,2,0.199,"true",1,71
"1633",24,3,73,2,0.724,"false",0,4
"1634",24,3,74,2,0.218,"false",1,65
"1635",24,3,75,1,0.235,"true",1,116
"1636",24,3,76,2,0.215,"true",0,26
"1637",24,3,77,2,0.198,"true",1,77
"1638",24,3,78,2,0.478,"false",0,25
"1639",24,3,79,1,0.191,"false",0,59
"1640",24,3,80,2,0.246,"true",1,73
"1641",24,3,81,1,0.307,"false",1,105
"1642",24,3,82,1,0.291,"true",0,54
"1643",24,3,83,1,0.555,"false",0,47
"1644",24,3,84,2,0.254,"false",1,61
"1645",24,3,85,2,0.223,"false",0,13
"1646",24,3,86,1,0.211,"true",1,108
"1647",24,3,87,2,0.208,"false",1,87
"1648",24,3,88,1,0.293,"true",0,46
"1649",24,3,89,1,0.206,"false",0,35
"1650",24,3,90,1,0.188,"false",1,109
"1651",24,3,91,2,0.342,"true",1,74
"1652",24,3,92,2,0.193,"false",1,82
"1653",24,3,93,2,0.162,"false",1,79
"1654",24,3,94,2,0.274,"true",0,16
"1655",24,3,95,1,0.414,"false",1,110
"1656",24,3,96,1,0.394,"false",0,34
"1657",24,3,97,1,0.369,"false",0,33
"1658",24,3,98,2,0.466,"false",0,14
"1659",24,3,99,2,0.265,"false",1,69
"1660",24,3,100,1,0.72,"false",1,103
"1661",24,3,101,1,0.215,"true",1,101
"1662",24,3,102,1,0.336,"false",1,91
"1663",24,3,103,1,0.753,"true",0,45
"1664",24,3,104,2,0.256,"false",1,62
"1665",24,3,105,1,0.892,"false",0,58
"1666",24,3,106,1,0.673,"false",1,117
"1667",24,3,107,1,0.305,"true",1,115
"1668",24,3,108,2,0.362,"true",1,83
"1669",24,3,109,1,0.385,"false",0,43
"1670",24,3,110,2,0.707,"true",0,29
"1671",24,3,111,2,0.24,"false",0,27
"1672",24,3,112,2,0.211,"false",1,67
"1673",24,3,113,1,0.589,"false",0,36
"1674",24,3,114,2,0.205,"false",1,78
"1675",24,3,115,1,0.399,"false",1,94
"1676",24,3,116,2,0.511,"false",0,15
"1677",24,3,117,2,0.3,"true",1,64
"1678",24,3,118,2,0.227,"true",0,17
"1679",24,3,119,1,0.215,"false",1,93
"1680",24,3,120,1,0.214,"false",1,99
"1681",25,2,1,1,0.45,"true",1,48
"1682",25,2,2,1,0.415,"true",0,117
"1683",25,2,3,1,0.443,"true",0,120
"1684",25,2,4,1,0.905,"false",1,52
"1685",25,2,5,2,0.388,"false",0,86
"1686",25,2,6,2,1.714,"false",0,65
"1687",25,2,7,1,0.432,"true",0,110
"1688",25,2,8,2,0.994,"true",0,75
"1689",25,2,9,1,0.512,"false",0,102
"1690",25,2,10,2,1.468,"false",1,7
"1691",25,2,11,1,0.483,"false",1,34
"1692",25,2,12,2,0.601,"true",0,80
"1693",25,2,13,2,0.359,"true",0,77
"1694",25,2,14,2,0.39,"false",1,25
"1695",25,2,15,1,0.429,"true",0,100
"1696",25,2,16,1,0.486,"true",0,115
"1697",25,2,17,2,0.38,"true",1,19
"1698",25,2,18,2,0.497,"false",0,84
"1699",25,2,19,2,0.508,"false",1,29
"1700",25,2,20,1,0.412,"false",1,37
"1701",25,2,21,1,0.322,"true",1,57
"1702",25,2,22,2,1.025,"false",1,11
"1703",25,2,23,2,0.848,"true",0,61
"1704",25,2,24,2,0.541,"false",0,72
"1705",25,2,25,2,0.713,"false",0,89
"1706",25,2,26,1,0.398,"true",1,41
"1707",25,2,27,1,0.379,"false",1,44
"1708",25,2,28,2,0.42,"true",1,24
"1709",25,2,29,2,0.519,"true",1,21
"1710",25,2,30,1,1.644,"true",0,101
"1711",25,2,31,1,0.312,"true",1,49
"1712",25,2,32,1,0.356,"true",0,106
"1713",25,2,33,1,0.373,"false",0,91
"1714",25,2,34,1,0.435,"true",0,107
"1715",25,2,35,2,0.331,"false",1,4
"1716",25,2,36,1,0.441,"true",1,46
"1717",25,2,37,2,0.413,"false",0,64
"1718",25,2,38,2,0.414,"false",1,8
"1719",25,2,39,2,0.506,"true",1,5
"1720",25,2,40,2,0.435,"true",1,14
"1721",25,2,41,1,0.334,"false",1,39
"1722",25,2,42,2,0.318,"false",1,9
"1723",25,2,43,2,0.713,"false",0,74
"1724",25,2,44,2,0.336,"false",0,81
"1725",25,2,45,2,0.382,"true",0,69
"1726",25,2,46,2,0.613,"true",1,28
"1727",25,2,47,1,0.361,"true",1,40
"1728",25,2,48,1,1.889,"true",0,108
"1729",25,2,49,1,0.445,"true",1,58
"1730",25,2,50,1,0.48,"true",0,119
"1731",25,2,51,2,0.354,"true",0,63
"1732",25,2,52,2,0.348,"false",0,82
"1733",25,2,53,2,0.62,"false",1,17
"1734",25,2,54,2,0.361,"false",1,27
"1735",25,2,55,2,0.48,"true",1,12
"1736",25,2,56,2,0.364,"true",0,85
"1737",25,2,57,1,0.425,"true",1,53
"1738",25,2,58,2,0.508,"true",1,18
"1739",25,2,59,1,1.523,"true",1,50
"1740",25,2,60,2,2.263,"false",1,3
"1741",25,2,61,1,1.638,"true",1,56
"1742",25,2,62,1,0.419,"true",0,113
"1743",25,2,63,1,1.624,"true",0,95
"1744",25,2,64,1,0.352,"false",1,33
"1745",25,2,65,1,0.797,"false",1,36
"1746",25,2,66,2,2.125,"true",0,87
"1747",25,2,67,2,1.511,"true",1,6
"1748",25,2,68,1,0.991,"true",0,118
"1749",25,2,69,1,0.717,"true",0,114
"1750",25,2,70,2,0.37,"true",0,71
"1751",25,2,71,2,0.354,"true",0,66
"1752",25,2,72,2,0.461,"false",0,67
"1753",25,2,73,2,0.452,"true",0,79
"1754",25,2,74,1,0.528,"false",0,97
"1755",25,2,75,1,0.421,"true",1,59
"1756",25,2,76,1,0.539,"false",1,42
"1757",25,2,77,2,0.426,"true",0,88
"1758",25,2,78,1,1.254,"true",0,112
"1759",25,2,79,1,0.445,"true",1,60
"1760",25,2,80,1,1.226,"false",0,104
"1761",25,2,81,2,0.67,"false",0,62
"1762",25,2,82,2,0.68,"false",0,78
"1763",25,2,83,2,1.332,"true",0,68
"1764",25,2,84,1,0.538,"true",1,54
"1765",25,2,85,1,1.074,"false",0,111
"1766",25,2,86,1,0.5,"false",1,38
"1767",25,2,87,2,0.487,"true",1,16
"1768",25,2,88,1,0.912,"false",0,93
"1769",25,2,89,1,0.467,"false",1,45
"1770",25,2,90,2,0.335,"false",1,20
"1771",25,2,91,2,0.646,"true",0,83
"1772",25,2,92,1,1.283,"false",1,55
"1773",25,2,93,2,0.343,"true",1,13
"1774",25,2,94,2,0.332,"true",1,10
"1775",25,2,95,1,0.346,"true",1,32
"1776",25,2,96,1,0.447,"false",0,98
"1777",25,2,97,1,0.387,"false",0,105
"1778",25,2,98,2,0.401,"false",1,1
"1779",25,2,99,2,0.382,"true",1,2
"1780",25,2,100,2,1.29,"false",1,30
"1781",25,2,101,1,2.309,"false",1,35
"1782",25,2,102,2,3.419,"false",0,73
"1783",25,2,103,1,0.38,"true",0,103
"1784",25,2,104,1,1.916,"false",0,96
"1785",25,2,105,1,0.348,"true",1,47
"1786",25,2,106,2,0.421,"true",0,90
"1787",25,2,107,1,0.486,"true",1,51
"1788",25,2,108,1,0.306,"true",0,116
"1789",25,2,109,1,0.34,"true",0,94
"1790",25,2,110,2,1.262,"false",0,76
"1791",25,2,111,1,0.42,"false",1,43
"1792",25,2,112,2,0.686,"true",1,23
"1793",25,2,113,1,0.289,"false",1,31
"1794",25,2,114,2,2.108,"false",0,70
"1795",25,2,115,2,0.328,"true",1,26
"1796",25,2,116,1,0.354,"false",0,99
"1797",25,2,117,1,0.833,"true",0,109
"1798",25,2,118,2,7.749,"false",1,15
"1799",25,2,119,2,0.482,"false",1,22
"1800",25,2,120,1,0.729,"true",0,92
"1801",28,2,1,1,4.01,"true",1,54
"1802",28,2,2,2,2.804,"true",0,80
"1803",28,2,3,1,6.471,"true",1,56
"1804",28,2,4,1,8.001,"true",0,93
"1805",28,2,5,2,0.624,"true",0,66
"1806",28,2,6,2,6.641,"false",1,1
"1807",28,2,7,2,0.774,"true",1,9
"1808",28,2,8,1,1.659,"true",1,31
"1809",28,2,9,1,2.02,"true",1,50
"1810",28,2,10,2,2.611,"true",0,67
"1811",28,2,11,1,0.956,"false",1,43
"1812",28,2,12,2,6.012,"true",1,15
"1813",28,2,13,1,1.149,"true",0,118
"1814",28,2,14,2,3.093,"false",1,21
"1815",28,2,15,1,1.279,"false",0,107
"1816",28,2,16,1,2.26,"false",0,113
"1817",28,2,17,1,3.801,"true",1,52
"1818",28,2,18,1,0.648,"false",1,49
"1819",28,2,19,2,2.309,"false",0,78
"1820",28,2,20,2,0.742,"true",1,20
"1821",28,2,21,2,1.136,"false",0,81
"1822",28,2,22,1,0.603,"true",1,48
"1823",28,2,23,2,2.957,"true",0,76
"1824",28,2,24,2,0.915,"true",1,14
"1825",28,2,25,1,3.047,"true",0,116
"1826",28,2,26,1,1.194,"true",0,120
"1827",28,2,27,1,3.378,"false",0,106
"1828",28,2,28,2,0.825,"false",1,28
"1829",28,2,29,2,3.942,"true",1,24
"1830",28,2,30,2,4.172,"false",0,68
"1831",28,2,31,2,7.35,"false",1,4
"1832",28,2,32,2,4.215,"true",0,82
"1833",28,2,33,2,3.106,"true",0,65
"1834",28,2,34,1,0.942,"false",1,32
"1835",28,2,35,2,3.317,"true",0,71
"1836",28,2,36,2,2.878,"false",0,86
"1837",28,2,37,2,0.901,"false",0,70
"1838",28,2,38,1,7.551,"true",1,46
"1839",28,2,39,1,2.343,"true",0,100
"1840",28,2,40,1,5.846,"true",1,57
"1841",28,2,41,1,1.446,"true",0,109
"1842",28,2,42,2,1.072,"true",1,18
"1843",28,2,43,2,5.035,"true",1,30
"1844",28,2,44,2,1.249,"false",0,69
"1845",28,2,45,1,2.95,"true",1,47
"1846",28,2,46,2,1.447,"false",1,3
"1847",28,2,47,1,1.668,"true",1,60
"1848",28,2,48,2,1.341,"true",0,88
"1849",28,2,49,2,1.224,"true",1,13
"1850",28,2,50,2,1.404,"true",1,26
"1851",28,2,51,2,1.19,"true",0,90
"1852",28,2,52,1,4.997,"false",0,96
"1853",28,2,53,1,3.858,"false",1,42
"1854",28,2,54,1,5.617,"false",0,97
"1855",28,2,55,1,0.892,"true",1,58
"1856",28,2,56,2,1.098,"false",1,17
"1857",28,2,57,2,0.671,"true",1,29
"1858",28,2,58,2,2.266,"true",1,19
"1859",28,2,59,2,1.318,"false",1,2
"1860",28,2,60,1,2.536,"false",0,111
"1861",28,2,61,1,4.269,"false",1,33
"1862",28,2,62,2,5.6,"true",0,85
"1863",28,2,63,1,1.263,"false",0,105
"1864",28,2,64,1,0.725,"true",1,53
"1865",28,2,65,2,0.783,"false",0,79
"1866",28,2,66,1,4.6,"true",1,34
"1867",28,2,67,1,0.827,"false",1,39
"1868",28,2,68,1,0.611,"true",1,55
"1869",28,2,69,1,3.755,"false",0,104
"1870",28,2,70,2,0.693,"true",1,11
"1871",28,2,71,1,0.774,"true",1,37
"1872",28,2,72,2,1.909,"false",1,10
"1873",28,2,73,2,7.045,"false",1,25
"1874",28,2,74,1,0.527,"true",0,119
"1875",28,2,75,1,4.715,"true",0,117
"1876",28,2,76,2,3.314,"false",0,72
"1877",28,2,77,2,1.351,"false",1,23
"1878",28,2,78,2,4.047,"false",0,75
"1879",28,2,79,2,2.594,"true",1,7
"1880",28,2,80,1,2.684,"true",0,92
"1881",28,2,81,2,0.362,"false",1,8
"1882",28,2,82,2,4.458,"false",0,89
"1883",28,2,83,1,0.735,"true",0,112
"1884",28,2,84,2,2.882,"false",0,63
"1885",28,2,85,1,5.813,"true",1,38
"1886",28,2,86,2,0.529,"false",0,73
"1887",28,2,87,1,2.34,"false",1,40
"1888",28,2,88,2,0.873,"true",1,5
"1889",28,2,89,1,2.991,"true",0,94
"1890",28,2,90,2,4.839,"false",0,61
"1891",28,2,91,2,2.564,"true",0,74
"1892",28,2,92,1,1.281,"true",1,59
"1893",28,2,93,1,2.4,"false",1,35
"1894",28,2,94,1,3.442,"true",0,110
"1895",28,2,95,1,0.541,"false",0,95
"1896",28,2,96,1,2.171,"false",0,98
"1897",28,2,97,2,9.948,"false",0,87
"1898",28,2,98,1,12.257,"false",1,44
"1899",28,2,99,2,0.598,"true",0,62
"1900",28,2,100,1,0.728,"false",0,91
"1901",28,2,101,2,0.991,"true",0,84
"1902",28,2,102,1,4.173,"false",0,99
"1903",28,2,103,2,1.345,"true",1,27
"1904",28,2,104,1,1.896,"false",1,36
"1905",28,2,105,2,1.146,"true",1,12
"1906",28,2,106,1,7.237,"false",1,51
"1907",28,2,107,2,1.868,"true",1,16
"1908",28,2,108,1,0.544,"true",0,108
"1909",28,2,109,1,1.252,"false",1,41
"1910",28,2,110,2,0.537,"false",0,64
"1911",28,2,111,2,0.517,"true",1,6
"1912",28,2,112,2,0.481,"true",0,77
"1913",28,2,113,1,2.873,"false",1,45
"1914",28,2,114,1,2.611,"true",0,114
"1915",28,2,115,1,1.712,"false",0,102
"1916",28,2,116,1,2.204,"false",0,101
"1917",28,2,117,2,0.543,"true",1,22
"1918",28,2,118,1,2.955,"false",0,103
"1919",28,2,119,1,0.942,"true",0,115
"1920",28,2,120,2,1.734,"true",0,83
"1921",29,3,1,2,0.21,"true",0,18
"1922",29,3,2,1,0.259,"true",0,52
"1923",29,3,3,2,0.275,"false",0,17
"1924",29,3,4,2,0.197,"true",0,9
"1925",29,3,5,2,0.366,"false",0,27
"1926",29,3,6,1,0.225,"true",0,38
"1927",29,3,7,2,0.539,"true",0,10
"1928",29,3,8,1,0.277,"false",0,31
"1929",29,3,9,1,0.341,"true",1,94
"1930",29,3,10,1,0.604,"false",1,109
"1931",29,3,11,2,0.288,"true",1,71
"1932",29,3,12,1,0.757,"true",0,45
"1933",29,3,13,1,0.22,"true",1,104
"1934",29,3,14,1,0.265,"true",1,96
"1935",29,3,15,1,0.68,"false",1,101
"1936",29,3,16,1,0.228,"false",0,55
"1937",29,3,17,1,0.226,"true",0,59
"1938",29,3,18,1,0.272,"true",1,106
"1939",29,3,19,2,0.199,"false",1,65
"1940",29,3,20,2,0.376,"false",1,62
"1941",29,3,21,1,0.269,"false",0,33
"1942",29,3,22,2,0.354,"false",1,68
"1943",29,3,23,2,0.707,"true",0,2
"1944",29,3,24,1,0.502,"true",1,118
"1945",29,3,25,2,0.245,"false",1,81
"1946",29,3,26,2,0.277,"false",1,87
"1947",29,3,27,2,0.471,"true",1,83
"1948",29,3,28,1,0.253,"false",1,103
"1949",29,3,29,2,0.33,"false",1,63
"1950",29,3,30,1,NA,NA,0,57
"1951",29,3,31,1,0.397,"false",0,37
"1952",29,3,32,1,0.256,"true",0,35
"1953",29,3,33,2,0.214,"true",0,20
"1954",29,3,34,2,0.245,"false",0,14
"1955",29,3,35,1,0.264,"true",1,119
"1956",29,3,36,1,0.249,"true",0,46
"1957",29,3,37,1,0.277,"false",1,99
"1958",29,3,38,2,0.291,"true",1,85
"1959",29,3,39,1,0.263,"false",1,91
"1960",29,3,40,2,0.881,"false",0,3
"1961",29,3,41,2,0.369,"false",1,89
"1962",29,3,42,1,0.886,"true",0,56
"1963",29,3,43,2,NA,NA,1,61
"1964",29,3,44,1,0.319,"false",0,41
"1965",29,3,45,2,0.215,"false",1,69
"1966",29,3,46,1,0.297,"false",1,105
"1967",29,3,47,2,0.232,"false",0,26
"1968",29,3,48,1,0.277,"true",0,50
"1969",29,3,49,1,0.314,"true",0,40
"1970",29,3,50,2,0.264,"false",0,11
"1971",29,3,51,1,0.259,"true",0,53
"1972",29,3,52,2,0.245,"true",0,8
"1973",29,3,53,2,0.237,"true",1,79
"1974",29,3,54,1,0.234,"false",0,34
"1975",29,3,55,1,0.263,"false",0,48
"1976",29,3,56,2,0.355,"false",0,21
"1977",29,3,57,2,0.445,"false",0,15
"1978",29,3,58,2,0.258,"true",1,86
"1979",29,3,59,1,0.324,"false",1,97
"1980",29,3,60,2,0.326,"false",1,75
"1981",29,3,61,2,0.786,"false",1,66
"1982",29,3,62,1,0.622,"false",0,44
"1983",29,3,63,2,0.435,"false",1,80
"1984",29,3,64,1,0.72,"false",1,114
"1985",29,3,65,1,0.342,"false",0,36
"1986",29,3,66,1,0.211,"true",1,98
"1987",29,3,67,2,0.236,"false",1,76
"1988",29,3,68,2,0.335,"false",0,4
"1989",29,3,69,1,0.907,"true",1,110
"1990",29,3,70,2,0.235,"false",1,78
"1991",29,3,71,1,0.623,"false",1,112
"1992",29,3,72,1,0.437,"false",0,39
"1993",29,3,73,2,0.442,"false",0,28
"1994",29,3,74,2,0.276,"true",1,90
"1995",29,3,75,2,0.287,"true",0,24
"1996",29,3,76,2,0.573,"true",0,7
"1997",29,3,77,2,0.21,"true",1,64
"1998",29,3,78,2,0.222,"false",1,84
"1999",29,3,79,1,0.234,"false",0,32
"2000",29,3,80,2,0.294,"false",0,5
"2001",29,3,81,2,0.217,"true",1,77
"2002",29,3,82,2,0.569,"false",1,73
"2003",29,3,83,1,0.604,"false",0,58
"2004",29,3,84,2,0.489,"true",0,25
"2005",29,3,85,1,0.865,"true",1,92
"2006",29,3,86,1,0.375,"false",1,113
"2007",29,3,87,2,0.523,"true",1,88
"2008",29,3,88,1,NA,NA,1,107
"2009",29,3,89,1,0.281,"true",1,95
"2010",29,3,90,2,0.328,"true",0,13
"2011",29,3,91,2,0.201,"true",0,30
"2012",29,3,92,2,0.271,"false",0,22
"2013",29,3,93,2,0.284,"false",0,16
"2014",29,3,94,1,0.33,"true",0,42
"2015",29,3,95,2,0.564,"false",0,1
"2016",29,3,96,1,0.266,"false",1,93
"2017",29,3,97,1,0.667,"false",0,54
"2018",29,3,98,1,0.36,"false",0,51
"2019",29,3,99,1,0.576,"true",1,115
"2020",29,3,100,2,0.538,"false",0,6
"2021",29,3,101,1,0.275,"true",1,111
"2022",29,3,102,2,0.305,"false",0,29
"2023",29,3,103,2,0.244,"true",1,82
"2024",29,3,104,1,0.311,"true",1,117
"2025",29,3,105,1,0.321,"false",1,108
"2026",29,3,106,1,0.495,"true",0,49
"2027",29,3,107,1,0.277,"false",0,60
"2028",29,3,108,2,0.272,"true",0,23
"2029",29,3,109,2,0.321,"false",1,74
"2030",29,3,110,1,0.171,"false",1,100
"2031",29,3,111,1,0.509,"false",1,116
"2032",29,3,112,2,0.207,"true",0,19
"2033",29,3,113,1,0.296,"false",0,43
"2034",29,3,114,2,0.298,"false",0,12
"2035",29,3,115,2,0.384,"true",1,72
"2036",29,3,116,2,0.372,"false",1,67
"2037",29,3,117,1,0.308,"true",1,120
"2038",29,3,118,1,0.672,"false",0,47
"2039",29,3,119,1,0.177,"false",1,102
"2040",29,3,120,2,0.424,"false",1,70
"2041",3,3,1,2,0.177,"true",1,11
"2042",3,3,2,1,0.264,"true",1,46
"2043",3,3,3,2,0.222,"false",0,65
"2044",3,3,4,2,0.227,"true",0,86
"2045",3,3,5,1,0.421,"false",0,110
"2046",3,3,6,2,0.267,"true",0,87
"2047",3,3,7,2,0.347,"true",0,70
"2048",3,3,8,1,0.547,"false",0,113
"2049",3,3,9,2,0.479,"true",0,74
"2050",3,3,10,1,0.3,"false",1,40
"2051",3,3,11,1,0.438,"true",1,56
"2052",3,3,12,2,0.234,"true",1,30
"2053",3,3,13,1,0.508,"false",0,104
"2054",3,3,14,2,0.417,"true",1,17
"2055",3,3,15,2,0.264,"false",1,14
"2056",3,3,16,1,0.481,"false",1,54
"2057",3,3,17,2,0.377,"true",0,88
"2058",3,3,18,2,0.258,"true",1,7
"2059",3,3,19,2,0.291,"false",0,78
"2060",3,3,20,1,0.314,"false",1,42
"2061",3,3,21,2,0.693,"true",0,76
"2062",3,3,22,1,0.458,"false",1,31
"2063",3,3,23,1,NA,NA,0,117
"2064",3,3,24,2,0.402,"false",1,16
"2065",3,3,25,2,0.3,"true",0,89
"2066",3,3,26,1,0.231,"false",0,97
"2067",3,3,27,2,0.371,"false",1,25
"2068",3,3,28,1,0.226,"true",0,112
"2069",3,3,29,2,0.416,"false",0,66
"2070",3,3,30,2,0.223,"true",1,1
"2071",3,3,31,1,0.272,"false",1,35
"2072",3,3,32,1,0.353,"true",1,33
"2073",3,3,33,2,0.403,"true",0,77
"2074",3,3,34,2,0.34,"false",0,73
"2075",3,3,35,1,0.617,"true",1,45
"2076",3,3,36,2,0.39,"true",0,64
"2077",3,3,37,2,0.376,"false",1,6
"2078",3,3,38,1,0.305,"true",1,57
"2079",3,3,39,2,0.271,"true",0,83
"2080",3,3,40,2,0.224,"false",1,23
"2081",3,3,41,2,0.526,"true",0,72
"2082",3,3,42,2,0.285,"false",0,82
"2083",3,3,43,1,0.476,"false",0,108
"2084",3,3,44,2,0.163,"true",1,13
"2085",3,3,45,2,0.421,"true",0,61
"2086",3,3,46,1,0.506,"true",0,106
"2087",3,3,47,2,0.318,"false",1,27
"2088",3,3,48,2,0.293,"false",1,18
"2089",3,3,49,2,0.439,"true",1,4
"2090",3,3,50,2,0.325,"true",1,28
"2091",3,3,51,1,0.314,"false",0,98
"2092",3,3,52,1,0.329,"true",1,37
"2093",3,3,53,1,0.306,"false",1,39
"2094",3,3,54,2,0.242,"false",1,8
"2095",3,3,55,1,0.445,"true",0,120
"2096",3,3,56,2,0.428,"true",1,21
"2097",3,3,57,1,0.512,"true",0,114
"2098",3,3,58,2,0.301,"false",0,90
"2099",3,3,59,1,0.297,"false",1,44
"2100",3,3,60,2,0.237,"true",1,29
"2101",3,3,61,1,0.455,"false",0,93
"2102",3,3,62,1,0.388,"true",0,92
"2103",3,3,63,1,0.655,"true",1,51
"2104",3,3,64,1,0.378,"false",0,99
"2105",3,3,65,1,0.271,"false",1,41
"2106",3,3,66,2,0.554,"true",1,15
"2107",3,3,67,1,0.328,"true",0,116
"2108",3,3,68,2,0.238,"true",1,26
"2109",3,3,69,1,0.516,"true",0,107
"2110",3,3,70,1,0.276,"false",1,36
"2111",3,3,71,2,0.349,"false",0,69
"2112",3,3,72,2,0.294,"false",0,81
"2113",3,3,73,2,0.598,"true",0,71
"2114",3,3,74,2,0.261,"true",0,80
"2115",3,3,75,2,0.349,"true",0,79
"2116",3,3,76,1,0.315,"false",0,95
"2117",3,3,77,2,0.942,"false",1,5
"2118",3,3,78,1,0.202,"true",1,60
"2119",3,3,79,2,0.293,"false",0,62
"2120",3,3,80,2,0.328,"true",1,19
"2121",3,3,81,1,0.498,"false",0,103
"2122",3,3,82,1,NA,NA,0,101
"2123",3,3,83,1,0.201,"true",1,58
"2124",3,3,84,1,0.452,"true",0,115
"2125",3,3,85,2,0.154,"false",1,20
"2126",3,3,86,2,0.367,"true",1,3
"2127",3,3,87,1,0.245,"false",0,105
"2128",3,3,88,1,0.2,"true",1,49
"2129",3,3,89,1,0.227,"false",1,32
"2130",3,3,90,1,0.275,"true",1,53
"2131",3,3,91,2,0.223,"false",1,9
"2132",3,3,92,2,0.221,"true",1,24
"2133",3,3,93,2,0.243,"false",1,10
"2134",3,3,94,2,0.191,"true",1,12
"2135",3,3,95,1,0.253,"false",0,96
"2136",3,3,96,2,0.458,"true",0,68
"2137",3,3,97,2,0.231,"true",1,22
"2138",3,3,98,1,0.226,"false",1,43
"2139",3,3,99,1,0.454,"false",0,100
"2140",3,3,100,1,0.286,"true",1,52
"2141",3,3,101,1,0.248,"false",0,102
"2142",3,3,102,2,0.242,"false",0,63
"2143",3,3,103,2,0.338,"true",0,67
"2144",3,3,104,1,0.318,"true",1,38
"2145",3,3,105,1,0.495,"true",0,94
"2146",3,3,106,1,0.57,"true",0,109
"2147",3,3,107,1,0.292,"false",1,34
"2148",3,3,108,2,0.441,"false",1,2
"2149",3,3,109,1,0.289,"true",1,55
"2150",3,3,110,1,0.235,"true",1,50
"2151",3,3,111,1,0.443,"true",1,47
"2152",3,3,112,1,0.582,"true",1,59
"2153",3,3,113,1,0.27,"false",0,91
"2154",3,3,114,1,0.351,"true",0,119
"2155",3,3,115,1,0.633,"true",0,118
"2156",3,3,116,1,0.376,"true",0,111
"2157",3,3,117,2,0.736,"false",0,85
"2158",3,3,118,1,0.459,"true",1,48
"2159",3,3,119,2,0.779,"false",0,84
"2160",3,3,120,2,0.833,"true",0,75
"2161",30,2,1,2,5.41,"true",0,1
"2162",30,2,2,1,0.916,"true",1,91
"2163",30,2,3,2,1.056,"false",0,20
"2164",30,2,4,2,4.382,"true",0,6
"2165",30,2,5,2,0.594,"false",1,87
"2166",30,2,6,2,1.936,"false",0,9
"2167",30,2,7,1,5.083,"false",0,58
"2168",30,2,8,1,0.788,"false",1,101
"2169",30,2,9,1,0.284,"false",1,117
"2170",30,2,10,2,2.826,"true",0,29
"2171",30,2,11,1,0.281,"false",1,98
"2172",30,2,12,2,13.012,"false",1,69
"2173",30,2,13,2,1.557,"true",0,8
"2174",30,2,14,1,0.856,"false",0,32
"2175",30,2,15,2,3.196,"true",0,2
"2176",30,2,16,1,3.588,"false",0,35
"2177",30,2,17,1,2.133,"true",1,119
"2178",30,2,18,2,0.325,"false",0,30
"2179",30,2,19,2,1.11,"true",1,68
"2180",30,2,20,2,3.241,"false",0,5
"2181",30,2,21,1,13.693,"true",1,94
"2182",30,2,22,1,0.475,"false",0,43
"2183",30,2,23,2,1.466,"true",0,7
"2184",30,2,24,2,6.519,"true",0,27
"2185",30,2,25,1,3.753,"true",0,53
"2186",30,2,26,2,0.735,"false",1,86
"2187",30,2,27,1,2.187,"false",0,51
"2188",30,2,28,1,6.372,"false",0,46
"2189",30,2,29,1,8.152,"true",0,49
"2190",30,2,30,1,2.414,"false",0,44
"2191",30,2,31,1,0.626,"false",0,38
"2192",30,2,32,2,4.391,"true",1,81
"2193",30,2,33,2,0.399,"true",1,89
"2194",30,2,34,1,1.149,"false",1,102
"2195",30,2,35,1,0.244,"false",0,37
"2196",30,2,36,1,0.377,"true",1,118
"2197",30,2,37,2,8.952,"true",1,80
"2198",30,2,38,1,0.215,"false",1,116
"2199",30,2,39,1,0.272,"false",1,106
"2200",30,2,40,2,0.295,"true",1,88
"2201",30,2,41,1,9.6,"false",0,55
"2202",30,2,42,1,3.429,"false",1,114
"2203",30,2,43,1,3.005,"false",1,104
"2204",30,2,44,2,12.805,"false",0,3
"2205",30,2,45,1,4.249,"false",1,93
"2206",30,2,46,1,2.574,"true",1,92
"2207",30,2,47,2,2.592,"false",1,74
"2208",30,2,48,2,0.305,"false",1,67
"2209",30,2,49,2,6.742,"false",0,23
"2210",30,2,50,2,0.672,"true",0,16
"2211",30,2,51,2,3.921,"false",1,83
"2212",30,2,52,2,5.921,"false",1,76
"2213",30,2,53,1,9.279,"true",1,115
"2214",30,2,54,1,5.961,"false",0,33
"2215",30,2,55,2,1.445,"false",0,17
"2216",30,2,56,1,3.112,"false",0,40
"2217",30,2,57,1,0.142,"true",0,59
"2218",30,2,58,1,0.289,"false",1,111
"2219",30,2,59,1,2.079,"true",0,52
"2220",30,2,60,2,8.255,"false",1,71
"2221",30,2,61,2,2.899,"true",1,66
"2222",30,2,62,1,1.147,"false",0,41
"2223",30,2,63,2,6.213,"false",1,79
"2224",30,2,64,2,2.791,"true",0,11
"2225",30,2,65,1,4.534,"true",0,42
"2226",30,2,66,1,5.77,"false",1,97
"2227",30,2,67,1,5.468,"false",1,100
"2228",30,2,68,2,0.848,"true",1,78
"2229",30,2,69,2,1.705,"false",0,21
"2230",30,2,70,2,3.775,"true",0,19
"2231",30,2,71,1,0.305,"false",0,31
"2232",30,2,72,1,0.301,"true",0,48
"2233",30,2,73,2,0.365,"false",1,73
"2234",30,2,74,1,1.438,"true",1,96
"2235",30,2,75,1,0.266,"false",1,105
"2236",30,2,76,2,5.134,"false",1,82
"2237",30,2,77,2,1.704,"false",1,64
"2238",30,2,78,2,1.146,"true",1,77
"2239",30,2,79,2,1.937,"false",0,28
"2240",30,2,80,1,22.196,"false",1,110
"2241",30,2,81,1,3.635,"false",0,47
"2242",30,2,82,2,4.345,"true",1,90
"2243",30,2,83,2,0.299,"true",1,62
"2244",30,2,84,2,0.612,"false",0,24
"2245",30,2,85,1,5.639,"true",0,57
"2246",30,2,86,2,0.299,"false",1,84
"2247",30,2,87,1,0.894,"false",1,95
"2248",30,2,88,2,8.682,"false",0,15
"2249",30,2,89,2,2.956,"true",1,63
"2250",30,2,90,1,0.281,"true",0,50
"2251",30,2,91,2,5.016,"false",1,85
"2252",30,2,92,1,2.319,"false",0,39
"2253",30,2,93,1,8.024,"true",0,34
"2254",30,2,94,2,1.102,"false",0,13
"2255",30,2,95,2,0.315,"false",1,72
"2256",30,2,96,1,0.333,"false",1,108
"2257",30,2,97,2,0.867,"true",1,61
"2258",30,2,98,2,0.388,"false",0,14
"2259",30,2,99,1,2.428,"false",1,99
"2260",30,2,100,2,9.733,"false",0,12
"2261",30,2,101,1,0.525,"true",1,107
"2262",30,2,102,2,0.323,"false",0,4
"2263",30,2,103,1,7.58,"true",1,112
"2264",30,2,104,2,0.44,"false",0,22
"2265",30,2,105,2,1.605,"false",1,75
"2266",30,2,106,1,1.324,"true",1,113
"2267",30,2,107,2,0.227,"false",0,18
"2268",30,2,108,1,11.915,"false",0,54
"2269",30,2,109,1,0.721,"false",0,45
"2270",30,2,110,2,2.063,"true",1,65
"2271",30,2,111,2,0.406,"false",0,10
"2272",30,2,112,1,0.67,"false",1,103
"2273",30,2,113,2,0.315,"false",1,70
"2274",30,2,114,1,0.79,"true",1,120
"2275",30,2,115,1,0.828,"true",1,109
"2276",30,2,116,2,0.969,"false",0,25
"2277",30,2,117,1,0.841,"true",0,60
"2278",30,2,118,2,1.895,"false",0,26
"2279",30,2,119,1,4.727,"false",0,56
"2280",30,2,120,1,0.239,"false",0,36
"2281",31,2,1,2,2.053,"true",1,1
"2282",31,2,2,2,1.946,"true",1,5
"2283",31,2,3,2,1.546,"true",0,82
"2284",31,2,4,2,0.701,"false",1,13
"2285",31,2,5,1,0.484,"true",1,57
"2286",31,2,6,2,0.511,"true",1,12
"2287",31,2,7,2,2.718,"false",0,75
"2288",31,2,8,1,0.327,"false",1,37
"2289",31,2,9,1,0.397,"false",0,105
"2290",31,2,10,1,0.477,"false",1,44
"2291",31,2,11,2,2.222,"true",1,7
"2292",31,2,12,1,0.611,"false",1,46
"2293",31,2,13,1,0.525,"false",0,107
"2294",31,2,14,1,1.917,"true",1,54
"2295",31,2,15,2,0.292,"true",1,29
"2296",31,2,16,1,3.38,"true",1,41
"2297",31,2,17,1,0.497,"false",1,34
"2298",31,2,18,1,0.441,"false",1,35
"2299",31,2,19,2,3.5,"false",0,81
"2300",31,2,20,2,0.294,"true",1,30
"2301",31,2,21,1,5.197,"true",1,36
"2302",31,2,22,2,0.664,"true",0,64
"2303",31,2,23,1,0.348,"false",1,40
"2304",31,2,24,2,3.032,"true",0,72
"2305",31,2,25,1,0.748,"true",0,104
"2306",31,2,26,2,2.176,"false",0,71
"2307",31,2,27,2,0.618,"false",0,86
"2308",31,2,28,2,0.403,"true",0,65
"2309",31,2,29,1,0.351,"true",1,51
"2310",31,2,30,1,0.439,"true",1,58
"2311",31,2,31,2,0.295,"false",1,20
"2312",31,2,32,2,0.268,"true",1,2
"2313",31,2,33,1,0.31,"true",1,59
"2314",31,2,34,1,0.284,"false",1,45
"2315",31,2,35,2,0.705,"true",0,66
"2316",31,2,36,1,0.342,"true",0,119
"2317",31,2,37,1,4.548,"false",0,116
"2318",31,2,38,2,0.521,"false",0,61
"2319",31,2,39,1,0.346,"true",1,50
"2320",31,2,40,2,0.335,"false",1,9
"2321",31,2,41,2,2.087,"false",1,4
"2322",31,2,42,2,0.293,"false",1,22
"2323",31,2,43,1,0.312,"true",0,120
"2324",31,2,44,2,1.922,"false",1,21
"2325",31,2,45,1,1.304,"true",1,60
"2326",31,2,46,2,2.313,"true",0,83
"2327",31,2,47,2,0.321,"true",1,8
"2328",31,2,48,2,0.353,"false",1,11
"2329",31,2,49,2,0.934,"true",1,28
"2330",31,2,50,1,0.472,"true",0,111
"2331",31,2,51,1,0.98,"true",0,109
"2332",31,2,52,1,2.697,"true",0,102
"2333",31,2,53,2,0.315,"true",0,69
"2334",31,2,54,1,2.524,"false",0,108
"2335",31,2,55,1,2.536,"false",1,55
"2336",31,2,56,2,0.608,"false",1,26
"2337",31,2,57,1,3,"false",0,96
"2338",31,2,58,1,0.394,"true",0,117
"2339",31,2,59,2,0.441,"false",0,77
"2340",31,2,60,1,2.5,"false",1,43
"2341",31,2,61,2,0.283,"false",1,18
"2342",31,2,62,2,0.722,"false",0,89
"2343",31,2,63,1,2.791,"true",0,115
"2344",31,2,64,2,1.103,"true",1,14
"2345",31,2,65,1,6.665,"false",0,95
"2346",31,2,66,1,0.279,"true",1,38
"2347",31,2,67,2,0.373,"false",0,76
"2348",31,2,68,2,1.002,"true",1,6
"2349",31,2,69,1,1.11,"false",1,42
"2350",31,2,70,2,1.696,"true",0,68
"2351",31,2,71,1,0.703,"false",1,31
"2352",31,2,72,2,1.045,"false",0,74
"2353",31,2,73,1,1.753,"true",0,118
"2354",31,2,74,2,1.922,"true",0,90
"2355",31,2,75,1,1.231,"false",1,48
"2356",31,2,76,2,0.8,"false",0,88
"2357",31,2,77,1,1.906,"true",1,52
"2358",31,2,78,1,0.646,"false",1,56
"2359",31,2,79,2,0.331,"true",1,25
"2360",31,2,80,2,0.826,"true",0,67
"2361",31,2,81,2,1.755,"true",1,17
"2362",31,2,82,1,1.37,"true",0,100
"2363",31,2,83,2,1.21,"false",0,62
"2364",31,2,84,1,0.842,"true",0,106
"2365",31,2,85,2,1.186,"true",1,24
"2366",31,2,86,2,0.588,"true",0,84
"2367",31,2,87,1,0.557,"false",1,53
"2368",31,2,88,1,0.332,"false",0,110
"2369",31,2,89,2,0.571,"true",0,80
"2370",31,2,90,2,1.988,"false",1,16
"2371",31,2,91,1,0.485,"true",1,47
"2372",31,2,92,1,3.812,"true",0,112
"2373",31,2,93,1,0.859,"true",0,103
"2374",31,2,94,2,0.27,"true",0,63
"2375",31,2,95,1,1.45,"false",0,99
"2376",31,2,96,2,0.716,"true",0,87
"2377",31,2,97,2,0.373,"false",0,78
"2378",31,2,98,1,0.727,"true",0,94
"2379",31,2,99,2,0.553,"true",1,10
"2380",31,2,100,1,0.389,"true",0,91
"2381",31,2,101,2,2.709,"false",1,15
"2382",31,2,102,2,0.341,"false",1,27
"2383",31,2,103,1,0.75,"false",0,98
"2384",31,2,104,1,1.678,"true",1,32
"2385",31,2,105,2,0.7,"false",0,79
"2386",31,2,106,1,2.154,"false",0,113
"2387",31,2,107,1,0.41,"false",0,97
"2388",31,2,108,1,0.511,"false",1,33
"2389",31,2,109,2,0.907,"true",0,85
"2390",31,2,110,1,0.382,"false",1,39
"2391",31,2,111,1,0.888,"true",0,92
"2392",31,2,112,2,0.366,"true",1,19
"2393",31,2,113,2,6.876,"true",1,3
"2394",31,2,114,1,0.283,"true",0,101
"2395",31,2,115,1,0.411,"false",0,93
"2396",31,2,116,2,1.905,"true",0,73
"2397",31,2,117,2,0.313,"true",1,23
"2398",31,2,118,1,5.037,"false",0,114
"2399",31,2,119,2,0.388,"false",0,70
"2400",31,2,120,1,0.704,"true",1,49
"2401",32,3,1,1,0.708,"false",1,97
"2402",32,3,2,1,0.565,"true",0,40
"2403",32,3,3,2,0.387,"true",1,67
"2404",32,3,4,2,0.539,"false",0,27
"2405",32,3,5,2,0.745,"false",0,1
"2406",32,3,6,1,0.424,"false",1,98
"2407",32,3,7,2,NA,NA,0,7
"2408",32,3,8,1,0.414,"true",0,48
"2409",32,3,9,2,0.387,"true",1,89
"2410",32,3,10,2,0.333,"false",1,66
"2411",32,3,11,1,0.521,"true",1,96
"2412",32,3,12,1,0.59,"true",0,42
"2413",32,3,13,1,NA,NA,1,94
"2414",32,3,14,2,0.648,"true",1,68
"2415",32,3,15,1,0.339,"true",0,54
"2416",32,3,16,1,0.276,"false",1,111
"2417",32,3,17,2,0.391,"true",1,81
"2418",32,3,18,1,0.577,"true",1,107
"2419",32,3,19,2,NA,NA,0,17
"2420",32,3,20,2,0.719,"false",1,86
"2421",32,3,21,2,0.389,"true",1,72
"2422",32,3,22,1,NA,NA,1,109
"2423",32,3,23,2,0.502,"true",0,10
"2424",32,3,24,2,NA,NA,0,29
"2425",32,3,25,1,0.332,"true",1,115
"2426",32,3,26,2,0.526,"true",1,85
"2427",32,3,27,1,0.852,"false",0,52
"2428",32,3,28,2,0.404,"true",0,4
"2429",32,3,29,2,0.677,"true",1,82
"2430",32,3,30,2,0.306,"false",0,9
"2431",32,3,31,1,0.795,"false",0,33
"2432",32,3,32,2,0.672,"true",0,3
"2433",32,3,33,1,NA,NA,0,41
"2434",32,3,34,2,0.702,"false",0,14
"2435",32,3,35,1,0.969,"false",0,38
"2436",32,3,36,1,0.418,"false",1,110
"2437",32,3,37,2,0.239,"true",1,71
"2438",32,3,38,2,0.348,"true",0,5
"2439",32,3,39,2,0.305,"true",1,64
"2440",32,3,40,1,0.295,"false",1,116
"2441",32,3,41,1,0.618,"false",0,34
"2442",32,3,42,1,0.24,"false",1,93
"2443",32,3,43,1,0.389,"true",0,47
"2444",32,3,44,1,0.348,"true",1,119
"2445",32,3,45,2,0.495,"true",1,69
"2446",32,3,46,2,0.307,"true",1,83
"2447",32,3,47,1,0.235,"false",0,37
"2448",32,3,48,1,0.857,"false",0,53
"2449",32,3,49,1,0.406,"true",0,39
"2450",32,3,50,1,0.373,"false",1,100
"2451",32,3,51,1,0.461,"true",0,50
"2452",32,3,52,1,0.39,"true",0,49
"2453",32,3,53,1,0.328,"true",1,117
"2454",32,3,54,2,0.806,"false",0,11
"2455",32,3,55,2,0.416,"true",0,26
"2456",32,3,56,1,0.31,"true",1,118
"2457",32,3,57,2,0.593,"true",0,24
"2458",32,3,58,2,0.348,"false",1,79
"2459",32,3,59,2,0.425,"true",0,8
"2460",32,3,60,2,0.833,"true",1,70
"2461",32,3,61,1,0.474,"false",1,101
"2462",32,3,62,2,0.272,"true",1,77
"2463",32,3,63,1,NA,NA,0,45
"2464",32,3,64,1,0.383,"false",0,44
"2465",32,3,65,2,0.382,"true",1,62
"2466",32,3,66,2,0.364,"true",1,87
"2467",32,3,67,1,0.903,"false",0,35
"2468",32,3,68,2,0.337,"true",0,30
"2469",32,3,69,1,0.306,"false",1,102
"2470",32,3,70,2,0.273,"true",0,20
"2471",32,3,71,2,0.501,"false",1,65
"2472",32,3,72,2,0.328,"true",0,18
"2473",32,3,73,1,0.83,"true",0,56
"2474",32,3,74,1,0.922,"true",0,46
"2475",32,3,75,2,0.438,"false",1,78
"2476",32,3,76,1,0.325,"true",1,106
"2477",32,3,77,1,0.811,"false",0,32
"2478",32,3,78,1,0.399,"true",0,59
"2479",32,3,79,1,0.299,"true",0,58
"2480",32,3,80,2,NA,NA,1,74
"2481",32,3,81,1,0.427,"false",1,92
"2482",32,3,82,1,0.269,"true",0,60
"2483",32,3,83,2,0.481,"false",0,19
"2484",32,3,84,2,0.311,"true",1,63
"2485",32,3,85,1,0.485,"false",0,31
"2486",32,3,86,1,0.992,"true",1,103
"2487",32,3,87,1,0.358,"false",1,105
"2488",32,3,88,1,0.343,"true",1,108
"2489",32,3,89,2,NA,NA,0,2
"2490",32,3,90,2,0.865,"true",0,25
"2491",32,3,91,2,0.923,"false",1,88
"2492",32,3,92,1,0.305,"true",1,113
"2493",32,3,93,2,0.304,"false",0,12
"2494",32,3,94,1,0.771,"true",1,95
"2495",32,3,95,1,0.359,"true",0,36
"2496",32,3,96,2,0.712,"false",0,22
"2497",32,3,97,2,0.44,"true",0,23
"2498",32,3,98,2,0.39,"false",0,28
"2499",32,3,99,1,0.892,"false",0,43
"2500",32,3,100,2,NA,NA,1,61
"2501",32,3,101,1,0.328,"true",0,57
"2502",32,3,102,1,0.5,"true",1,120
"2503",32,3,103,2,0.397,"true",0,21
"2504",32,3,104,2,0.283,"false",1,90
"2505",32,3,105,1,0.263,"true",1,104
"2506",32,3,106,2,0.717,"false",1,75
"2507",32,3,107,2,0.361,"true",1,76
"2508",32,3,108,1,0.421,"true",1,114
"2509",32,3,109,2,0.405,"true",0,6
"2510",32,3,110,1,0.315,"false",1,112
"2511",32,3,111,2,0.695,"true",0,16
"2512",32,3,112,1,0.52,"false",1,91
"2513",32,3,113,1,0.327,"true",0,51
"2514",32,3,114,2,0.342,"false",1,84
"2515",32,3,115,2,0.58,"true",0,13
"2516",32,3,116,1,0.349,"true",0,55
"2517",32,3,117,2,0.502,"false",1,73
"2518",32,3,118,2,0.489,"true",1,80
"2519",32,3,119,1,0.271,"false",1,99
"2520",32,3,120,2,0.531,"false",0,15
"2521",33,3,1,1,NA,NA,0,50
"2522",33,3,2,1,0.218,"true",1,119
"2523",33,3,3,1,0.43,"false",0,43
"2524",33,3,4,2,0.603,"false",0,13
"2525",33,3,5,2,0.639,"false",0,25
"2526",33,3,6,1,0.263,"true",1,106
"2527",33,3,7,2,0.934,"false",0,8
"2528",33,3,8,1,0.251,"true",0,58
"2529",33,3,9,1,0.655,"false",0,45
"2530",33,3,10,2,0.657,"true",0,7
"2531",33,3,11,1,0.501,"true",1,103
"2532",33,3,12,1,0.424,"true",0,40
"2533",33,3,13,1,0.532,"false",1,112
"2534",33,3,14,2,0.373,"true",0,5
"2535",33,3,15,2,0.323,"false",0,29
"2536",33,3,16,1,0.261,"true",1,104
"2537",33,3,17,2,0.914,"true",0,11
"2538",33,3,18,1,0.501,"false",0,35
"2539",33,3,19,2,0.272,"true",1,80
"2540",33,3,20,2,0.375,"false",1,77
"2541",33,3,21,1,0.427,"true",0,56
"2542",33,3,22,1,0.292,"true",1,91
"2543",33,3,23,1,0.232,"true",0,60
"2544",33,3,24,2,0.266,"false",0,26
"2545",33,3,25,1,0.43,"true",0,47
"2546",33,3,26,2,0.331,"true",1,66
"2547",33,3,27,1,0.402,"true",1,98
"2548",33,3,28,2,0.259,"true",1,70
"2549",33,3,29,2,0.687,"false",0,10
"2550",33,3,30,1,0.332,"true",0,59
"2551",33,3,31,2,0.235,"true",0,4
"2552",33,3,32,2,0.66,"true",1,68
"2553",33,3,33,1,0.408,"true",1,105
"2554",33,3,34,2,0.783,"false",0,14
"2555",33,3,35,1,0.777,"true",1,94
"2556",33,3,36,1,0.334,"true",0,57
"2557",33,3,37,1,0.282,"false",0,41
"2558",33,3,38,2,0.432,"true",1,79
"2559",33,3,39,1,0.351,"true",1,120
"2560",33,3,40,2,0.725,"false",1,71
"2561",33,3,41,1,0.439,"false",0,38
"2562",33,3,42,1,0.516,"false",0,33
"2563",33,3,43,1,0.352,"true",1,107
"2564",33,3,44,1,0.486,"false",1,93
"2565",33,3,45,1,0.599,"true",1,109
"2566",33,3,46,1,0.394,"true",1,97
"2567",33,3,47,1,0.811,"true",1,114
"2568",33,3,48,2,0.576,"true",0,22
"2569",33,3,49,2,0.897,"true",0,6
"2570",33,3,50,2,0.598,"false",1,83
"2571",33,3,51,1,NA,NA,1,100
"2572",33,3,52,2,0.197,"false",0,20
"2573",33,3,53,2,0.561,"true",1,64
"2574",33,3,54,1,0.266,"true",0,49
"2575",33,3,55,2,0.429,"false",1,67
"2576",33,3,56,1,0.574,"true",1,111
"2577",33,3,57,2,0.253,"false",0,15
"2578",33,3,58,1,0.63,"true",0,31
"2579",33,3,59,2,0.361,"true",1,84
"2580",33,3,60,1,0.692,"false",1,92
"2581",33,3,61,2,0.31,"true",0,12
"2582",33,3,62,2,0.584,"false",1,78
"2583",33,3,63,2,NA,NA,0,9
"2584",33,3,64,1,0.503,"true",1,110
"2585",33,3,65,1,0.412,"true",1,118
"2586",33,3,66,2,0.277,"true",1,76
"2587",33,3,67,2,0.23,"true",1,87
"2588",33,3,68,2,0.24,"true",1,65
"2589",33,3,69,2,0.675,"true",0,1
"2590",33,3,70,2,0.276,"true",1,61
"2591",33,3,71,1,0.359,"true",0,54
"2592",33,3,72,2,0.316,"true",1,62
"2593",33,3,73,2,0.583,"false",1,75
"2594",33,3,74,1,0.226,"true",0,48
"2595",33,3,75,1,0.67,"false",0,55
"2596",33,3,76,1,0.527,"true",0,52
"2597",33,3,77,1,0.491,"true",1,117
"2598",33,3,78,2,0.355,"true",1,74
"2599",33,3,79,1,0.327,"false",0,34
"2600",33,3,80,2,0.312,"true",1,88
"2601",33,3,81,2,0.476,"true",0,24
"2602",33,3,82,2,0.616,"false",1,81
"2603",33,3,83,1,0.651,"true",0,44
"2604",33,3,84,1,0.411,"true",1,96
"2605",33,3,85,1,0.693,"true",1,116
"2606",33,3,86,2,0.28,"true",1,89
"2607",33,3,87,2,0.28,"false",1,86
"2608",33,3,88,1,0.461,"false",1,102
"2609",33,3,89,2,0.324,"true",1,69
"2610",33,3,90,1,0.498,"false",0,51
"2611",33,3,91,2,0.592,"false",0,27
"2612",33,3,92,1,0.233,"true",1,95
"2613",33,3,93,2,0.26,"true",0,23
"2614",33,3,94,2,0.457,"true",1,73
"2615",33,3,95,2,0.396,"true",0,2
"2616",33,3,96,2,NA,NA,1,85
"2617",33,3,97,1,0.407,"true",1,115
"2618",33,3,98,2,0.263,"true",1,63
"2619",33,3,99,2,0.488,"true",0,30
"2620",33,3,100,2,0.465,"true",0,19
"2621",33,3,101,2,0.672,"false",0,16
"2622",33,3,102,1,0.202,"false",0,37
"2623",33,3,103,1,0.276,"true",0,46
"2624",33,3,104,2,0.22,"true",1,72
"2625",33,3,105,1,0.624,"true",0,39
"2626",33,3,106,1,0.477,"false",0,53
"2627",33,3,107,2,0.644,"false",0,17
"2628",33,3,108,2,0.468,"true",1,82
"2629",33,3,109,2,0.276,"false",0,18
"2630",33,3,110,1,0.692,"true",1,101
"2631",33,3,111,1,0.53,"false",1,99
"2632",33,3,112,1,0.767,"true",0,36
"2633",33,3,113,2,0.815,"false",0,21
"2634",33,3,114,1,0.641,"false",0,32
"2635",33,3,115,1,0.233,"true",1,113
"2636",33,3,116,1,0.687,"true",1,108
"2637",33,3,117,2,0.679,"false",0,3
"2638",33,3,118,1,0.271,"false",0,42
"2639",33,3,119,2,0.309,"true",0,28
"2640",33,3,120,2,0.287,"false",1,90
"2641",34,2,1,2,4.538,"false",0,64
"2642",34,2,2,1,0.378,"false",1,35
"2643",34,2,3,1,0.399,"false",1,32
"2644",34,2,4,2,1.454,"false",0,75
"2645",34,2,5,2,1.375,"true",0,84
"2646",34,2,6,2,0.543,"true",0,77
"2647",34,2,7,1,0.851,"true",1,49
"2648",34,2,8,2,0.727,"false",1,2
"2649",34,2,9,1,0.407,"true",1,50
"2650",34,2,10,1,0.645,"true",0,111
"2651",34,2,11,1,0.333,"false",0,91
"2652",34,2,12,1,0.414,"true",0,120
"2653",34,2,13,1,2.397,"false",1,44
"2654",34,2,14,1,0.56,"false",1,36
"2655",34,2,15,1,0.457,"true",0,107
"2656",34,2,16,1,0.378,"false",0,98
"2657",34,2,17,2,0.389,"true",1,29
"2658",34,2,18,2,3.03,"true",0,72
"2659",34,2,19,1,1.473,"true",0,116
"2660",34,2,20,2,1.363,"true",1,25
"2661",34,2,21,2,0.915,"false",1,1
"2662",34,2,22,2,0.506,"true",0,74
"2663",34,2,23,1,0.499,"true",1,46
"2664",34,2,24,1,2.609,"false",1,45
"2665",34,2,25,2,0.716,"true",1,9
"2666",34,2,26,1,2.851,"true",0,115
"2667",34,2,27,1,2.809,"false",1,47
"2668",34,2,28,2,0.489,"true",0,80
"2669",34,2,29,2,1.811,"true",0,62
"2670",34,2,30,1,2.12,"false",0,99
"2671",34,2,31,1,0.309,"false",1,59
"2672",34,2,32,2,1.063,"false",0,68
"2673",34,2,33,2,0.439,"false",0,61
"2674",34,2,34,2,0.969,"false",0,71
"2675",34,2,35,2,0.442,"true",0,76
"2676",34,2,36,1,2.484,"true",0,110
"2677",34,2,37,1,0.388,"false",1,39
"2678",34,2,38,1,1.068,"true",0,114
"2679",34,2,39,2,0.513,"false",1,13
"2680",34,2,40,1,0.292,"true",0,106
"2681",34,2,41,2,4.193,"false",1,20
"2682",34,2,42,1,0.297,"true",1,56
"2683",34,2,43,1,0.365,"false",0,97
"2684",34,2,44,1,0.378,"false",1,43
"2685",34,2,45,2,0.313,"false",1,18
"2686",34,2,46,1,0.434,"false",0,93
"2687",34,2,47,2,1.709,"true",1,4
"2688",34,2,48,1,0.417,"false",1,41
"2689",34,2,49,1,0.331,"true",1,42
"2690",34,2,50,2,1.722,"true",0,83
"2691",34,2,51,1,0.673,"false",1,54
"2692",34,2,52,1,0.831,"false",1,34
"2693",34,2,53,2,1.078,"true",1,6
"2694",34,2,54,1,1.657,"false",0,118
"2695",34,2,55,2,0.337,"true",0,73
"2696",34,2,56,2,0.386,"false",1,21
"2697",34,2,57,1,0.331,"true",1,55
"2698",34,2,58,2,0.318,"false",1,15
"2699",34,2,59,2,0.576,"true",1,12
"2700",34,2,60,2,0.578,"true",1,23
"2701",34,2,61,2,0.563,"false",0,70
"2702",34,2,62,2,0.258,"true",1,19
"2703",34,2,63,2,0.858,"true",1,16
"2704",34,2,64,2,0.307,"true",0,90
"2705",34,2,65,2,0.422,"true",0,79
"2706",34,2,66,2,5.526,"false",0,66
"2707",34,2,67,2,1.24,"true",1,30
"2708",34,2,68,1,0.428,"false",0,105
"2709",34,2,69,2,0.43,"false",0,65
"2710",34,2,70,1,0.593,"true",0,109
"2711",34,2,71,1,0.692,"true",1,58
"2712",34,2,72,2,0.597,"false",0,81
"2713",34,2,73,2,0.293,"true",1,24
"2714",34,2,74,2,0.747,"false",0,86
"2715",34,2,75,1,0.452,"false",0,100
"2716",34,2,76,1,0.362,"false",1,31
"2717",34,2,77,1,2.179,"false",0,96
"2718",34,2,78,1,0.409,"false",0,95
"2719",34,2,79,1,0.552,"true",1,53
"2720",34,2,80,1,1.103,"false",0,104
"2721",34,2,81,2,0.488,"true",0,78
"2722",34,2,82,1,4.111,"true",0,92
"2723",34,2,83,1,0.407,"true",1,48
"2724",34,2,84,1,0.895,"true",1,40
"2725",34,2,85,1,1.034,"true",1,52
"2726",34,2,86,1,0.533,"true",0,108
"2727",34,2,87,2,0.915,"false",0,88
"2728",34,2,88,2,0.502,"false",1,28
"2729",34,2,89,2,1.349,"false",0,67
"2730",34,2,90,1,1.718,"false",1,38
"2731",34,2,91,2,0.452,"true",1,26
"2732",34,2,92,2,0.443,"true",1,17
"2733",34,2,93,2,0.78,"true",0,87
"2734",34,2,94,2,1.588,"false",1,5
"2735",34,2,95,1,0.314,"true",1,57
"2736",34,2,96,2,1.156,"false",0,63
"2737",34,2,97,2,1.371,"true",0,85
"2738",34,2,98,1,0.498,"true",0,119
"2739",34,2,99,2,0.404,"true",1,22
"2740",34,2,100,2,0.547,"false",1,14
"2741",34,2,101,1,0.343,"true",1,60
"2742",34,2,102,1,2.215,"true",0,112
"2743",34,2,103,2,2.383,"true",1,11
"2744",34,2,104,1,6.175,"false",1,51
"2745",34,2,105,1,1.123,"false",0,101
"2746",34,2,106,2,0.421,"true",0,82
"2747",34,2,107,1,1.221,"false",1,33
"2748",34,2,108,2,1.493,"false",1,27
"2749",34,2,109,1,0.516,"false",1,37
"2750",34,2,110,2,1.275,"false",1,8
"2751",34,2,111,2,2.172,"true",1,3
"2752",34,2,112,2,0.336,"false",1,10
"2753",34,2,113,2,1.575,"true",0,69
"2754",34,2,114,1,4.536,"false",0,94
"2755",34,2,115,2,1.84,"true",1,7
"2756",34,2,116,1,0.691,"false",0,103
"2757",34,2,117,1,0.789,"false",0,102
"2758",34,2,118,1,0.644,"true",0,117
"2759",34,2,119,2,4.303,"true",0,89
"2760",34,2,120,1,0.598,"true",0,113
"2761",35,2,1,1,1.032,"false",1,31
"2762",35,2,2,1,7.375,"false",0,111
"2763",35,2,3,1,2.148,"true",0,115
"2764",35,2,4,2,3.011,"false",0,68
"2765",35,2,5,1,4.127,"false",0,107
"2766",35,2,6,1,0.383,"true",0,113
"2767",35,2,7,1,5.185,"false",0,110
"2768",35,2,8,1,0.57,"false",0,104
"2769",35,2,9,2,4.513,"false",0,64
"2770",35,2,10,2,0.363,"false",1,10
"2771",35,2,11,1,2.458,"true",0,100
"2772",35,2,12,2,2.507,"true",1,3
"2773",35,2,13,2,2.337,"true",0,89
"2774",35,2,14,2,2.236,"true",0,79
"2775",35,2,15,2,0.647,"true",1,24
"2776",35,2,16,1,3.355,"true",0,119
"2777",35,2,17,1,0.439,"false",1,39
"2778",35,2,18,1,2.967,"true",1,48
"2779",35,2,19,1,0.317,"true",1,57
"2780",35,2,20,2,1.697,"true",0,75
"2781",35,2,21,1,0.671,"false",0,98
"2782",35,2,22,2,2.657,"true",0,83
"2783",35,2,23,1,5.617,"false",1,59
"2784",35,2,24,2,1.942,"false",0,84
"2785",35,2,25,1,2.92,"true",1,49
"2786",35,2,26,2,1.47,"false",0,90
"2787",35,2,27,2,0.323,"false",1,23
"2788",35,2,28,2,3.88,"true",0,71
"2789",35,2,29,1,0.396,"false",1,42
"2790",35,2,30,2,0.41,"true",1,21
"2791",35,2,31,2,0.36,"true",0,69
"2792",35,2,32,1,0.346,"false",0,99
"2793",35,2,33,1,1.022,"false",1,40
"2794",35,2,34,1,1.229,"true",1,53
"2795",35,2,35,1,0.49,"true",1,47
"2796",35,2,36,1,2.14,"true",0,114
"2797",35,2,37,1,2.57,"false",0,102
"2798",35,2,38,1,0.354,"false",1,38
"2799",35,2,39,1,0.493,"false",1,33
"2800",35,2,40,1,0.31,"false",1,43
"2801",35,2,41,1,0.311,"true",1,50
"2802",35,2,42,1,0.565,"false",1,34
"2803",35,2,43,2,0.628,"true",1,30
"2804",35,2,44,2,1.714,"true",0,70
"2805",35,2,45,2,0.541,"false",1,16
"2806",35,2,46,1,0.854,"false",1,52
"2807",35,2,47,1,0.562,"false",1,45
"2808",35,2,48,2,0.375,"false",1,26
"2809",35,2,49,2,2.926,"true",1,4
"2810",35,2,50,1,0.764,"true",1,46
"2811",35,2,51,2,1.637,"true",0,82
"2812",35,2,52,1,3.273,"false",0,116
"2813",35,2,53,2,1.63,"false",0,74
"2814",35,2,54,2,1.781,"false",0,66
"2815",35,2,55,1,0.399,"false",0,91
"2816",35,2,56,2,0.447,"false",0,81
"2817",35,2,57,1,1.537,"false",0,94
"2818",35,2,58,2,6.036,"false",0,61
"2819",35,2,59,2,0.339,"true",1,5
"2820",35,2,60,2,0.317,"true",0,80
"2821",35,2,61,1,5.037,"true",0,112
"2822",35,2,62,2,0.826,"true",1,12
"2823",35,2,63,2,0.317,"false",0,62
"2824",35,2,64,2,0.413,"false",0,87
"2825",35,2,65,2,5.414,"false",0,67
"2826",35,2,66,1,1.018,"true",1,58
"2827",35,2,67,2,0.515,"false",1,18
"2828",35,2,68,1,0.457,"true",1,51
"2829",35,2,69,2,0.808,"false",1,29
"2830",35,2,70,1,2.313,"true",0,106
"2831",35,2,71,1,1.413,"false",1,36
"2832",35,2,72,2,4.267,"false",1,14
"2833",35,2,73,2,3.226,"false",0,63
"2834",35,2,74,2,17.258,"true",1,1
"2835",35,2,75,1,0.325,"false",0,101
"2836",35,2,76,2,4.528,"false",1,2
"2837",35,2,77,1,2.633,"false",1,56
"2838",35,2,78,1,1.006,"false",0,96
"2839",35,2,79,2,0.319,"true",1,11
"2840",35,2,80,1,0.336,"false",0,105
"2841",35,2,81,2,1.542,"false",1,27
"2842",35,2,82,2,0.489,"true",1,20
"2843",35,2,83,2,7.688,"false",0,85
"2844",35,2,84,1,0.364,"false",0,103
"2845",35,2,85,2,4.303,"true",0,76
"2846",35,2,86,1,2.574,"false",1,55
"2847",35,2,87,2,0.385,"true",1,22
"2848",35,2,88,2,0.309,"false",1,8
"2849",35,2,89,1,0.296,"true",0,120
"2850",35,2,90,2,2.859,"true",0,77
"2851",35,2,91,1,5.734,"true",0,118
"2852",35,2,92,2,1.406,"false",0,78
"2853",35,2,93,2,1.208,"true",0,72
"2854",35,2,94,2,0.723,"false",0,73
"2855",35,2,95,1,0.515,"false",1,54
"2856",35,2,96,2,0.375,"false",0,86
"2857",35,2,97,2,1.185,"true",1,28
"2858",35,2,98,2,3.087,"false",1,15
"2859",35,2,99,2,0.948,"false",0,88
"2860",35,2,100,1,0.325,"false",0,97
"2861",35,2,101,2,0.439,"true",1,19
"2862",35,2,102,2,0.433,"false",0,65
"2863",35,2,103,1,0.324,"false",1,32
"2864",35,2,104,1,0.565,"true",0,108
