{"publication_info":{"0":{"publication_name":"Publication 1","study_info":{"0":{"study_name":"Study 1","study_data":{"truth_rating_scale":"likert","truth_rating_scale_details":"","truth_rating_steps":"6","subjective_certainty":"0","rt_measured":"1","rt_onset":"stimulus_onset","n_participants":"64","participant_age":"20.8","percentage_female":"90.6","physiological_measures":"0","cognitive_models":"1","open_data_link":"https://osf.io/bv35x/","study_comment":"","statementset_name":"Statementset 1","secondary_tasks":"0","secondary_task_type":"","secondary_task_name":"","validated":true},"measurement_data":{"measures":[],"additional_measures":"0","validated":true},"raw_data":{"raw_data_file":{},"data":[{"":1,"subject":2,"statement_identifier":1,"presentation_identifier":"high","within_identifier":1,"between_identifier":1,"response":2,"repeated":0,"rt":2.44,"trial":107},{"":2,"subject":2,"statement_identifier":2,"presentation_identifier":"high","within_identifier":1,"between_identifier":1,"response":4,"repeated":1,"rt":1.206,"trial":108},{"":3,"subject":2,"statement_identifier":3,"presentation_identifier":"high","within_identifier":1,"between_identifier":1,"response":5,"repeated":1,"rt":1.851,"trial":109},{"":4,"subject":2,"statement_identifier":4,"presentation_identifier":"high","within_identifier":1,"between_identifier":1,"response":4,"repeated":0,"rt":1.973,"trial":110},{"":5,"subject":2,"statement_identifier":5,"presentation_identifier":"high","within_identifier":1,"between_identifier":1,"response":1,"repeated":1,"rt":0.87,"trial":111},{"":6,"subject":2,"statement_identifier":6,"presentation_identifier":"high","within_identifier":1,"between_identifier":1,"response":4,"repeated":1,"rt":3.015,"trial":112},{"":7,"subject":2,"statement_identifier":7,"presentation_identifier":"high","within_identifier":1,"between_identifier":1,"response":5,"repeated":0,"rt":1.307,"trial":113},{"":8,"subject":2,"statement_identifier":8,"presentation_identifier":"high","within_identifier":1,"between_identifier":1,"response":5,"repeated":1,"rt":0.944,"trial":114},{"":9,"subject":2,"statement_identifier":9,"presentation_identifier":"high","within_identifier":1,"between_identifier":1,"response":3,"repeated":0,"rt":2.967,"trial":115},{"":10,"subject":2,"statement_identifier":10,"presentation_identifier":"high","within_identifier":1,"between_identifier":1,"response":2,"repeated":1,"rt":1.125,"trial":116},{"":11,"subject":2,"statement_identifier":11,"presentation_identifier":"high","within_identifier":1,"between_identifier":1,"response":4,"repeated":1,"rt":1.728,"trial":117},{"":12,"subject":2,"statement_identifier":12,"presentation_identifier":"high","within_identifier":1,"between_identifier":1,"response":1,"repeated":0,"rt":1.466,"trial":118},{"":13,"subject":2,"statement_identifier":13,"presentation_identifier":"high","within_identifier":1,"between_identifier":1,"response":4,"repeated":1,"rt":1.237,"trial":119},{"":14,"subject":2,"statement_identifier":14,"presentation_identifier":"high","within_identifier":1,"between_identifier":1,"response":5,"repeated":0,"rt":1.424,"trial":120},{"":15,"subject":2,"statement_identifier":15,"presentation_identifier":"high","within_identifier":1,"between_identifier":1,"response":3,"repeated":1,"rt":2.281,"trial":121},{"":16,"subject":2,"statement_identifier":16,"presentation_identifier":"high","within_identifier":1,"between_identifier":1,"response":5,"repeated":1,"rt":1.155,"trial":122},{"":17,"subject":2,"statement_identifier":17,"presentation_identifier":"high","within_identifier":1,"between_identifier":1,"response":5,"repeated":0,"rt":2.931,"trial":123},{"":18,"subject":2,"statement_identifier":18,"presentation_identifier":"high","within_identifier":1,"between_identifier":1,"response":6,"repeated":1,"rt":0.784,"trial":124},{"":19,"subject":2,"statement_identifier":19,"presentation_identifier":"high","within_identifier":1,"between_identifier":1,"response":4,"repeated":1,"rt":0.905,"trial":125},{"":20,"subject":2,"statement_identifier":20,"presentation_identifier":"high","within_identifier":1,"between_identifier":1,"response":5,"repeated":1,"rt":2.365,"trial":126},{"":21,"subject":2,"statement_identifier":21,"presentation_identifier":"high","within_identifier":1,"between_identifier":1,"response":4,"repeated":0,"rt":2.353,"trial":127},{"":22,"subject":2,"statement_identifier":22,"presentation_identifier":"high","within_identifier":1,"between_identifier":1,"response":5,"repeated":0,"rt":0.681,"trial":128},{"":23,"subject":2,"statement_identifier":23,"presentation_identifier":"high","within_identifier":1,"between_identifier":1,"response":5,"repeated":0,"rt":0.701,"trial":129},{"":24,"subject":2,"statement_identifier":24,"presentation_identifier":"high","within_identifier":1,"between_identifier":1,"response":3,"repeated":1,"rt":1.149,"trial":130},{"":25,"subject":2,"statement_identifier":25,"presentation_identifier":"high","within_identifier":1,"between_identifier":1,"response":4,"repeated":0,"rt":0.681,"trial":131},{"":26,"subject":2,"statement_identifier":26,"presentation_identifier":"high","within_identifier":1,"between_identifier":1,"response":5,"repeated":1,"rt":0.836,"trial":132},{"":27,"subject":2,"statement_identifier":27,"presentation_identifier":"high","within_identifier":1,"between_identifier":1,"response":6,"repeated":0,"rt":1.025,"trial":133},{"":28,"subject":2,"statement_identifier":28,"presentation_identifier":"high","within_identifier":1,"between_identifier":1,"response":5,"repeated":1,"rt":0.917,"trial":134},{"":29,"subject":2,"statement_identifier":29,"presentation_identifier":"high","within_identifier":1,"between_identifier":1,"response":4,"repeated":1,"rt":0.441,"trial":135},{"":30,"subject":2,"statement_identifier":30,"presentation_identifier":"high","within_identifier":1,"between_identifier":1,"response":2,"repeated":1,"rt":0.726,"trial":136},{"":31,"subject":2,"statement_identifier":31,"presentation_identifier":"high","within_identifier":1,"between_identifier":1,"response":4,"repeated":1,"rt":1.545,"trial":137},{"":32,"subject":2,"statement_identifier":32,"presentation_identifier":"high","within_identifier":1,"between_identifier":1,"response":4,"repeated":1,"rt":1.006,"trial":138},{"":33,"subject":2,"statement_identifier":33,"presentation_identifier":"high","within_identifier":1,"between_identifier":1,"response":2,"repeated":1,"rt":1.045,"trial":139},{"":34,"subject":2,"statement_identifier":34,"presentation_identifier":"high","within_identifier":1,"between_identifier":1,"response":4,"repeated":1,"rt":4.869,"trial":140},{"":35,"subject":2,"statement_identifier":35,"presentation_identifier":"high","within_identifier":1,"between_identifier":1,"response":2,"repeated":1,"rt":0.578,"trial":141},{"":36,"subject":2,"statement_identifier":36,"presentation_identifier":"high","within_identifier":1,"between_identifier":1,"response":5,"repeated":1,"rt":0.839,"trial":142},{"":37,"subject":2,"statement_identifier":37,"presentation_identifier":"high","within_identifier":1,"between_identifier":1,"response":4,"repeated":0,"rt":1.729,"trial":143},{"":38,"subject":2,"statement_identifier":38,"presentation_identifier":"high","within_identifier":1,"between_identifier":1,"response":5,"repeated":1,"rt":1.658,"trial":144},{"":39,"subject":2,"statement_identifier":39,"presentation_identifier":"high","within_identifier":1,"between_identifier":1,"response":5,"repeated":1,"rt":2.819,"trial":145},{"":40,"subject":2,"statement_identifier":40,"presentation_identifier":"high","within_identifier":1,"between_identifier":1,"response":3,"repeated":1,"rt":2.28,"trial":146},{"":41,"subject":2,"statement_identifier":41,"presentation_identifier":"high","within_identifier":1,"between_identifier":1,"response":4,"repeated":1,"rt":4.011,"trial":147},{"":42,"subject":2,"statement_identifier":42,"presentation_identifier":"high","within_identifier":1,"between_identifier":1,"response":6,"repeated":1,"rt":0.935,"trial":148},{"":43,"subject":2,"statement_identifier":43,"presentation_identifier":"high","within_identifier":1,"between_identifier":1,"response":4,"repeated":1,"rt":2.554,"trial":149},{"":44,"subject":2,"statement_identifier":44,"presentation_identifier":"high","within_identifier":1,"between_identifier":1,"response":2,"repeated":1,"rt":1.481,"trial":150},{"":45,"subject":2,"statement_identifier":45,"presentation_identifier":"high","within_identifier":1,"between_identifier":1,"response":5,"repeated":1,"rt":0.999,"trial":151},{"":46,"subject":2,"statement_identifier":46,"presentation_identifier":"high","within_identifier":1,"between_identifier":1,"response":1,"repeated":1,"rt":0.966,"trial":152},{"":47,"subject":2,"statement_identifier":47,"presentation_identifier":"high","within_identifier":1,"between_identifier":1,"response":1,"repeated":1,"rt":1.594,"trial":153},{"":48,"subject":2,"statement_identifier":48,"presentation_identifier":"high","within_identifier":1,"between_identifier":1,"response":5,"repeated":1,"rt":1.3,"trial":154},{"":49,"subject":2,"statement_identifier":49,"presentation_identifier":"high","within_identifier":1,"between_identifier":1,"response":5,"repeated":1,"rt":1.124,"trial":155},{"":50,"subject":2,"statement_identifier":50,"presentation_identifier":"high","within_identifier":1,"between_identifier":1,"response":4,"repeated":1,"rt":1.598,"trial":156},{"":51,"subject":2,"statement_identifier":51,"presentation_identifier":"high","within_identifier":1,"between_identifier":1,"response":5,"repeated":0,"rt":3.482,"trial":157},{"":52,"subject":2,"statement_identifier":52,"presentation_identifier":"high","within_identifier":1,"between_identifier":1,"response":4,"repeated":0,"rt":3.171,"trial":158},{"":53,"subject":2,"statement_identifier":53,"presentation_identifier":"high","within_identifier":1,"between_identifier":1,"response":5,"repeated":1,"rt":0.746,"trial":159},{"":54,"subject":2,"statement_identifier":54,"presentation_identifier":"high","within_identifier":1,"between_identifier":1,"response":3,"repeated":1,"rt":3.374,"trial":160},{"":55,"subject":2,"statement_identifier":55,"presentation_identifier":"high","within_identifier":1,"between_identifier":1,"response":3,"repeated":1,"rt":0.48,"trial":161},{"":56,"subject":2,"statement_identifier":56,"presentation_identifier":"high","within_identifier":1,"between_identifier":1,"response":4,"repeated":0,"rt":4.66,"trial":162},{"":57,"subject":2,"statement_identifier":57,"presentation_identifier":"high","within_identifier":1,"between_identifier":1,"response":5,"repeated":1,"rt":1.323,"trial":163},{"":58,"subject":2,"statement_identifier":58,"presentation_identifier":"high","within_identifier":1,"between_identifier":1,"response":3,"repeated":0,"rt":2.831,"trial":164},{"":59,"subject":2,"statement_identifier":59,"presentation_identifier":"high","within_identifier":1,"between_identifier":1,"response":3,"repeated":0,"rt":2.848,"trial":165},{"":60,"subject":2,"statement_identifier":60,"presentation_identifier":"high","within_identifier":1,"between_identifier":1,"response":4,"repeated":0,"rt":4.262,"trial":166},{"":61,"subject":2,"statement_identifier":61,"presentation_identifier":"high","within_identifier":1,"between_identifier":1,"response":2,"repeated":0,"rt":1.511,"trial":167},{"":62,"subject":2,"statement_identifier":62,"presentation_identifier":"high","within_identifier":1,"between_identifier":1,"response":2,"repeated":1,"rt":1.305,"trial":168},{"":63,"subject":2,"statement_identifier":63,"presentation_identifier":"high","within_identifier":1,"between_identifier":1,"response":3,"repeated":0,"rt":1.736,"trial":169},{"":64,"subject":2,"statement_identifier":64,"presentation_identifier":"high","within_identifier":1,"between_identifier":1,"response":4,"repeated":1,"rt":1.096,"trial":170},{"":65,"subject":2,"statement_identifier":65,"presentation_identifier":"high","within_identifier":1,"between_identifier":1,"response":1,"repeated":1,"rt":0.71,"trial":171},{"":66,"subject":2,"statement_identifier":66,"presentation_identifier":"high","within_identifier":1,"between_identifier":1,"response":2,"repeated":1,"rt":2.283,"trial":172},{"":67,"subject":2,"statement_identifier":67,"presentation_identifier":"high","within_identifier":1,"between_identifier":1,"response":3,"repeated":1,"rt":3.258,"trial":173},{"":68,"subject":2,"statement_identifier":68,"presentation_identifier":"high","within_identifier":1,"between_identifier":1,"response":5,"repeated":1,"rt":0.53,"trial":174},{"":69,"subject":2,"statement_identifier":69,"presentation_identifier":"high","within_identifier":1,"between_identifier":1,"response":4,"repeated":1,"rt":0.495,"trial":175},{"":70,"subject":2,"statement_identifier":70,"presentation_identifier":"high","within_identifier":1,"between_identifier":1,"response":5,"repeated":0,"rt":1.257,"trial":176},{"":71,"subject":2,"statement_identifier":71,"presentation_identifier":"high","within_identifier":1,"between_identifier":1,"response":3,"repeated":0,"rt":0.569,"trial":177},{"":72,"subject":2,"statement_identifier":72,"presentation_identifier":"high","within_identifier":1,"between_identifier":1,"response":2,"repeated":0,"rt":1.241,"trial":178},{"":73,"subject":2,"statement_identifier":73,"presentation_identifier":"high","within_identifier":1,"between_identifier":1,"response":4,"repeated":1,"rt":1.623,"trial":179},{"":74,"subject":2,"statement_identifier":74,"presentation_identifier":"high","within_identifier":1,"between_identifier":1,"response":2,"repeated":1,"rt":0.927,"trial":180},{"":75,"subject":2,"statement_identifier":75,"presentation_identifier":"high","within_identifier":1,"between_identifier":1,"response":4,"repeated":1,"rt":0.878,"trial":181},{"":76,"subject":2,"statement_identifier":76,"presentation_identifier":"high","within_identifier":1,"between_identifier":1,"response":3,"repeated":1,"rt":1.494,"trial":182},{"":77,"subject":2,"statement_identifier":77,"presentation_identifier":"high","within_identifier":1,"between_identifier":1,"response":4,"repeated":1,"rt":3.178,"trial":183},{"":78,"subject":2,"statement_identifier":78,"presentation_identifier":"high","within_identifier":1,"between_identifier":1,"response":4,"repeated":1,"rt":1.61,"trial":184},{"":79,"subject":2,"statement_identifier":79,"presentation_identifier":"high","within_identifier":1,"between_identifier":1,"response":3,"repeated":1,"rt":2.776,"trial":185},{"":80,"subject":2,"statement_identifier":80,"presentation_identifier":"high","within_identifier":1,"between_identifier":1,"response":1,"repeated":0,"rt":0.923,"trial":186},{"":81,"subject":2,"statement_identifier":81,"presentation_identifier":"high","within_identifier":1,"between_identifier":1,"response":3,"repeated":0,"rt":1.756,"trial":187},{"":82,"subject":2,"statement_identifier":82,"presentation_identifier":"high","within_identifier":1,"between_identifier":1,"response":2,"repeated":0,"rt":1.925,"trial":188},{"":83,"subject":2,"statement_identifier":83,"presentation_identifier":"high","within_identifier":1,"between_identifier":1,"response":3,"repeated":0,"rt":0.57,"trial":189},{"":84,"subject":2,"statement_identifier":84,"presentation_identifier":"high","within_identifier":1,"between_identifier":1,"response":5,"repeated":1,"rt":0.78,"trial":190},{"":85,"subject":3,"statement_identifier":40,"presentation_identifier":"high","within_identifier":1,"between_identifier":1,"response":2,"repeated":0,"rt":6.158,"trial":107},{"":86,"subject":3,"statement_identifier":81,"presentation_identifier":"high","within_identifier":1,"between_identifier":1,"response":3,"repeated":1,"rt":8.601,"trial":108},{"":87,"subject":3,"statement_identifier":36,"presentation_identifier":"high","within_identifier":1,"between_identifier":1,"response":2,"repeated":0,"rt":3.478,"trial":109},{"":88,"subject":3,"statement_identifier":75,"presentation_identifier":"high","within_identifier":1,"between_identifier":1,"response":4,"repeated":1,"rt":9.015,"trial":110},{"":89,"subject":3,"statement_identifier":66,"presentation_identifier":"high","within_identifier":1,"between_identifier":1,"response":5,"repeated":0,"rt":2.435,"trial":111},{"":90,"subject":3,"statement_identifier":42,"presentation_identifier":"high","within_identifier":1,"between_identifier":1,"response":2,"repeated":1,"rt":3.092,"trial":112},{"":91,"subject":3,"statement_identifier":21,"presentation_identifier":"high","within_identifier":1,"between_identifier":1,"response":4,"repeated":1,"rt":5.855,"trial":113},{"":92,"subject":3,"statement_identifier":26,"presentation_identifier":"high","within_identifier":1,"between_identifier":1,"response":3,"repeated":0,"rt":6.514,"trial":114},{"":93,"subject":3,"statement_identifier":68,"presentation_identifier":"high","within_identifier":1,"between_identifier":1,"response":5,"repeated":1,"rt":1.747,"trial":115},{"":94,"subject":3,"statement_identifier":76,"presentation_identifier":"high","within_identifier":1,"between_identifier":1,"response":5,"repeated":0,"rt":4.489,"trial":116},{"":95,"subject":3,"statement_identifier":25,"presentation_identifier":"high","within_identifier":1,"between_identifier":1,"response":2,"repeated":1,"rt":6.076,"trial":117},{"":96,"subject":3,"statement_identifier":46,"presentation_identifier":"high","within_identifier":1,"between_identifier":1,"response":5,"repeated":1,"rt":2.939,"trial":118},{"":97,"subject":3,"statement_identifier":11,"presentation_identifier":"high","within_identifier":1,"between_identifier":1,"response":4,"repeated":1,"rt":2.498,"trial":119},{"":98,"subject":3,"statement_identifier":43,"presentation_identifier":"high","within_identifier":1,"between_identifier":1,"response":2,"repeated":0,"rt":0.879,"trial":120},{"":99,"subject":3,"statement_identifier":50,"presentation_identifier":"high","within_identifier":1,"between_identifier":1,"response":4,"repeated":1,"rt":2.199,"trial":121},{"":100,"subject":3,"statement_identifier":27,"presentation_identifier":"high","within_identifier":1,"between_identifier":1,"response":5,"repeated":1,"rt":1.361,"trial":122},{"":101,"subject":3,"statement_identifier":53,"presentation_identifier":"high","within_identifier":1,"between_identifier":1,"response":3,"repeated":1,"rt":5.131,"trial":123},{"":102,"subject":3,"statement_identifier":33,"presentation_identifier":"high","within_identifier":1,"between_identifier":1,"response":2,"repeated":0,"rt":2.985,"trial":124},{"":103,"subject":3,"statement_identifier":77,"presentation_identifier":"high","within_identifier":1,"between_identifier":1,"response":5,"repeated":1,"rt":2.071,"trial":125},{"":104,"subject":3,"statement_identifier":58,"presentation_identifier":"high","within_identifier":1,"between_identifier":1,"response":2,"repeated":1,"rt":4.286,"trial":126},{"":105,"subject":3,"statement_identifier":73,"presentation_identifier":"high","within_identifier":1,"between_identifier":1,"response":3,"repeated":0,"rt":7.3,"trial":127},{"":106,"subject":3,"statement_identifier":9,"presentation_identifier":"high","within_identifier":1,"between_identifier":1,"response":5,"repeated":1,"rt":2.218,"trial":128},{"":107,"subject":3,"statement_identifier":18,"presentation_identifier":"high","within_identifier":1,"between_identifier":1,"response":6,"repeated":0,"rt":2.268,"trial":129},{"":108,"subject":3,"statement_identifier":83,"presentation_identifier":"high","within_identifier":1,"between_identifier":1,"response":3,"repeated":1,"rt":3.034,"trial":130},{"":109,"subject":3,"statement_identifier":10,"presentation_identifier":"high","within_identifier":1,"between_identifier":1,"response":2,"repeated":1,"rt":2.431,"trial":131},{"":110,"subject":3,"statement_identifier":64,"presentation_identifier":"high","within_identifier":1,"between_identifier":1,"response":4,"repeated":0,"rt":3.041,"trial":132},{"":111,"subject":3,"statement_identifier":32,"presentation_identifier":"high","within_identifier":1,"between_identifier":1,"response":5,"repeated":1,"rt":1.704,"trial":133},{"":112,"subject":3,"statement_identifier":39,"presentation_identifier":"high","within_identifier":1,"between_identifier":1,"response":6,"repeated":1,"rt":4.41,"trial":134},{"":113,"subject":3,"statement_identifier":54,"presentation_identifier":"high","within_identifier":1,"between_identifier":1,"response":5,"repeated":0,"rt":1.875,"trial":135},{"":114,"subject":3,"statement_identifier":56,"presentation_identifier":"high","within_identifier":1,"between_identifier":1,"response":5,"repeated":1,"rt":0.874,"trial":136},{"":115,"subject":3,"statement_identifier":49,"presentation_identifier":"high","within_identifier":1,"between_identifier":1,"response":3,"repeated":1,"rt":1.66,"trial":137},{"":116,"subject":3,"statement_identifier":1,"presentation_identifier":"high","within_identifier":1,"between_identifier":1,"response":3,"repeated":1,"rt":2.335,"trial":138},{"":117,"subject":3,"statement_identifier":72,"presentation_identifier":"high","within_identifier":1,"between_identifier":1,"response":2,"repeated":1,"rt":1.026,"trial":139},{"":118,"subject":3,"statement_identifier":13,"presentation_identifier":"high","within_identifier":1,"between_identifier":1,"response":6,"repeated":1,"rt":3.413,"trial":140},{"":119,"subject":3,"statement_identifier":59,"presentation_identifier":"high","within_identifier":1,"between_identifier":1,"response":2,"repeated":1,"rt":7.119,"trial":141},{"":120,"subject":3,"statement_identifier":22,"presentation_identifier":"high","within_identifier":1,"between_identifier":1,"response":5,"repeated":1,"rt":1.151,"trial":142},{"":121,"subject":3,"statement_identifier":79,"presentation_identifier":"high","within_identifier":1,"between_identifier":1,"response":4,"repeated":1,"rt":1.714,"trial":143},{"":122,"subject":3,"statement_identifier":6,"presentation_identifier":"high","within_identifier":1,"between_identifier":1,"response":5,"repeated":0,"rt":1.597,"trial":144},{"":123,"subject":3,"statement_identifier":45,"presentation_identifier":"high","within_identifier":1,"between_identifier":1,"response":2,"repeated":1,"rt":4.253,"trial":145},{"":124,"subject":3,"statement_identifier":69,"presentation_identifier":"high","within_identifier":1,"between_identifier":1,"response":4,"repeated":1,"rt":5.108,"trial":146},{"":125,"subject":3,"statement_identifier":16,"presentation_identifier":"high","within_identifier":1,"between_identifier":1,"response":1,"repeated":0,"rt":1.358,"trial":147},{"":126,"subject":3,"statement_identifier":61,"presentation_identifier":"high","within_identifier":1,"between_identifier":1,"response":4,"repeated":1,"rt":3.054,"trial":148},{"":127,"subject":3,"statement_identifier":23,"presentation_identifier":"high","within_identifier":1,"between_identifier":1,"response":5,"repeated":1,"rt":6.16,"trial":149},{"":128,"subject":3,"statement_identifier":14,"presentation_identifier":"high","within_identifier":1,"between_identifier":1,"response":2,"repeated":1,"rt":3.465,"trial":150},{"":129,"subject":3,"statement_identifier":34,"presentation_identifier":"high","within_identifier":1,"between_identifier":1,"response":5,"repeated":0,"rt":6.209,"trial":151},{"":130,"subject":3,"statement_identifier":12,"presentation_identifier":"high","within_identifier":1,"between_identifier":1,"response":2,"repeated":1,"rt":1.152,"trial":152},{"":131,"subject":3,"statement_identifier":17,"presentation_identifier":"high","within_identifier":1,"between_identifier":1,"response":5,"repeated":1,"rt":1.991,"trial":153},{"":132,"subject":3,"statement_identifier":52,"presentation_identifier":"high","within_identifier":1,"between_identifier":1,"response":5,"repeated":1,"rt":2.517,"trial":154},{"":133,"subject":3,"statement_identifier":37,"presentation_identifier":"high","within_identifier":1,"between_identifier":1,"response":5,"repeated":1,"rt":2.533,"trial":155},{"":134,"subject":3,"statement_identifier":70,"presentation_identifier":"high","within_identifier":1,"between_identifier":1,"response":2,"repeated":1,"rt":2.669,"trial":156},{"":135,"subject":3,"statement_identifier":55,"presentation_identifier":"high","within_identifier":1,"between_identifier":1,"response":5,"repeated":1,"rt":1.332,"trial":157},{"":136,"subject":3,"statement_identifier":67,"presentation_identifier":"high","within_identifier":1,"between_identifier":1,"response":5,"repeated":1,"rt":1.578,"trial":158},{"":137,"subject":3,"statement_identifier":44,"presentation_identifier":"high","within_identifier":1,"between_identifier":1,"response":3,"repeated":0,"rt":3.806,"trial":159},{"":138,"subject":3,"statement_identifier":15,"presentation_identifier":"high","within_identifier":1,"between_identifier":1,"response":4,"repeated":0,"rt":3.484,"trial":160},{"":139,"subject":3,"statement_identifier":62,"presentation_identifier":"high","within_identifier":1,"between_identifier":1,"response":5,"repeated":0,"rt":4.1,"trial":161},{"":140,"subject":3,"statement_identifier":57,"presentation_identifier":"high","within_identifier":1,"between_identifier":1,"response":2,"repeated":0,"rt":1.853,"trial":162},{"":141,"subject":3,"statement_identifier":48,"presentation_identifier":"high","within_identifier":1,"between_identifier":1,"response":5,"repeated":0,"rt":0.676,"trial":163},{"":142,"subject":3,"statement_identifier":7,"presentation_identifier":"high","within_identifier":1,"between_identifier":1,"response":5,"repeated":1,"rt":2.04,"trial":164},{"":143,"subject":3,"statement_identifier":82,"presentation_identifier":"high","within_identifier":1,"between_identifier":1,"response":4,"repeated":1,"rt":2.134,"trial":165},{"":144,"subject":3,"statement_identifier":41,"presentation_identifier":"high","within_identifier":1,"between_identifier":1,"response":1,"repeated":0,"rt":6.444,"trial":166},{"":145,"subject":3,"statement_identifier":30,"presentation_identifier":"high","within_identifier":1,"between_identifier":1,"response":4,"repeated":1,"rt":3.644,"trial":167},{"":146,"subject":3,"statement_identifier":35,"presentation_identifier":"high","within_identifier":1,"between_identifier":1,"response":6,"repeated":1,"rt":3.587,"trial":168},{"":147,"subject":3,"statement_identifier":2,"presentation_identifier":"high","within_identifier":1,"between_identifier":1,"response":5,"repeated":1,"rt":0.797,"trial":169},{"":148,"subject":3,"statement_identifier":63,"presentation_identifier":"high","within_identifier":1,"between_identifier":1,"response":6,"repeated":1,"rt":3.373,"trial":170},{"":149,"subject":3,"statement_identifier":65,"presentation_identifier":"high","within_identifier":1,"between_identifier":1,"response":2,"repeated":1,"rt":0.966,"trial":171},{"":150,"subject":3,"statement_identifier":3,"presentation_identifier":"high","within_identifier":1,"between_identifier":1,"response":3,"repeated":0,"rt":2.541,"trial":172},{"":151,"subject":3,"statement_identifier":29,"presentation_identifier":"high","within_identifier":1,"between_identifier":1,"response":4,"repeated":1,"rt":2.319,"trial":173},{"":152,"subject":3,"statement_identifier":80,"presentation_identifier":"high","within_identifier":1,"between_identifier":1,"response":2,"repeated":1,"rt":3.45,"trial":174},{"":153,"subject":3,"statement_identifier":31,"presentation_identifier":"high","within_identifier":1,"between_identifier":1,"response":5,"repeated":0,"rt":4.491,"trial":175},{"":154,"subject":3,"statement_identifier":28,"presentation_identifier":"high","within_identifier":1,"between_identifier":1,"response":2,"repeated":0,"rt":1.448,"trial":176},{"":155,"subject":3,"statement_identifier":19,"presentation_identifier":"high","within_identifier":1,"between_identifier":1,"response":5,"repeated":1,"rt":1.079,"trial":177},{"":156,"subject":3,"statement_identifier":51,"presentation_identifier":"high","within_identifier":1,"between_identifier":1,"response":5,"repeated":1,"rt":1.255,"trial":178},{"":157,"subject":3,"statement_identifier":4,"presentation_identifier":"high","within_identifier":1,"between_identifier":1,"response":5,"repeated":1,"rt":1.809,"trial":179},{"":158,"subject":3,"statement_identifier":47,"presentation_identifier":"high","within_identifier":1,"between_identifier":1,"response":4,"repeated":1,"rt":4.52,"trial":180},{"":159,"subject":3,"statement_identifier":74,"presentation_identifier":"high","within_identifier":1,"between_identifier":1,"response":4,"repeated":0,"rt":6.584,"trial":181},{"":160,"subject":3,"statement_identifier":8,"presentation_identifier":"high","within_identifier":1,"between_identifier":1,"response":2,"repeated":0,"rt":5.977,"trial":182},{"":161,"subject":3,"statement_identifier":84,"presentation_identifier":"high","within_identifier":1,"between_identifier":1,"response":4,"repeated":0,"rt":2.878,"trial":183},{"":162,"subject":3,"statement_identifier":24,"presentation_identifier":"high","within_identifier":1,"between_identifier":1,"response":4,"repeated":1,"rt":1.202,"trial":184},{"":163,"subject":3,"statement_identifier":38,"presentation_identifier":"high","within_identifier":1,"between_identifier":1,"response":4,"repeated":0,"rt":3.504,"trial":185},{"":164,"subject":3,"statement_identifier":5,"presentation_identifier":"high","within_identifier":1,"between_identifier":1,"response":2,"repeated":0,"rt":2.514,"trial":186},{"":165,"subject":3,"statement_identifier":60,"presentation_identifier":"high","within_identifier":1,"between_identifier":1,"response":2,"repeated":1,"rt":11.809,"trial":187},{"":166,"subject":3,"statement_identifier":78,"presentation_identifier":"high","within_identifier":1,"between_identifier":1,"response":4,"repeated":1,"rt":3.71,"trial":188},{"":167,"subject":3,"statement_identifier":71,"presentation_identifier":"high","within_identifier":1,"between_identifier":1,"response":4,"repeated":1,"rt":3.574,"trial":189},{"":168,"subject":3,"statement_identifier":20,"presentation_identifier":"high","within_identifier":1,"between_identifier":1,"response":5,"repeated":1,"rt":1.364,"trial":190},{"":169,"subject":4,"statement_identifier":78,"presentation_identifier":"high","within_identifier":1,"between_identifier":1,"response":6,"repeated":1,"rt":4.683,"trial":107},{"":170,"subject":4,"statement_identifier":40,"presentation_identifier":"high","within_identifier":1,"between_identifier":1,"response":6,"repeated":1,"rt":2.186,"trial":108},{"":171,"subject":4,"statement_identifier":32,"presentation_identifier":"high","within_identifier":1,"between_identifier":1,"response":6,"repeated":1,"rt":1.046,"trial":109},{"":172,"subject":4,"statement_identifier":31,"presentation_identifier":"high","within_identifier":1,"between_identifier":1,"response":5,"repeated":1,"rt":1.663,"trial":110},{"":173,"subject":4,"statement_identifier":83,"presentation_identifier":"high","within_identifier":1,"between_identifier":1,"response":3,"repeated":0,"rt":1.479,"trial":111},{"":174,"subject":4,"statement_identifier":56,"presentation_identifier":"high","within_identifier":1,"between_identifier":1,"response":3,"repeated":0,"rt":2.468,"trial":112},{"":175,"subject":4,"statement_identifier":20,"presentation_identifier":"high","within_identifier":1,"between_identifier":1,"response":4,"repeated":1,"rt":0.699,"trial":113},{"":176,"subject":4,"statement_identifier":11,"presentation_identifier":"high","within_identifier":1,"between_identifier":1,"response":5,"repeated":1,"rt":0.527,"trial":114},{"":177,"subject":4,"statement_identifier":41,"presentation_identifier":"high","within_identifier":1,"between_identifier":1,"response":4,"repeated":1,"rt":1.404,"trial":115},{"":178,"subject":4,"statement_identifier":2,"presentation_identifier":"high","within_identifier":1,"between_identifier":1,"response":5,"repeated":1,"rt":1.004,"trial":116},{"":179,"subject":4,"statement_identifier":26,"presentation_identifier":"high","within_identifier":1,"between_identifier":1,"response":2,"repeated":1,"rt":2.692,"trial":117},{"":180,"subject":4,"statement_identifier":35,"presentation_identifier":"high","within_identifier":1,"between_identifier":1,"response":4,"repeated":1,"rt":2.134,"trial":118},{"":181,"subject":4,"statement_identifier":51,"presentation_identifier":"high","within_identifier":1,"between_identifier":1,"response":3,"repeated":0,"rt":1.504,"trial":119},{"":182,"subject":4,"statement_identifier":29,"presentation_identifier":"high","within_identifier":1,"between_identifier":1,"response":5,"repeated":1,"rt":1.327,"trial":120},{"":183,"subject":4,"statement_identifier":70,"presentation_identifier":"high","within_identifier":1,"between_identifier":1,"response":2,"repeated":0,"rt":1.582,"trial":121},{"":184,"subject":4,"statement_identifier":47,"presentation_identifier":"high","within_identifier":1,"between_identifier":1,"response":4,"repeated":1,"rt":2.007,"trial":122},{"":185,"subject":4,"statement_identifier":76,"presentation_identifier":"high","within_identifier":1,"between_identifier":1,"response":3,"repeated":1,"rt":1.179,"trial":123},{"":186,"subject":4,"statement_identifier":79,"presentation_identifier":"high","within_identifier":1,"between_identifier":1,"response":5,"repeated":1,"rt":0.705,"trial":124},{"":187,"subject":4,"statement_identifier":25,"presentation_identifier":"high","within_identifier":1,"between_identifier":1,"response":2,"repeated":0,"rt":1.259,"trial":125},{"":188,"subject":4,"statement_identifier":52,"presentation_identifier":"high","within_identifier":1,"between_identifier":1,"response":4,"repeated":0,"rt":1.228,"trial":126},{"":189,"subject":4,"statement_identifier":50,"presentation_identifier":"high","within_identifier":1,"between_identifier":1,"response":3,"repeated":1,"rt":1.26,"trial":127},{"":190,"subject":4,"statement_identifier":18,"presentation_identifier":"high","within_identifier":1,"between_identifier":1,"response":5,"repeated":1,"rt":0.965,"trial":128},{"":191,"subject":4,"statement_identifier":9,"presentation_identifier":"high","within_identifier":1,"between_identifier":1,"response":5,"repeated":0,"rt":1.307,"trial":129},{"":192,"subject":4,"statement_identifier":77,"presentation_identifier":"high","within_identifier":1,"between_identifier":1,"response":5,"repeated":1,"rt":1.549,"trial":130},{"":193,"subject":4,"statement_identifier":59,"presentation_identifier":"high","within_identifier":1,"between_identifier":1,"response":2,"repeated":0,"rt":1.137,"trial":131},{"":194,"subject":4,"statement_identifier":36,"presentation_identifier":"high","within_identifier":1,"between_identifier":1,"response":3,"repeated":1,"rt":1.069,"trial":132},{"":195,"subject":4,"statement_identifier":64,"presentation_identifier":"high","within_identifier":1,"between_identifier":1,"response":4,"repeated":1,"rt":0.717,"trial":133},{"":196,"subject":4,"statement_identifier":21,"presentation_identifier":"high","within_identifier":1,"between_identifier":1,"response":5,"repeated":0,"rt":0.979,"trial":134},{"":197,"subject":4,"statement_identifier":27,"presentation_identifier":"high","within_identifier":1,"between_identifier":1,"response":2,"repeated":0,"rt":1.431,"trial":135},{"":198,"subject":4,"statement_identifier":28,"presentation_identifier":"high","within_identifier":1,"between_identifier":1,"response":4,"repeated":1,"rt":1.19,"trial":136},{"":199,"subject":4,"statement_identifier":66,"presentation_identifier":"high","within_identifier":1,"between_identifier":1,"response":5,"repeated":1,"rt":1.189,"trial":137},{"":200,"subject":4,"statement_identifier":71,"presentation_identifier":"high","within_identifier":1,"between_identifier":1,"response":2,"repeated":0,"rt":1.086,"trial":138},{"":201,"subject":4,"statement_identifier":23,"presentation_identifier":"high","within_identifier":1,"between_identifier":1,"response":3,"repeated":0,"rt":1.168,"trial":139},{"":202,"subject":4,"statement_identifier":73,"presentation_identifier":"high","within_identifier":1,"between_identifier":1,"response":3,"repeated":1,"rt":1.928,"trial":140},{"":203,"subject":4,"statement_identifier":49,"presentation_identifier":"high","within_identifier":1,"between_identifier":1,"response":5,"repeated":1,"rt":1.65,"trial":141},{"":204,"subject":4,"statement_identifier":55,"presentation_identifier":"high","within_identifier":1,"between_identifier":1,"response":3,"repeated":1,"rt":1.008,"trial":142},{"":205,"subject":4,"statement_identifier":60,"presentation_identifier":"high","within_identifier":1,"between_identifier":1,"response":5,"repeated":0,"rt":0.808,"trial":143},{"":206,"subject":4,"statement_identifier":44,"presentation_identifier":"high","within_identifier":1,"between_identifier":1,"response":4,"repeated":1,"rt":1.11,"trial":144},{"":207,"subject":4,"statement_identifier":53,"presentation_identifier":"high","within_identifier":1,"between_identifier":1,"response":6,"repeated":1,"rt":1.075,"trial":145},{"":208,"subject":4,"statement_identifier":5,"presentation_identifier":"high","within_identifier":1,"between_identifier":1,"response":5,"repeated":1,"rt":1.833,"trial":146},{"":209,"subject":4,"statement_identifier":7,"presentation_identifier":"high","within_identifier":1,"between_identifier":1,"response":2,"repeated":0,"rt":1.216,"trial":147},{"":210,"subject":4,"statement_identifier":38,"presentation_identifier":"high","within_identifier":1,"between_identifier":1,"response":3,"repeated":1,"rt":0.848,"trial":148},{"":211,"subject":4,"statement_identifier":10,"presentation_identifier":"high","within_identifier":1,"between_identifier":1,"response":3,"repeated":1,"rt":1.077,"trial":149},{"":212,"subject":4,"statement_identifier":42,"presentation_identifier":"high","within_identifier":1,"between_identifier":1,"response":5,"repeated":1,"rt":0.826,"trial":150},{"":213,"subject":4,"statement_identifier":17,"presentation_identifier":"high","within_identifier":1,"between_identifier":1,"response":3,"repeated":0,"rt":4.452,"trial":151},{"":214,"subject":4,"statement_identifier":54,"presentation_identifier":"high","within_identifier":1,"between_identifier":1,"response":4,"repeated":1,"rt":1.23,"trial":152},{"":215,"subject":4,"statement_identifier":58,"presentation_identifier":"high","within_identifier":1,"between_identifier":1,"response":4,"repeated":0,"rt":2.511,"trial":153},{"":216,"subject":4,"statement_identifier":65,"presentation_identifier":"high","within_identifier":1,"between_identifier":1,"response":3,"repeated":1,"rt":0.696,"trial":154},{"":217,"subject":4,"statement_identifier":84,"presentation_identifier":"high","within_identifier":1,"between_identifier":1,"response":4,"repeated":1,"rt":0.615,"trial":155},{"":218,"subject":4,"statement_identifier":82,"presentation_identifier":"high","within_identifier":1,"between_identifier":1,"response":3,"repeated":0,"rt":0.966,"trial":156},{"":219,"subject":4,"statement_identifier":4,"presentation_identifier":"high","within_identifier":1,"between_identifier":1,"response":4,"repeated":0,"rt":0.743,"trial":157},{"":220,"subject":4,"statement_identifier":68,"presentation_identifier":"high","within_identifier":1,"between_identifier":1,"response":4,"repeated":1,"rt":0.589,"trial":158},{"":221,"subject":4,"statement_identifier":33,"presentation_identifier":"high","within_identifier":1,"between_identifier":1,"response":5,"repeated":1,"rt":1.724,"trial":159},{"":222,"subject":4,"statement_identifier":16,"presentation_identifier":"high","within_identifier":1,"between_identifier":1,"response":5,"repeated":1,"rt":1.08,"trial":160},{"":223,"subject":4,"statement_identifier":39,"presentation_identifier":"high","within_identifier":1,"between_identifier":1,"response":3,"repeated":1,"rt":1.005,"trial":161},{"":224,"subject":4,"statement_identifier":15,"presentation_identifier":"high","within_identifier":1,"between_identifier":1,"response":4,"repeated":1,"rt":1.244,"trial":162},{"":225,"subject":4,"statement_identifier":74,"presentation_identifier":"high","within_identifier":1,"between_identifier":1,"response":2,"repeated":1,"rt":1.007,"trial":163},{"":226,"subject":4,"statement_identifier":72,"presentation_identifier":"high","within_identifier":1,"between_identifier":1,"response":1,"repeated":0,"rt":0.809,"trial":164},{"":227,"subject":4,"statement_identifier":69,"presentation_identifier":"high","within_identifier":1,"between_identifier":1,"response":2,"repeated":1,"rt":1.249,"trial":165},{"":228,"subject":4,"statement_identifier":37,"presentation_identifier":"high","within_identifier":1,"between_identifier":1,"response":4,"repeated":0,"rt":1.935,"trial":166},{"":229,"subject":4,"statement_identifier":13,"presentation_identifier":"high","within_identifier":1,"between_identifier":1,"response":3,"repeated":1,"rt":0.976,"trial":167},{"":230,"subject":4,"statement_identifier":81,"presentation_identifier":"high","within_identifier":1,"between_identifier":1,"response":5,"repeated":0,"rt":1.256,"trial":168},{"":231,"subject":4,"statement_identifier":43,"presentation_identifier":"high","within_identifier":1,"between_identifier":1,"response":4,"repeated":1,"rt":0.848,"trial":169},{"":232,"subject":4,"statement_identifier":1,"presentation_identifier":"high","within_identifier":1,"between_identifier":1,"response":3,"repeated":0,"rt":1.017,"trial":170},{"":233,"subject":4,"statement_identifier":61,"presentation_identifier":"high","within_identifier":1,"between_identifier":1,"response":2,"repeated":0,"rt":2.112,"trial":171},{"":234,"subject":4,"statement_identifier":3,"presentation_identifier":"high","within_identifier":1,"between_identifier":1,"response":3,"repeated":1,"rt":1.833,"trial":172},{"":235,"subject":4,"statement_identifier":12,"presentation_identifier":"high","within_identifier":1,"between_identifier":1,"response":4,"repeated":0,"rt":3.294,"trial":173},{"":236,"subject":4,"statement_identifier":62,"presentation_identifier":"high","within_identifier":1,"between_identifier":1,"response":4,"repeated":1,"rt":1.665,"trial":174},{"":237,"subject":4,"statement_identifier":19,"presentation_identifier":"high","within_identifier":1,"between_identifier":1,"response":3,"repeated":1,"rt":1.422,"trial":175},{"":238,"subject":4,"statement_identifier":45,"presentation_identifier":"high","within_identifier":1,"between_identifier":1,"response":3,"repeated":1,"rt":1.311,"trial":176},{"":239,"subject":4,"statement_identifier":6,"presentation_identifier":"high","within_identifier":1,"between_identifier":1,"response":4,"repeated":1,"rt":1.265,"trial":177},{"":240,"subject":4,"statement_identifier":75,"presentation_identifier":"high","within_identifier":1,"between_identifier":1,"response":4,"repeated":1,"rt":1.256,"trial":178},{"":241,"subject":4,"statement_identifier":8,"presentation_identifier":"high","within_identifier":1,"between_identifier":1,"response":4,"repeated":1,"rt":1.395,"trial":179},{"":242,"subject":4,"statement_identifier":30,"presentation_identifier":"high","within_identifier":1,"between_identifier":1,"response":3,"repeated":1,"rt":1.013,"trial":180},{"":243,"subject":4,"statement_identifier":22,"presentation_identifier":"high","within_identifier":1,"between_identifier":1,"response":5,"repeated":0,"rt":0.789,"trial":181},{"":244,"subject":4,"statement_identifier":63,"presentation_identifier":"high","within_identifier":1,"between_identifier":1,"response":4,"repeated":0,"rt":1.533,"trial":182},{"":245,"subject":4,"statement_identifier":67,"presentation_identifier":"high","within_identifier":1,"between_identifier":1,"response":4,"repeated":1,"rt":1.709,"trial":183},{"":246,"subject":4,"statement_identifier":46,"presentation_identifier":"high","within_identifier":1,"between_identifier":1,"response":3,"repeated":1,"rt":1.142,"trial":184},{"":247,"subject":4,"statement_identifier":80,"presentation_identifier":"high","within_identifier":1,"between_identifier":1,"response":5,"repeated":0,"rt":1.357,"trial":185},{"":248,"subject":4,"statement_identifier":48,"presentation_identifier":"high","within_identifier":1,"between_identifier":1,"response":4,"repeated":1,"rt":0.833,"trial":186},{"":249,"subject":4,"statement_identifier":34,"presentation_identifier":"high","within_identifier":1,"between_identifier":1,"response":4,"repeated":1,"rt":0.542,"trial":187},{"":250,"subject":4,"statement_identifier":57,"presentation_identifier":"high","within_identifier":1,"between_identifier":1,"response":4,"repeated":1,"rt":0.72,"trial":188},{"":251,"subject":4,"statement_identifier":14,"presentation_identifier":"high","within_identifier":1,"between_identifier":1,"response":4,"repeated":0,"rt":1.135,"trial":189},{"":252,"subject":4,"statement_identifier":24,"presentation_identifier":"high","within_identifier":1,"between_identifier":1,"response":4,"repeated":1,"rt":0.962,"trial":190},{"":253,"subject":6,"statement_identifier":72,"presentation_identifier":"low","within_identifier":1,"between_identifier":1,"response":3,"repeated":0,"rt":4.88,"trial":107},{"":254,"subject":6,"statement_identifier":12,"presentation_identifier":"low","within_identifier":1,"between_identifier":1,"response":2,"repeated":0,"rt":3.253,"trial":108},{"":255,"subject":6,"statement_identifier":57,"presentation_identifier":"low","within_identifier":1,"between_identifier":1,"response":6,"repeated":1,"rt":2.38,"trial":109},{"":256,"subject":6,"statement_identifier":8,"presentation_identifier":"low","within_identifier":1,"between_identifier":1,"response":4,"repeated":1,"rt":1.289,"trial":110},{"":257,"subject":6,"statement_identifier":32,"presentation_identifier":"low","within_identifier":1,"between_identifier":1,"response":3,"repeated":0,"rt":4.924,"trial":111},{"":258,"subject":6,"statement_identifier":58,"presentation_identifier":"low","within_identifier":1,"between_identifier":1,"response":4,"repeated":0,"rt":3.227,"trial":112},{"":259,"subject":6,"statement_identifier":63,"presentation_identifier":"low","within_identifier":1,"between_identifier":1,"response":5,"repeated":0,"rt":1.521,"trial":113},{"":260,"subject":6,"statement_identifier":31,"presentation_identifier":"low","within_identifier":1,"between_identifier":1,"response":4,"repeated":1,"rt":1.704,"trial":114},{"":261,"subject":6,"statement_identifier":15,"presentation_identifier":"low","within_identifier":1,"between_identifier":1,"response":4,"repeated":1,"rt":1.032,"trial":115},{"":262,"subject":6,"statement_identifier":41,"presentation_identifier":"low","within_identifier":1,"between_identifier":1,"response":3,"repeated":1,"rt":2.558,"trial":116},{"":263,"subject":6,"statement_identifier":25,"presentation_identifier":"low","within_identifier":1,"between_identifier":1,"response":4,"repeated":0,"rt":1.98,"trial":117},{"":264,"subject":6,"statement_identifier":38,"presentation_identifier":"low","within_identifier":1,"between_identifier":1,"response":5,"repeated":1,"rt":0.82,"trial":118},{"":265,"subject":6,"statement_identifier":48,"presentation_identifier":"low","within_identifier":1,"between_identifier":1,"response":4,"repeated":1,"rt":0.656,"trial":119},{"":266,"subject":6,"statement_identifier":80,"presentation_identifier":"low","within_identifier":1,"between_identifier":1,"response":5,"repeated":0,"rt":1.458,"trial":120},{"":267,"subject":6,"statement_identifier":19,"presentation_identifier":"low","within_identifier":1,"between_identifier":1,"response":5,"repeated":0,"rt":1.152,"trial":121},{"":268,"subject":6,"statement_identifier":76,"presentation_identifier":"low","within_identifier":1,"between_identifier":1,"response":4,"repeated":1,"rt":0.954,"trial":122},{"":269,"subject":6,"statement_identifier":14,"presentation_identifier":"low","within_identifier":1,"between_identifier":1,"response":5,"repeated":0,"rt":3.594,"trial":123},{"":270,"subject":6,"statement_identifier":62,"presentation_identifier":"low","within_identifier":1,"between_identifier":1,"response":5,"repeated":1,"rt":0.71,"trial":124},{"":271,"subject":6,"statement_identifier":28,"presentation_identifier":"low","within_identifier":1,"between_identifier":1,"response":4,"repeated":1,"rt":0.538,"trial":125},{"":272,"subject":6,"statement_identifier":60,"presentation_identifier":"low","within_identifier":1,"between_identifier":1,"response":3,"repeated":0,"rt":1.275,"trial":126},{"":273,"subject":6,"statement_identifier":6,"presentation_identifier":"low","within_identifier":1,"between_identifier":1,"response":4,"repeated":1,"rt":0.661,"trial":127},{"":274,"subject":6,"statement_identifier":40,"presentation_identifier":"low","within_identifier":1,"between_identifier":1,"response":5,"repeated":1,"rt":0.674,"trial":128},{"":275,"subject":6,"statement_identifier":20,"presentation_identifier":"low","within_identifier":1,"between_identifier":1,"response":4,"repeated":0,"rt":1.676,"trial":129},{"":276,"subject":6,"statement_identifier":11,"presentation_identifier":"low","within_identifier":1,"between_identifier":1,"response":4,"repeated":0,"rt":0.926,"trial":130},{"":277,"subject":6,"statement_identifier":39,"presentation_identifier":"low","within_identifier":1,"between_identifier":1,"response":5,"repeated":0,"rt":0.738,"trial":131},{"":278,"subject":6,"statement_identifier":4,"presentation_identifier":"low","within_identifier":1,"between_identifier":1,"response":3,"repeated":0,"rt":2.908,"trial":132},{"":279,"subject":6,"statement_identifier":66,"presentation_identifier":"low","within_identifier":1,"between_identifier":1,"response":4,"repeated":1,"rt":1.388,"trial":133},{"":280,"subject":6,"statement_identifier":65,"presentation_identifier":"low","within_identifier":1,"between_identifier":1,"response":5,"repeated":0,"rt":0.772,"trial":134},{"":281,"subject":6,"statement_identifier":35,"presentation_identifier":"low","within_identifier":1,"between_identifier":1,"response":3,"repeated":0,"rt":1.531,"trial":135},{"":282,"subject":6,"statement_identifier":46,"presentation_identifier":"low","within_identifier":1,"between_identifier":1,"response":3,"repeated":0,"rt":1.189,"trial":136},{"":283,"subject":6,"statement_identifier":73,"presentation_identifier":"low","within_identifier":1,"between_identifier":1,"response":3,"repeated":1,"rt":1.066,"trial":137},{"":284,"subject":6,"statement_identifier":67,"presentation_identifier":"low","within_identifier":1,"between_identifier":1,"response":4,"repeated":0,"rt":0.656,"trial":138},{"":285,"subject":6,"statement_identifier":42,"presentation_identifier":"low","within_identifier":1,"between_identifier":1,"response":5,"repeated":0,"rt":2.176,"trial":139},{"":286,"subject":6,"statement_identifier":59,"presentation_identifier":"low","within_identifier":1,"between_identifier":1,"response":5,"repeated":0,"rt":1.142,"trial":140},{"":287,"subject":6,"statement_identifier":69,"presentation_identifier":"low","within_identifier":1,"between_identifier":1,"response":4,"repeated":0,"rt":0.908,"trial":141},{"":288,"subject":6,"statement_identifier":49,"presentation_identifier":"low","within_identifier":1,"between_identifier":1,"response":4,"repeated":0,"rt":0.721,"trial":142},{"":289,"subject":6,"statement_identifier":1,"presentation_identifier":"low","within_identifier":1,"between_identifier":1,"response":4,"repeated":0,"rt":1.345,"trial":143},{"":290,"subject":6,"statement_identifier":16,"presentation_identifier":"low","within_identifier":1,"between_identifier":1,"response":5,"repeated":1,"rt":0.868,"trial":144},{"":291,"subject":6,"statement_identifier":81,"presentation_identifier":"low","within_identifier":1,"between_identifier":1,"response":4,"repeated":0,"rt":1.253,"trial":145},{"":292,"subject":6,"statement_identifier":24,"presentation_identifier":"low","within_identifier":1,"between_identifier":1,"response":4,"repeated":0,"rt":0.539,"trial":146},{"":293,"subject":6,"statement_identifier":50,"presentation_identifier":"low","within_identifier":1,"between_identifier":1,"response":3,"repeated":0,"rt":0.637,"trial":147},{"":294,"subject":6,"statement_identifier":78,"presentation_identifier":"low","within_identifier":1,"between_identifier":1,"response":2,"repeated":0,"rt":1.754,"trial":148},{"":295,"subject":6,"statement_identifier":37,"presentation_identifier":"low","within_identifier":1,"between_identifier":1,"response":4,"repeated":0,"rt":1.266,"trial":149},{"":296,"subject":6,"statement_identifier":33,"presentation_identifier":"low","within_identifier":1,"between_identifier":1,"response":5,"repeated":1,"rt":0.714,"trial":150},{"":297,"subject":6,"statement_identifier":17,"presentation_identifier":"low","within_identifier":1,"between_identifier":1,"response":4,"repeated":0,"rt":2.796,"trial":151},{"":298,"subject":6,"statement_identifier":68,"presentation_identifier":"low","within_identifier":1,"between_identifier":1,"response":4,"repeated":0,"rt":1.114,"trial":152},{"":299,"subject":6,"statement_identifier":61,"presentation_identifier":"low","within_identifier":1,"between_identifier":1,"response":5,"repeated":0,"rt":0.666,"trial":153},{"":300,"subject":6,"statement_identifier":84,"presentation_identifier":"low","within_identifier":1,"between_identifier":1,"response":4,"repeated":1,"rt":1.135,"trial":154},{"":301,"subject":6,"statement_identifier":83,"presentation_identifier":"low","within_identifier":1,"between_identifier":1,"response":2,"repeated":0,"rt":1.027,"trial":155},{"":302,"subject":6,"statement_identifier":51,"presentation_identifier":"low","within_identifier":1,"between_identifier":1,"response":1,"repeated":0,"rt":1.577,"trial":156},{"":303,"subject":6,"statement_identifier":47,"presentation_identifier":"low","within_identifier":1,"between_identifier":1,"response":2,"repeated":0,"rt":2.376,"trial":157},{"":304,"subject":6,"statement_identifier":23,"presentation_identifier":"low","within_identifier":1,"between_identifier":1,"response":4,"repeated":0,"rt":0.863,"trial":158},{"":305,"subject":6,"statement_identifier":52,"presentation_identifier":"low","within_identifier":1,"between_identifier":1,"response":4,"repeated":0,"rt":0.671,"trial":159},{"":306,"subject":6,"statement_identifier":45,"presentation_identifier":"low","within_identifier":1,"between_identifier":1,"response":5,"repeated":0,"rt":0.789,"trial":160},{"":307,"subject":6,"statement_identifier":18,"presentation_identifier":"low","within_identifier":1,"between_identifier":1,"response":5,"repeated":1,"rt":0.737,"trial":161},{"":308,"subject":6,"statement_identifier":44,"presentation_identifier":"low","within_identifier":1,"between_identifier":1,"response":3,"repeated":1,"rt":0.82,"trial":162},{"":309,"subject":6,"statement_identifier":2,"presentation_identifier":"low","within_identifier":1,"between_identifier":1,"response":4,"repeated":0,"rt":0.649,"trial":163},{"":310,"subject":6,"statement_identifier":9,"presentation_identifier":"low","within_identifier":1,"between_identifier":1,"response":3,"repeated":0,"rt":2.431,"trial":164},{"":311,"subject":6,"statement_identifier":36,"presentation_identifier":"low","within_identifier":1,"between_identifier":1,"response":3,"repeated":1,"rt":0.608,"trial":165},{"":312,"subject":6,"statement_identifier":54,"presentation_identifier":"low","within_identifier":1,"between_identifier":1,"response":2,"repeated":1,"rt":1.496,"trial":166},{"":313,"subject":6,"statement_identifier":53,"presentation_identifier":"low","within_identifier":1,"between_identifier":1,"response":2,"repeated":0,"rt":0.74,"trial":167},{"":314,"subject":6,"statement_identifier":27,"presentation_identifier":"low","within_identifier":1,"between_identifier":1,"response":4,"repeated":0,"rt":0.826,"trial":168},{"":315,"subject":6,"statement_identifier":77,"presentation_identifier":"low","within_identifier":1,"between_identifier":1,"response":1,"repeated":0,"rt":0.89,"trial":169},{"":316,"subject":6,"statement_identifier":30,"presentation_identifier":"low","within_identifier":1,"between_identifier":1,"response":5,"repeated":0,"rt":0.888,"trial":170},{"":317,"subject":6,"statement_identifier":71,"presentation_identifier":"low","within_identifier":1,"between_identifier":1,"response":3,"repeated":0,"rt":0.954,"trial":171},{"":318,"subject":6,"statement_identifier":82,"presentation_identifier":"low","within_identifier":1,"between_identifier":1,"response":3,"repeated":0,"rt":1.655,"trial":172},{"":319,"subject":6,"statement_identifier":64,"presentation_identifier":"low","within_identifier":1,"between_identifier":1,"response":4,"repeated":1,"rt":2.187,"trial":173},{"":320,"subject":6,"statement_identifier":29,"presentation_identifier":"low","within_identifier":1,"between_identifier":1,"response":4,"repeated":0,"rt":2.649,"trial":174},{"":321,"subject":6,"statement_identifier":75,"presentation_identifier":"low","within_identifier":1,"between_identifier":1,"response":4,"repeated":0,"rt":0.525,"trial":175},{"":322,"subject":6,"statement_identifier":55,"presentation_identifier":"low","within_identifier":1,"between_identifier":1,"response":3,"repeated":0,"rt":1.007,"trial":176},{"":323,"subject":6,"statement_identifier":43,"presentation_identifier":"low","within_identifier":1,"between_identifier":1,"response":5,"repeated":1,"rt":1.114,"trial":177},{"":324,"subject":6,"statement_identifier":10,"presentation_identifier":"low","within_identifier":1,"between_identifier":1,"response":4,"repeated":0,"rt":0.667,"trial":178},{"":325,"subject":6,"statement_identifier":21,"presentation_identifier":"low","within_identifier":1,"between_identifier":1,"response":3,"repeated":0,"rt":0.869,"trial":179},{"":326,"subject":6,"statement_identifier":26,"presentation_identifier":"low","within_identifier":1,"between_identifier":1,"response":4,"repeated":1,"rt":1.197,"trial":180},{"":327,"subject":6,"statement_identifier":56,"presentation_identifier":"low","within_identifier":1,"between_identifier":1,"response":2,"repeated":0,"rt":0.76,"trial":181},{"":328,"subject":6,"statement_identifier":70,"presentation_identifier":"low","within_identifier":1,"between_identifier":1,"response":3,"repeated":0,"rt":1.13,"trial":182},{"":329,"subject":6,"statement_identifier":7,"presentation_identifier":"low","within_identifier":1,"between_identifier":1,"response":4,"repeated":0,"rt":0.95,"trial":183},{"":330,"subject":6,"statement_identifier":34,"presentation_identifier":"low","within_identifier":1,"between_identifier":1,"response":6,"repeated":1,"rt":1.115,"trial":184},{"":331,"subject":6,"statement_identifier":79,"presentation_identifier":"low","within_identifier":1,"between_identifier":1,"response":4,"repeated":0,"rt":0.521,"trial":185},{"":332,"subject":6,"statement_identifier":74,"presentation_identifier":"low","within_identifier":1,"between_identifier":1,"response":3,"repeated":1,"rt":0.721,"trial":186},{"":333,"subject":6,"statement_identifier":13,"presentation_identifier":"low","within_identifier":1,"between_identifier":1,"response":3,"repeated":0,"rt":2.328,"trial":187},{"":334,"subject":6,"statement_identifier":22,"presentation_identifier":"low","within_identifier":1,"between_identifier":1,"response":4,"repeated":0,"rt":0.907,"trial":188},{"":335,"subject":6,"statement_identifier":5,"presentation_identifier":"low","within_identifier":1,"between_identifier":1,"response":5,"repeated":1,"rt":1.144,"trial":189},{"":336,"subject":6,"statement_identifier":3,"presentation_identifier":"low","within_identifier":1,"between_identifier":1,"response":2,"repeated":1,"rt":0.835,"trial":190},{"":337,"subject":7,"statement_identifier":53,"presentation_identifier":"low","within_identifier":1,"between_identifier":1,"response":1,"repeated":1,"rt":8.887,"trial":107},{"":338,"subject":7,"statement_identifier":4,"presentation_identifier":"low","within_identifier":1,"between_identifier":1,"response":4,"repeated":0,"rt":3.713,"trial":108},{"":339,"subject":7,"statement_identifier":49,"presentation_identifier":"low","within_identifier":1,"between_identifier":1,"response":4,"repeated":1,"rt":1.102,"trial":109},{"":340,"subject":7,"statement_identifier":60,"presentation_identifier":"low","within_identifier":1,"between_identifier":1,"response":5,"repeated":0,"rt":4.183,"trial":110},{"":341,"subject":7,"statement_identifier":16,"presentation_identifier":"low","within_identifier":1,"between_identifier":1,"response":2,"repeated":0,"rt":2.694,"trial":111},{"":342,"subject":7,"statement_identifier":71,"presentation_identifier":"low","within_identifier":1,"between_identifier":1,"response":3,"repeated":0,"rt":2.603,"trial":112},{"":343,"subject":7,"statement_identifier":31,"presentation_identifier":"low","within_identifier":1,"between_identifier":1,"response":4,"repeated":0,"rt":1.299,"trial":113},{"":344,"subject":7,"statement_identifier":36,"presentation_identifier":"low","within_identifier":1,"between_identifier":1,"response":5,"repeated":0,"rt":2.843,"trial":114},{"":345,"subject":7,"statement_identifier":42,"presentation_identifier":"low","within_identifier":1,"between_identifier":1,"response":4,"repeated":1,"rt":1.053,"trial":115},{"":346,"subject":7,"statement_identifier":27,"presentation_identifier":"low","within_identifier":1,"between_identifier":1,"response":5,"repeated":0,"rt":0.736,"trial":116},{"":347,"subject":7,"statement_identifier":13,"presentation_identifier":"low","within_identifier":1,"between_identifier":1,"response":5,"repeated":1,"rt":1.073,"trial":117},{"":348,"subject":7,"statement_identifier":51,"presentation_identifier":"low","within_identifier":1,"between_identifier":1,"response":1,"repeated":0,"rt":4.909,"trial":118},{"":349,"subject":7,"statement_identifier":47,"presentation_identifier":"low","within_identifier":1,"between_identifier":1,"response":5,"repeated":1,"rt":2.096,"trial":119},{"":350,"subject":7,"statement_identifier":62,"presentation_identifier":"low","within_identifier":1,"between_identifier":1,"response":4,"repeated":0,"rt":1.408,"trial":120},{"":351,"subject":7,"statement_identifier":7,"presentation_identifier":"low","within_identifier":1,"between_identifier":1,"response":2,"repeated":0,"rt":2.256,"trial":121},{"":352,"subject":7,"statement_identifier":68,"presentation_identifier":"low","within_identifier":1,"between_identifier":1,"response":5,"repeated":1,"rt":0.844,"trial":122},{"":353,"subject":7,"statement_identifier":2,"presentation_identifier":"low","within_identifier":1,"between_identifier":1,"response":4,"repeated":1,"rt":1.091,"trial":123},{"":354,"subject":7,"statement_identifier":70,"presentation_identifier":"low","within_identifier":1,"between_identifier":1,"response":3,"repeated":0,"rt":0.901,"trial":124},{"":355,"subject":7,"statement_identifier":40,"presentation_identifier":"low","within_identifier":1,"between_identifier":1,"response":5,"repeated":0,"rt":1.489,"trial":125},{"":356,"subject":7,"statement_identifier":5,"presentation_identifier":"low","within_identifier":1,"between_identifier":1,"response":5,"repeated":0,"rt":0.772,"trial":126},{"":357,"subject":7,"statement_identifier":50,"presentation_identifier":"low","within_identifier":1,"between_identifier":1,"response":4,"repeated":1,"rt":1.458,"trial":127},{"":358,"subject":7,"statement_identifier":25,"presentation_identifier":"low","within_identifier":1,"between_identifier":1,"response":4,"repeated":0,"rt":1.055,"trial":128},{"":359,"subject":7,"statement_identifier":32,"presentation_identifier":"low","within_identifier":1,"between_identifier":1,"response":5,"repeated":1,"rt":0.878,"trial":129},{"":360,"subject":7,"statement_identifier":35,"presentation_identifier":"low","within_identifier":1,"between_identifier":1,"response":5,"repeated":1,"rt":0.767,"trial":130},{"":361,"subject":7,"statement_identifier":28,"presentation_identifier":"low","within_identifier":1,"between_identifier":1,"response":4,"repeated":0,"rt":2.533,"trial":131},{"":362,"subject":7,"statement_identifier":84,"presentation_identifier":"low","within_identifier":1,"between_identifier":1,"response":2,"repeated":0,"rt":2.972,"trial":132},{"":363,"subject":7,"statement_identifier":6,"presentation_identifier":"low","within_identifier":1,"between_identifier":1,"response":4,"repeated":0,"rt":1.568,"trial":133},{"":364,"subject":7,"statement_identifier":38,"presentation_identifier":"low","within_identifier":1,"between_identifier":1,"response":3,"repeated":0,"rt":1.81,"trial":134},{"":365,"subject":7,"statement_identifier":39,"presentation_identifier":"low","within_identifier":1,"between_identifier":1,"response":5,"repeated":1,"rt":1.885,"trial":135},{"":366,"subject":7,"statement_identifier":37,"presentation_identifier":"low","within_identifier":1,"between_identifier":1,"response":4,"repeated":0,"rt":0.969,"trial":136},{"":367,"subject":7,"statement_identifier":23,"presentation_identifier":"low","within_identifier":1,"between_identifier":1,"response":6,"repeated":0,"rt":1.046,"trial":137},{"":368,"subject":7,"statement_identifier":55,"presentation_identifier":"low","within_identifier":1,"between_identifier":1,"response":6,"repeated":1,"rt":2.141,"trial":138},{"":369,"subject":7,"statement_identifier":33,"presentation_identifier":"low","within_identifier":1,"between_identifier":1,"response":4,"repeated":0,"rt":2.72,"trial":139},{"":370,"subject":7,"statement_identifier":65,"presentation_identifier":"low","within_identifier":1,"between_identifier":1,"response":5,"repeated":1,"rt":1.269,"trial":140},{"":371,"subject":7,"statement_identifier":52,"presentation_identifier":"low","within_identifier":1,"between_identifier":1,"response":5,"repeated":0,"rt":0.923,"trial":141},{"":372,"subject":7,"statement_identifier":12,"presentation_identifier":"low","within_identifier":1,"between_identifier":1,"response":3,"repeated":0,"rt":2.682,"trial":142},{"":373,"subject":7,"statement_identifier":8,"presentation_identifier":"low","within_identifier":1,"between_identifier":1,"response":2,"repeated":0,"rt":5.45,"trial":143},{"":374,"subject":7,"statement_identifier":78,"presentation_identifier":"low","within_identifier":1,"between_identifier":1,"response":2,"repeated":1,"rt":1.46,"trial":144},{"":375,"subject":7,"statement_identifier":82,"presentation_identifier":"low","within_identifier":1,"between_identifier":1,"response":3,"repeated":0,"rt":0.523,"trial":145},{"":376,"subject":7,"statement_identifier":67,"presentation_identifier":"low","within_identifier":1,"between_identifier":1,"response":5,"repeated":1,"rt":0.727,"trial":146},{"":377,"subject":7,"statement_identifier":59,"presentation_identifier":"low","within_identifier":1,"between_identifier":1,"response":2,"repeated":0,"rt":1.244,"trial":147},{"":378,"subject":7,"statement_identifier":83,"presentation_identifier":"low","within_identifier":1,"between_identifier":1,"response":5,"repeated":0,"rt":0.588,"trial":148},{"":379,"subject":7,"statement_identifier":18,"presentation_identifier":"low","within_identifier":1,"between_identifier":1,"response":3,"repeated":0,"rt":3.012,"trial":149},{"":380,"subject":7,"statement_identifier":77,"presentation_identifier":"low","within_identifier":1,"between_identifier":1,"response":1,"repeated":1,"rt":1.683,"trial":150},{"":381,"subject":7,"statement_identifier":61,"presentation_identifier":"low","within_identifier":1,"between_identifier":1,"response":3,"repeated":0,"rt":1.292,"trial":151},{"":382,"subject":7,"statement_identifier":14,"presentation_identifier":"low","within_identifier":1,"between_identifier":1,"response":3,"repeated":0,"rt":1.024,"trial":152},{"":383,"subject":7,"statement_identifier":56,"presentation_identifier":"low","within_identifier":1,"between_identifier":1,"response":3,"repeated":0,"rt":2.761,"trial":153},{"":384,"subject":7,"statement_identifier":63,"presentation_identifier":"low","within_identifier":1,"between_identifier":1,"response":5,"repeated":0,"rt":1.828,"trial":154},{"":385,"subject":7,"statement_identifier":9,"presentation_identifier":"low","within_identifier":1,"between_identifier":1,"response":4,"repeated":0,"rt":1.136,"trial":155},{"":386,"subject":7,"statement_identifier":3,"presentation_identifier":"low","within_identifier":1,"between_identifier":1,"response":5,"repeated":0,"rt":2.234,"trial":156},{"":387,"subject":7,"statement_identifier":45,"presentation_identifier":"low","within_identifier":1,"between_identifier":1,"response":4,"repeated":1,"rt":1.96,"trial":157},{"":388,"subject":7,"statement_identifier":26,"presentation_identifier":"low","within_identifier":1,"between_identifier":1,"response":4,"repeated":0,"rt":1.562,"trial":158},{"":389,"subject":7,"statement_identifier":76,"presentation_identifier":"low","within_identifier":1,"between_identifier":1,"response":1,"repeated":0,"rt":3.817,"trial":159},{"":390,"subject":7,"statement_identifier":66,"presentation_identifier":"low","within_identifier":1,"between_identifier":1,"response":2,"repeated":0,"rt":2.996,"trial":160},{"":391,"subject":7,"statement_identifier":58,"presentation_identifier":"low","within_identifier":1,"between_identifier":1,"response":3,"repeated":0,"rt":4.354,"trial":161},{"":392,"subject":7,"statement_identifier":30,"presentation_identifier":"low","within_identifier":1,"between_identifier":1,"response":4,"repeated":1,"rt":0.528,"trial":162},{"":393,"subject":7,"statement_identifier":20,"presentation_identifier":"low","within_identifier":1,"between_identifier":1,"response":3,"repeated":1,"rt":3.338,"trial":163},{"":394,"subject":7,"statement_identifier":19,"presentation_identifier":"low","within_identifier":1,"between_identifier":1,"response":3,"repeated":1,"rt":1.85,"trial":164},{"":395,"subject":7,"statement_identifier":80,"presentation_identifier":"low","within_identifier":1,"between_identifier":1,"response":1,"repeated":0,"rt":0.924,"trial":165},{"":396,"subject":7,"statement_identifier":11,"presentation_identifier":"low","within_identifier":1,"between_identifier":1,"response":4,"repeated":1,"rt":2.501,"trial":166},{"":397,"subject":7,"statement_identifier":44,"presentation_identifier":"low","within_identifier":1,"between_identifier":1,"response":4,"repeated":0,"rt":0.942,"trial":167},{"":398,"subject":7,"statement_identifier":29,"presentation_identifier":"low","within_identifier":1,"between_identifier":1,"response":5,"repeated":1,"rt":0.972,"trial":168},{"":399,"subject":7,"statement_identifier":10,"presentation_identifier":"low","within_identifier":1,"between_identifier":1,"response":3,"repeated":1,"rt":1.257,"trial":169},{"":400,"subject":7,"statement_identifier":43,"presentation_identifier":"low","within_identifier":1,"between_identifier":1,"response":2,"repeated":0,"rt":1.509,"trial":170},{"":401,"subject":7,"statement_identifier":22,"presentation_identifier":"low","within_identifier":1,"between_identifier":1,"response":3,"repeated":0,"rt":0.692,"trial":171},{"":402,"subject":7,"statement_identifier":64,"presentation_identifier":"low","within_identifier":1,"between_identifier":1,"response":3,"repeated":0,"rt":2.792,"trial":172},{"":403,"subject":7,"statement_identifier":81,"presentation_identifier":"low","within_identifier":1,"between_identifier":1,"response":3,"repeated":0,"rt":1.321,"trial":173},{"":404,"subject":7,"statement_identifier":15,"presentation_identifier":"low","within_identifier":1,"between_identifier":1,"response":3,"repeated":0,"rt":1.687,"trial":174},{"":405,"subject":7,"statement_identifier":73,"presentation_identifier":"low","within_identifier":1,"between_identifier":1,"response":2,"repeated":0,"rt":0.707,"trial":175},{"":406,"subject":7,"statement_identifier":41,"presentation_identifier":"low","within_identifier":1,"between_identifier":1,"response":2,"repeated":0,"rt":0.761,"trial":176},{"":407,"subject":7,"statement_identifier":69,"presentation_identifier":"low","within_identifier":1,"between_identifier":1,"response":5,"repeated":1,"rt":1.536,"trial":177},{"":408,"subject":7,"statement_identifier":75,"presentation_identifier":"low","within_identifier":1,"between_identifier":1,"response":4,"repeated":1,"rt":0.782,"trial":178},{"":409,"subject":7,"statement_identifier":1,"presentation_identifier":"low","within_identifier":1,"between_identifier":1,"response":3,"repeated":0,"rt":0.869,"trial":179},{"":410,"subject":7,"statement_identifier":46,"presentation_identifier":"low","within_identifier":1,"between_identifier":1,"response":4,"repeated":1,"rt":1.181,"trial":180},{"":411,"subject":7,"statement_identifier":57,"presentation_identifier":"low","within_identifier":1,"between_identifier":1,"response":3,"repeated":0,"rt":1.206,"trial":181},{"":412,"subject":7,"statement_identifier":79,"presentation_identifier":"low","within_identifier":1,"between_identifier":1,"response":5,"repeated":1,"rt":1.007,"trial":182},{"":413,"subject":7,"statement_identifier":48,"presentation_identifier":"low","within_identifier":1,"between_identifier":1,"response":3,"repeated":0,"rt":1.529,"trial":183},{"":414,"subject":7,"statement_identifier":21,"presentation_identifier":"low","within_identifier":1,"between_identifier":1,"response":3,"repeated":0,"rt":0.889,"trial":184},{"":415,"subject":7,"statement_identifier":54,"presentation_identifier":"low","within_identifier":1,"between_identifier":1,"response":4,"repeated":0,"rt":3.354,"trial":185},{"":416,"subject":7,"statement_identifier":17,"presentation_identifier":"low","within_identifier":1,"between_identifier":1,"response":4,"repeated":0,"rt":0.908,"trial":186},{"":417,"subject":7,"statement_identifier":72,"presentation_identifier":"low","within_identifier":1,"between_identifier":1,"response":5,"repeated":0,"rt":1.576,"trial":187},{"":418,"subject":7,"statement_identifier":74,"presentation_identifier":"low","within_identifier":1,"between_identifier":1,"response":5,"repeated":0,"rt":1.061,"trial":188},{"":419,"subject":7,"statement_identifier":24,"presentation_identifier":"low","within_identifier":1,"between_identifier":1,"response":4,"repeated":1,"rt":0.926,"trial":189},{"":420,"subject":7,"statement_identifier":34,"presentation_identifier":"low","within_identifier":1,"between_identifier":1,"response":3,"repeated":0,"rt":4.367,"trial":190},{"":421,"subject":13,"statement_identifier":28,"presentation_identifier":"high","within_identifier":1,"between_identifier":1,"response":4,"repeated":1,"rt":11.717,"trial":107},{"":422,"subject":13,"statement_identifier":60,"presentation_identifier":"high","within_identifier":1,"between_identifier":1,"response":4,"repeated":0,"rt":13.487,"trial":108},{"":423,"subject":13,"statement_identifier":14,"presentation_identifier":"high","within_identifier":1,"between_identifier":1,"response":3,"repeated":0,"rt":3.901,"trial":109},{"":424,"subject":13,"statement_identifier":75,"presentation_identifier":"high","within_identifier":1,"between_identifier":1,"response":4,"repeated":1,"rt":6.494,"trial":110},{"":425,"subject":13,"statement_identifier":32,"presentation_identifier":"high","within_identifier":1,"between_identifier":1,"response":4,"repeated":1,"rt":2.462,"trial":111},{"":426,"subject":13,"statement_identifier":74,"presentation_identifier":"high","within_identifier":1,"between_identifier":1,"response":3,"repeated":1,"rt":2.406,"trial":112},{"":427,"subject":13,"statement_identifier":71,"presentation_identifier":"high","within_identifier":1,"between_identifier":1,"response":5,"repeated":0,"rt":3.766,"trial":113},{"":428,"subject":13,"statement_identifier":29,"presentation_identifier":"high","within_identifier":1,"between_identifier":1,"response":4,"repeated":1,"rt":4.693,"trial":114},{"":429,"subject":13,"statement_identifier":31,"presentation_identifier":"high","within_identifier":1,"between_identifier":1,"response":4,"repeated":1,"rt":3.833,"trial":115},{"":430,"subject":13,"statement_identifier":52,"presentation_identifier":"high","within_identifier":1,"between_identifier":1,"response":4,"repeated":0,"rt":2.358,"trial":116},{"":431,"subject":13,"statement_identifier":19,"presentation_identifier":"high","within_identifier":1,"between_identifier":1,"response":5,"repeated":1,"rt":0.883,"trial":117},{"":432,"subject":13,"statement_identifier":83,"presentation_identifier":"high","within_identifier":1,"between_identifier":1,"response":3,"repeated":0,"rt":2.231,"trial":118},{"":433,"subject":13,"statement_identifier":35,"presentation_identifier":"high","within_identifier":1,"between_identifier":1,"response":3,"repeated":1,"rt":2.317,"trial":119},{"":434,"subject":13,"statement_identifier":40,"presentation_identifier":"high","within_identifier":1,"between_identifier":1,"response":4,"repeated":1,"rt":4.174,"trial":120},{"":435,"subject":13,"statement_identifier":56,"presentation_identifier":"high","within_identifier":1,"between_identifier":1,"response":4,"repeated":0,"rt":1.255,"trial":121},{"":436,"subject":13,"statement_identifier":5,"presentation_identifier":"high","within_identifier":1,"between_identifier":1,"response":3,"repeated":1,"rt":9.511,"trial":122},{"":437,"subject":13,"statement_identifier":4,"presentation_identifier":"high","within_identifier":1,"between_identifier":1,"response":3,"repeated":0,"rt":1.09,"trial":123},{"":438,"subject":13,"statement_identifier":63,"presentation_identifier":"high","within_identifier":1,"between_identifier":1,"response":3,"repeated":0,"rt":8.59,"trial":124},{"":439,"subject":13,"statement_identifier":70,"presentation_identifier":"high","within_identifier":1,"between_identifier":1,"response":3,"repeated":0,"rt":2.261,"trial":125},{"":440,"subject":13,"statement_identifier":21,"presentation_identifier":"high","within_identifier":1,"between_identifier":1,"response":4,"repeated":0,"rt":6.238,"trial":126},{"":441,"subject":13,"statement_identifier":3,"presentation_identifier":"high","within_identifier":1,"between_identifier":1,"response":3,"repeated":1,"rt":6.136,"trial":127},{"":442,"subject":13,"statement_identifier":76,"presentation_identifier":"high","within_identifier":1,"between_identifier":1,"response":4,"repeated":1,"rt":0.646,"trial":128},{"":443,"subject":13,"statement_identifier":50,"presentation_identifier":"high","within_identifier":1,"between_identifier":1,"response":5,"repeated":1,"rt":2.12,"trial":129},{"":444,"subject":13,"statement_identifier":9,"presentation_identifier":"high","within_identifier":1,"between_identifier":1,"response":4,"repeated":0,"rt":6.718,"trial":130},{"":445,"subject":13,"statement_identifier":73,"presentation_identifier":"high","within_identifier":1,"between_identifier":1,"response":4,"repeated":1,"rt":0.83,"trial":131},{"":446,"subject":13,"statement_identifier":48,"presentation_identifier":"high","within_identifier":1,"between_identifier":1,"response":4,"repeated":1,"rt":2.652,"trial":132},{"":447,"subject":13,"statement_identifier":27,"presentation_identifier":"high","within_identifier":1,"between_identifier":1,"response":5,"repeated":0,"rt":3.595,"trial":133},{"":448,"subject":13,"statement_identifier":36,"presentation_identifier":"high","within_identifier":1,"between_identifier":1,"response":3,"repeated":1,"rt":3.049,"trial":134},{"":449,"subject":13,"statement_identifier":33,"presentation_identifier":"high","within_identifier":1,"between_identifier":1,"response":3,"repeated":1,"rt":7.36,"trial":135},{"":450,"subject":13,"statement_identifier":77,"presentation_identifier":"high","within_identifier":1,"between_identifier":1,"response":4,"repeated":1,"rt":0.924,"trial":136},{"":451,"subject":13,"statement_identifier":44,"presentation_identifier":"high","within_identifier":1,"between_identifier":1,"response":3,"repeated":1,"rt":7.597,"trial":137},{"":452,"subject":13,"statement_identifier":53,"presentation_identifier":"high","within_identifier":1,"between_identifier":1,"response":4,"repeated":1,"rt":4.995,"trial":138},{"":453,"subject":13,"statement_identifier":69,"presentation_identifier":"high","within_identifier":1,"between_identifier":1,"response":4,"repeated":1,"rt":1.311,"trial":139},{"":454,"subject":13,"statement_identifier":37,"presentation_identifier":"high","within_identifier":1,"between_identifier":1,"response":4,"repeated":0,"rt":8.426,"trial":140},{"":455,"subject":13,"statement_identifier":58,"presentation_identifier":"high","within_identifier":1,"between_identifier":1,"response":4,"repeated":0,"rt":7.107,"trial":141},{"":456,"subject":13,"statement_identifier":64,"presentation_identifier":"high","within_identifier":1,"between_identifier":1,"response":3,"repeated":1,"rt":4.158,"trial":142},{"":457,"subject":13,"statement_identifier":22,"presentation_identifier":"high","within_identifier":1,"between_identifier":1,"response":4,"repeated":0,"rt":3.102,"trial":143},{"":458,"subject":13,"statement_identifier":30,"presentation_identifier":"high","within_identifier":1,"between_identifier":1,"response":4,"repeated":1,"rt":0.756,"trial":144},{"":459,"subject":13,"statement_identifier":10,"presentation_identifier":"high","within_identifier":1,"between_identifier":1,"response":4,"repeated":1,"rt":1.309,"trial":145},{"":460,"subject":13,"statement_identifier":11,"presentation_identifier":"high","within_identifier":1,"between_identifier":1,"response":4,"repeated":1,"rt":0.753,"trial":146},{"":461,"subject":13,"statement_identifier":24,"presentation_identifier":"high","within_identifier":1,"between_identifier":1,"response":3,"repeated":1,"rt":3.654,"trial":147},{"":462,"subject":13,"statement_identifier":80,"presentation_identifier":"high","within_identifier":1,"between_identifier":1,"response":2,"repeated":0,"rt":7.69,"trial":148},{"":463,"subject":13,"statement_identifier":20,"presentation_identifier":"high","within_identifier":1,"between_identifier":1,"response":4,"repeated":1,"rt":1.519,"trial":149},{"":464,"subject":13,"statement_identifier":39,"presentation_identifier":"high","within_identifier":1,"between_identifier":1,"response":4,"repeated":1,"rt":2.986,"trial":150},{"":465,"subject":13,"statement_identifier":38,"presentation_identifier":"high","within_identifier":1,"between_identifier":1,"response":4,"repeated":1,"rt":1.265,"trial":151},{"":466,"subject":13,"statement_identifier":13,"presentation_identifier":"high","within_identifier":1,"between_identifier":1,"response":4,"repeated":1,"rt":0.491,"trial":152},{"":467,"subject":13,"statement_identifier":67,"presentation_identifier":"high","within_identifier":1,"between_identifier":1,"response":4,"repeated":1,"rt":1.691,"trial":153},{"":468,"subject":13,"statement_identifier":55,"presentation_identifier":"high","within_identifier":1,"between_identifier":1,"response":4,"repeated":1,"rt":8.768,"trial":154},{"":469,"subject":13,"statement_identifier":47,"presentation_identifier":"high","within_identifier":1,"between_identifier":1,"response":3,"repeated":1,"rt":1.272,"trial":155},{"":470,"subject":13,"statement_identifier":2,"presentation_identifier":"high","within_identifier":1,"between_identifier":1,"response":3,"repeated":1,"rt":4.667,"trial":156},{"":471,"subject":13,"statement_identifier":34,"presentation_identifier":"high","within_identifier":1,"between_identifier":1,"response":4,"repeated":1,"rt":1.189,"trial":157},{"":472,"subject":13,"statement_identifier":41,"presentation_identifier":"high","within_identifier":1,"between_identifier":1,"response":4,"repeated":1,"rt":1.148,"trial":158},{"":473,"subject":13,"statement_identifier":81,"presentation_identifier":"high","within_identifier":1,"between_identifier":1,"response":3,"repeated":0,"rt":1.45,"trial":159},{"":474,"subject":13,"statement_identifier":62,"presentation_identifier":"high","within_identifier":1,"between_identifier":1,"response":4,"repeated":1,"rt":5.044,"trial":160},{"":475,"subject":13,"statement_identifier":26,"presentation_identifier":"high","within_identifier":1,"between_identifier":1,"response":4,"repeated":1,"rt":4.614,"trial":161},{"":476,"subject":13,"statement_identifier":1,"presentation_identifier":"high","within_identifier":1,"between_identifier":1,"response":3,"repeated":0,"rt":1.497,"trial":162},{"":477,"subject":13,"statement_identifier":23,"presentation_identifier":"high","within_identifier":1,"between_identifier":1,"response":4,"repeated":0,"rt":6.946,"trial":163},{"":478,"subject":13,"statement_identifier":84,"presentation_identifier":"high","within_identifier":1,"between_identifier":1,"response":4,"repeated":1,"rt":0.664,"trial":164},{"":479,"subject":13,"statement_identifier":59,"presentation_identifier":"high","within_identifier":1,"between_identifier":1,"response":3,"repeated":0,"rt":2.335,"trial":165},{"":480,"subject":13,"statement_identifier":17,"presentation_identifier":"high","within_identifier":1,"between_identifier":1,"response":4,"repeated":0,"rt":6.782,"trial":166},{"":481,"subject":13,"statement_identifier":8,"presentation_identifier":"high","within_identifier":1,"between_identifier":1,"response":4,"repeated":1,"rt":6.495,"trial":167},{"":482,"subject":13,"statement_identifier":18,"presentation_identifier":"high","within_identifier":1,"between_identifier":1,"response":3,"repeated":1,"rt":1.13,"trial":168},{"":483,"subject":13,"statement_identifier":54,"presentation_identifier":"high","within_identifier":1,"between_identifier":1,"response":3,"repeated":1,"rt":1.716,"trial":169},{"":484,"subject":13,"statement_identifier":6,"presentation_identifier":"high","within_identifier":1,"between_identifier":1,"response":3,"repeated":1,"rt":4.52,"trial":170},{"":485,"subject":13,"statement_identifier":61,"presentation_identifier":"high","within_identifier":1,"between_identifier":1,"response":3,"repeated":0,"rt":8.668,"trial":171},{"":486,"subject":13,"statement_identifier":57,"presentation_identifier":"high","within_identifier":1,"between_identifier":1,"response":4,"repeated":1,"rt":5.402,"trial":172},{"":487,"subject":13,"statement_identifier":49,"presentation_identifier":"high","within_identifier":1,"between_identifier":1,"response":3,"repeated":1,"rt":4.009,"trial":173},{"":488,"subject":13,"statement_identifier":25,"presentation_identifier":"high","within_identifier":1,"between_identifier":1,"response":4,"repeated":0,"rt":3.717,"trial":174},{"":489,"subject":13,"statement_identifier":72,"presentation_identifier":"high","within_identifier":1,"between_identifier":1,"response":3,"repeated":0,"rt":4.25,"trial":175},{"":490,"subject":13,"statement_identifier":7,"presentation_identifier":"high","within_identifier":1,"between_identifier":1,"response":4,"repeated":0,"rt":6.317,"trial":176},{"":491,"subject":13,"statement_identifier":66,"presentation_identifier":"high","within_identifier":1,"between_identifier":1,"response":4,"repeated":1,"rt":3.719,"trial":177},{"":492,"subject":13,"statement_identifier":42,"presentation_identifier":"high","within_identifier":1,"between_identifier":1,"response":5,"repeated":1,"rt":1.443,"trial":178},{"":493,"subject":13,"statement_identifier":15,"presentation_identifier":"high","within_identifier":1,"between_identifier":1,"response":4,"repeated":1,"rt":2.434,"trial":179},{"":494,"subject":13,"statement_identifier":12,"presentation_identifier":"high","within_identifier":1,"between_identifier":1,"response":5,"repeated":0,"rt":1.536,"trial":180},{"":495,"subject":13,"statement_identifier":45,"presentation_identifier":"high","within_identifier":1,"between_identifier":1,"response":4,"repeated":1,"rt":2.787,"trial":181},{"":496,"subject":13,"statement_identifier":51,"presentation_identifier":"high","within_identifier":1,"between_identifier":1,"response":1,"repeated":0,"rt":4.15,"trial":182},{"":497,"subject":13,"statement_identifier":16,"presentation_identifier":"high","within_identifier":1,"between_identifier":1,"response":4,"repeated":1,"rt":2.056,"trial":183},{"":498,"subject":13,"statement_identifier":46,"presentation_identifier":"high","within_identifier":1,"between_identifier":1,"response":3,"repeated":1,"rt":5.008,"trial":184},{"":499,"subject":13,"statement_identifier":68,"presentation_identifier":"high","within_identifier":1,"between_identifier":1,"response":4,"repeated":1,"rt":0.439,"trial":185},{"":500,"subject":13,"statement_identifier":82,"presentation_identifier":"high","within_identifier":1,"between_identifier":1,"response":3,"repeated":0,"rt":1.671,"trial":186},{"":501,"subject":13,"statement_identifier":43,"presentation_identifier":"high","within_identifier":1,"between_identifier":1,"response":4,"repeated":1,"rt":0.787,"trial":187},{"":502,"subject":13,"statement_identifier":65,"presentation_identifier":"high","within_identifier":1,"between_identifier":1,"response":5,"repeated":1,"rt":2.921,"trial":188},{"":503,"subject":13,"statement_identifier":78,"presentation_identifier":"high","within_identifier":1,"between_identifier":1,"response":4,"repeated":1,"rt":0.738,"trial":189},{"":504,"subject":13,"statement_identifier":79,"presentation_identifier":"high","within_identifier":1,"between_identifier":1,"response":3,"repeated":1,"rt":4.986,"trial":190},{"":505,"subject":15,"statement_identifier":46,"presentation_identifier":"low","within_identifier":1,"between_identifier":1,"response":4,"repeated":1,"rt":11.087,"trial":107},{"":506,"subject":15,"statement_identifier":82,"presentation_identifier":"low","within_identifier":1,"between_identifier":1,"response":3,"repeated":0,"rt":8.252,"trial":108},{"":507,"subject":15,"statement_identifier":67,"presentation_identifier":"low","within_identifier":1,"between_identifier":1,"response":5,"repeated":1,"rt":5.135,"trial":109},{"":508,"subject":15,"statement_identifier":8,"presentation_identifier":"low","within_identifier":1,"between_identifier":1,"response":5,"repeated":0,"rt":11.851,"trial":110},{"":509,"subject":15,"statement_identifier":24,"presentation_identifier":"low","within_identifier":1,"between_identifier":1,"response":5,"repeated":1,"rt":11.121,"trial":111},{"":510,"subject":15,"statement_identifier":52,"presentation_identifier":"low","within_identifier":1,"between_identifier":1,"response":5,"repeated":0,"rt":4.972,"trial":112},{"":511,"subject":15,"statement_identifier":29,"presentation_identifier":"low","within_identifier":1,"between_identifier":1,"response":6,"repeated":1,"rt":1.423,"trial":113},{"":512,"subject":15,"statement_identifier":55,"presentation_identifier":"low","within_identifier":1,"between_identifier":1,"response":5,"repeated":1,"rt":7.833,"trial":114},{"":513,"subject":15,"statement_identifier":11,"presentation_identifier":"low","within_identifier":1,"between_identifier":1,"response":5,"repeated":1,"rt":3.237,"trial":115},{"":514,"subject":15,"statement_identifier":63,"presentation_identifier":"low","within_identifier":1,"between_identifier":1,"response":5,"repeated":0,"rt":6.675,"trial":116},{"":515,"subject":15,"statement_identifier":72,"presentation_identifier":"low","within_identifier":1,"between_identifier":1,"response":5,"repeated":0,"rt":1.927,"trial":117},{"":516,"subject":15,"statement_identifier":23,"presentation_identifier":"low","within_identifier":1,"between_identifier":1,"response":6,"repeated":0,"rt":7.436,"trial":118},{"":517,"subject":15,"statement_identifier":60,"presentation_identifier":"low","within_identifier":1,"between_identifier":1,"response":5,"repeated":0,"rt":4.084,"trial":119},{"":518,"subject":15,"statement_identifier":34,"presentation_identifier":"low","within_identifier":1,"between_identifier":1,"response":4,"repeated":0,"rt":5.487,"trial":120},{"":519,"subject":15,"statement_identifier":64,"presentation_identifier":"low","within_identifier":1,"between_identifier":1,"response":2,"repeated":0,"rt":17.948,"trial":121},{"":520,"subject":15,"statement_identifier":76,"presentation_identifier":"low","within_identifier":1,"between_identifier":1,"response":4,"repeated":0,"rt":4.978,"trial":122},{"":521,"subject":15,"statement_identifier":73,"presentation_identifier":"low","within_identifier":1,"between_identifier":1,"response":4,"repeated":0,"rt":7.034,"trial":123},{"":522,"subject":15,"statement_identifier":12,"presentation_identifier":"low","within_identifier":1,"between_identifier":1,"response":2,"repeated":0,"rt":5.308,"trial":124},{"":523,"subject":15,"statement_identifier":32,"presentation_identifier":"low","within_identifier":1,"between_identifier":1,"response":5,"repeated":1,"rt":3.969,"trial":125},{"":524,"subject":15,"statement_identifier":1,"presentation_identifier":"low","within_identifier":1,"between_identifier":1,"response":5,"repeated":0,"rt":4.569,"trial":126},{"":525,"subject":15,"statement_identifier":84,"presentation_identifier":"low","within_identifier":1,"between_identifier":1,"response":5,"repeated":0,"rt":12.692,"trial":127},{"":526,"subject":15,"statement_identifier":13,"presentation_identifier":"low","within_identifier":1,"between_identifier":1,"response":3,"repeated":1,"rt":1.889,"trial":128},{"":527,"subject":15,"statement_identifier":31,"presentation_identifier":"low","within_identifier":1,"between_identifier":1,"response":4,"repeated":0,"rt":8.523,"trial":129},{"":528,"subject":15,"statement_identifier":62,"presentation_identifier":"low","within_identifier":1,"between_identifier":1,"response":3,"repeated":0,"rt":6.58,"trial":130},{"":529,"subject":15,"statement_identifier":47,"presentation_identifier":"low","within_identifier":1,"between_identifier":1,"response":5,"repeated":1,"rt":1.534,"trial":131},{"":530,"subject":15,"statement_identifier":36,"presentation_identifier":"low","within_identifier":1,"between_identifier":1,"response":5,"repeated":0,"rt":3.006,"trial":132},{"":531,"subject":15,"statement_identifier":42,"presentation_identifier":"low","within_identifier":1,"between_identifier":1,"response":5,"repeated":1,"rt":6.326,"trial":133},{"":532,"subject":15,"statement_identifier":57,"presentation_identifier":"low","within_identifier":1,"between_identifier":1,"response":5,"repeated":0,"rt":1.112,"trial":134},{"":533,"subject":15,"statement_identifier":58,"presentation_identifier":"low","within_identifier":1,"between_identifier":1,"response":5,"repeated":0,"rt":1.459,"trial":135},{"":534,"subject":15,"statement_identifier":5,"presentation_identifier":"low","within_identifier":1,"between_identifier":1,"response":4,"repeated":0,"rt":6.501,"trial":136},{"":535,"subject":15,"statement_identifier":49,"presentation_identifier":"low","within_identifier":1,"between_identifier":1,"response":5,"repeated":1,"rt":2.318,"trial":137},{"":536,"subject":15,"statement_identifier":77,"presentation_identifier":"low","within_identifier":1,"between_identifier":1,"response":5,"repeated":1,"rt":11.826,"trial":138},{"":537,"subject":15,"statement_identifier":78,"presentation_identifier":"low","within_identifier":1,"between_identifier":1,"response":4,"repeated":1,"rt":3.491,"trial":139},{"":538,"subject":15,"statement_identifier":4,"presentation_identifier":"low","within_identifier":1,"between_identifier":1,"response":3,"repeated":0,"rt":4.365,"trial":140},{"":539,"subject":15,"statement_identifier":7,"presentation_identifier":"low","within_identifier":1,"between_identifier":1,"response":5,"repeated":0,"rt":4.762,"trial":141},{"":540,"subject":15,"statement_identifier":18,"presentation_identifier":"low","within_identifier":1,"between_identifier":1,"response":3,"repeated":0,"rt":6.468,"trial":142},{"":541,"subject":15,"statement_identifier":40,"presentation_identifier":"low","within_identifier":1,"between_identifier":1,"response":4,"repeated":0,"rt":4.579,"trial":143},{"":542,"subject":15,"statement_identifier":79,"presentation_identifier":"low","within_identifier":1,"between_identifier":1,"response":5,"repeated":1,"rt":0.985,"trial":144},{"":543,"subject":15,"statement_identifier":50,"presentation_identifier":"low","within_identifier":1,"between_identifier":1,"response":5,"repeated":1,"rt":3.315,"trial":145},{"":544,"subject":15,"statement_identifier":66,"presentation_identifier":"low","within_identifier":1,"between_identifier":1,"response":4,"repeated":0,"rt":5.932,"trial":146},{"":545,"subject":15,"statement_identifier":15,"presentation_identifier":"low","within_identifier":1,"between_identifier":1,"response":5,"repeated":0,"rt":2.817,"trial":147},{"":546,"subject":15,"statement_identifier":65,"presentation_identifier":"low","within_identifier":1,"between_identifier":1,"response":6,"repeated":1,"rt":10.317,"trial":148},{"":547,"subject":15,"statement_identifier":74,"presentation_identifier":"low","within_identifier":1,"between_identifier":1,"response":4,"repeated":0,"rt":2.221,"trial":149},{"":548,"subject":15,"statement_identifier":21,"presentation_identifier":"low","within_identifier":1,"between_identifier":1,"response":6,"repeated":0,"rt":34.582,"trial":150},{"":549,"subject":15,"statement_identifier":28,"presentation_identifier":"low","within_identifier":1,"between_identifier":1,"response":4,"repeated":0,"rt":4.792,"trial":151},{"":550,"subject":15,"statement_identifier":37,"presentation_identifier":"low","within_identifier":1,"between_identifier":1,"response":5,"repeated":0,"rt":2.468,"trial":152},{"":551,"subject":15,"statement_identifier":33,"presentation_identifier":"low","within_identifier":1,"between_identifier":1,"response":5,"repeated":0,"rt":4.466,"trial":153},{"":552,"subject":15,"statement_identifier":27,"presentation_identifier":"low","within_identifier":1,"between_identifier":1,"response":5,"repeated":0,"rt":2.468,"trial":154},{"":553,"subject":15,"statement_identifier":16,"presentation_identifier":"low","within_identifier":1,"between_identifier":1,"response":4,"repeated":0,"rt":1.033,"trial":155},{"":554,"subject":15,"statement_identifier":56,"presentation_identifier":"low","within_identifier":1,"between_identifier":1,"response":3,"repeated":0,"rt":9.378,"trial":156},{"":555,"subject":15,"statement_identifier":80,"presentation_identifier":"low","within_identifier":1,"between_identifier":1,"response":2,"repeated":0,"rt":4.645,"trial":157},{"":556,"subject":15,"statement_identifier":30,"presentation_identifier":"low","within_identifier":1,"between_identifier":1,"response":5,"repeated":1,"rt":3.123,"trial":158},{"":557,"subject":15,"statement_identifier":9,"presentation_identifier":"low","within_identifier":1,"between_identifier":1,"response":5,"repeated":0,"rt":3.785,"trial":159},{"":558,"subject":15,"statement_identifier":20,"presentation_identifier":"low","within_identifier":1,"between_identifier":1,"response":5,"repeated":1,"rt":2.934,"trial":160},{"":559,"subject":15,"statement_identifier":17,"presentation_identifier":"low","within_identifier":1,"between_identifier":1,"response":5,"repeated":0,"rt":2.086,"trial":161},{"":560,"subject":15,"statement_identifier":75,"presentation_identifier":"low","within_identifier":1,"between_identifier":1,"response":6,"repeated":1,"rt":3.908,"trial":162},{"":561,"subject":15,"statement_identifier":6,"presentation_identifier":"low","within_identifier":1,"between_identifier":1,"response":4,"repeated":0,"rt":4.573,"trial":163},{"":562,"subject":15,"statement_identifier":19,"presentation_identifier":"low","within_identifier":1,"between_identifier":1,"response":6,"repeated":1,"rt":3,"trial":164},{"":563,"subject":15,"statement_identifier":22,"presentation_identifier":"low","within_identifier":1,"between_identifier":1,"response":5,"repeated":0,"rt":1.178,"trial":165},{"":564,"subject":15,"statement_identifier":83,"presentation_identifier":"low","within_identifier":1,"between_identifier":1,"response":5,"repeated":0,"rt":1.045,"trial":166},{"":565,"subject":15,"statement_identifier":69,"presentation_identifier":"low","within_identifier":1,"between_identifier":1,"response":3,"repeated":1,"rt":6.726,"trial":167},{"":566,"subject":15,"statement_identifier":61,"presentation_identifier":"low","within_identifier":1,"between_identifier":1,"response":6,"repeated":0,"rt":1.35,"trial":168},{"":567,"subject":15,"statement_identifier":68,"presentation_identifier":"low","within_identifier":1,"between_identifier":1,"response":5,"repeated":1,"rt":1.787,"trial":169},{"":568,"subject":15,"statement_identifier":43,"presentation_identifier":"low","within_identifier":1,"between_identifier":1,"response":4,"repeated":0,"rt":0.766,"trial":170},{"":569,"subject":15,"statement_identifier":10,"presentation_identifier":"low","within_identifier":1,"between_identifier":1,"response":5,"repeated":1,"rt":3.329,"trial":171},{"":570,"subject":15,"statement_identifier":71,"presentation_identifier":"low","within_identifier":1,"between_identifier":1,"response":3,"repeated":0,"rt":1.849,"trial":172},{"":571,"subject":15,"statement_identifier":3,"presentation_identifier":"low","within_identifier":1,"between_identifier":1,"response":4,"repeated":0,"rt":7.133,"trial":173},{"":572,"subject":15,"statement_identifier":48,"presentation_identifier":"low","within_identifier":1,"between_identifier":1,"response":5,"repeated":0,"rt":0.746,"trial":174},{"":573,"subject":15,"statement_identifier":41,"presentation_identifier"