"","subject","statement_identifier","presentation_identifier","within_identifier","between_identifier","response","repeated","rt","trial"
"1",109,1,1,1,1,5,0,NA,NA
"2",109,2,1,1,1,2,0,NA,NA
"3",109,3,1,1,1,2,0,NA,NA
"4",109,4,1,1,1,3,0,NA,NA
"5",109,5,1,1,1,1,0,NA,NA
"6",109,6,1,1,1,2,0,NA,NA
"7",109,7,1,1,1,4,0,NA,NA
"8",109,8,1,1,1,3,0,NA,NA
"9",109,9,1,1,1,4,0,NA,NA
"10",109,10,1,1,1,1,0,NA,NA
"11",109,11,1,1,1,4,1,NA,NA
"12",109,12,1,1,1,5,1,NA,NA
"13",109,13,1,1,1,3,1,NA,NA
"14",109,14,1,1,1,2,1,NA,NA
"15",109,15,1,1,1,4,1,NA,NA
"16",109,16,1,1,1,5,1,NA,NA
"17",109,17,1,1,1,3,1,NA,NA
"18",109,18,1,1,1,2,1,NA,NA
"19",109,19,1,1,1,5,1,NA,NA
"20",109,20,1,1,1,2,1,NA,NA
"21",110,1,1,1,1,3,1,NA,NA
"22",110,2,1,1,1,2,1,NA,NA
"23",110,3,1,1,1,4,1,NA,NA
"24",110,4,1,1,1,4,1,NA,NA
"25",110,5,1,1,1,4,1,NA,NA
"26",110,6,1,1,1,4,1,NA,NA
"27",110,7,1,1,1,3,1,NA,NA
"28",110,8,1,1,1,3,1,NA,NA
"29",110,9,1,1,1,4,1,NA,NA
"30",110,10,1,1,1,2,1,NA,NA
"31",110,11,1,1,1,3,0,NA,NA
"32",110,12,1,1,1,3,0,NA,NA
"33",110,13,1,1,1,3,0,NA,NA
"34",110,14,1,1,1,4,0,NA,NA
"35",110,15,1,1,1,3,0,NA,NA
"36",110,16,1,1,1,3,0,NA,NA
"37",110,17,1,1,1,3,0,NA,NA
"38",110,18,1,1,1,1,0,NA,NA
"39",110,19,1,1,1,2,0,NA,NA
"40",110,20,1,1,1,3,0,NA,NA
"41",114,11,1,1,1,3,0,NA,NA
"42",114,12,1,1,1,3,0,NA,NA
"43",114,13,1,1,1,3,0,NA,NA
"44",114,14,1,1,1,4,0,NA,NA
"45",114,15,1,1,1,3,0,NA,NA
"46",114,16,1,1,1,4,0,NA,NA
"47",114,17,1,1,1,3,0,NA,NA
"48",114,18,1,1,1,3,0,NA,NA
"49",114,19,1,1,1,5,0,NA,NA
"50",114,20,1,1,1,1,0,NA,NA
"51",114,21,1,1,1,4,1,NA,NA
"52",114,22,1,1,1,4,1,NA,NA
"53",114,23,1,1,1,3,1,NA,NA
"54",114,24,1,1,1,4,1,NA,NA
"55",114,25,1,1,1,4,1,NA,NA
"56",114,26,1,1,1,4,1,NA,NA
"57",114,27,1,1,1,5,1,NA,NA
"58",114,28,1,1,1,3,1,NA,NA
"59",114,29,1,1,1,4,1,NA,NA
"60",114,30,1,1,1,5,1,NA,NA
"61",115,1,1,1,1,4,1,NA,NA
"62",115,2,1,1,1,4,1,NA,NA
"63",115,3,1,1,1,2,1,NA,NA
"64",115,4,1,1,1,3,1,NA,NA
"65",115,5,1,1,1,1,1,NA,NA
"66",115,6,1,1,1,3,1,NA,NA
"67",115,7,1,1,1,3,1,NA,NA
"68",115,8,1,1,1,3,1,NA,NA
"69",115,9,1,1,1,2,1,NA,NA
"70",115,10,1,1,1,3,1,NA,NA
"71",115,21,1,1,1,3,0,NA,NA
"72",115,22,1,1,1,3,0,NA,NA
"73",115,23,1,1,1,5,0,NA,NA
"74",115,24,1,1,1,2,0,NA,NA
"75",115,25,1,1,1,4,0,NA,NA
"76",115,26,1,1,1,5,0,NA,NA
"77",115,27,1,1,1,3,0,NA,NA
"78",115,28,1,1,1,2,0,NA,NA
"79",115,29,1,1,1,2,0,NA,NA
"80",115,30,1,1,1,5,0,NA,NA
"81",117,11,1,1,1,4,1,NA,NA
"82",117,12,1,1,1,4,1,NA,NA
"83",117,13,1,1,1,4,1,NA,NA
"84",117,14,1,1,1,4,1,NA,NA
"85",117,15,1,1,1,2,1,NA,NA
"86",117,16,1,1,1,4,1,NA,NA
"87",117,17,1,1,1,4,1,NA,NA
"88",117,18,1,1,1,1,1,NA,NA
"89",117,19,1,1,1,4,1,NA,NA
"90",117,20,1,1,1,3,1,NA,NA
"91",117,21,1,1,1,4,0,NA,NA
"92",117,22,1,1,1,3,0,NA,NA
"93",117,23,1,1,1,3,0,NA,NA
"94",117,24,1,1,1,4,0,NA,NA
"95",117,25,1,1,1,4,0,NA,NA
"96",117,26,1,1,1,2,0,NA,NA
"97",117,27,1,1,1,3,0,NA,NA
"98",117,28,1,1,1,2,0,NA,NA
"99",117,29,1,1,1,2,0,NA,NA
"100",117,30,1,1,1,4,0,NA,NA
"101",119,11,1,1,1,3,1,NA,NA
"102",119,12,1,1,1,4,1,NA,NA
"103",119,13,1,1,1,4,1,NA,NA
"104",119,14,1,1,1,2,1,NA,NA
"105",119,15,1,1,1,2,1,NA,NA
"106",119,16,1,1,1,1,1,NA,NA
"107",119,17,1,1,1,3,1,NA,NA
"108",119,18,1,1,1,1,1,NA,NA
"109",119,19,1,1,1,4,1,NA,NA
"110",119,20,1,1,1,3,1,NA,NA
"111",119,21,1,1,1,3,0,NA,NA
"112",119,22,1,1,1,2,0,NA,NA
"113",119,23,1,1,1,3,0,NA,NA
"114",119,24,1,1,1,2,0,NA,NA
"115",119,25,1,1,1,3,0,NA,NA
"116",119,26,1,1,1,2,0,NA,NA
"117",119,27,1,1,1,4,0,NA,NA
"118",119,28,1,1,1,4,0,NA,NA
"119",119,29,1,1,1,2,0,NA,NA
"120",119,30,1,1,1,4,0,NA,NA
"121",120,1,1,1,1,4,0,NA,NA
"122",120,2,1,1,1,2,0,NA,NA
"123",120,3,1,1,1,2,0,NA,NA
"124",120,4,1,1,1,2,0,NA,NA
"125",120,5,1,1,1,4,0,NA,NA
"126",120,6,1,1,1,3,0,NA,NA
"127",120,7,1,1,1,4,0,NA,NA
"128",120,8,1,1,1,3,0,NA,NA
"129",120,9,1,1,1,2,0,NA,NA
"130",120,10,1,1,1,2,0,NA,NA
"131",120,11,1,1,1,4,1,NA,NA
"132",120,12,1,1,1,4,1,NA,NA
"133",120,13,1,1,1,4,1,NA,NA
"134",120,14,1,1,1,2,1,NA,NA
"135",120,15,1,1,1,2,1,NA,NA
"136",120,16,1,1,1,4,1,NA,NA
"137",120,17,1,1,1,4,1,NA,NA
"138",120,18,1,1,1,5,1,NA,NA
"139",120,19,1,1,1,4,1,NA,NA
"140",120,20,1,1,1,2,1,NA,NA
"141",124,1,1,1,1,4,1,NA,NA
"142",124,2,1,1,1,2,1,NA,NA
"143",124,3,1,1,1,4,1,NA,NA
"144",124,4,1,1,1,5,1,NA,NA
"145",124,5,1,1,1,4,1,NA,NA
"146",124,6,1,1,1,5,1,NA,NA
"147",124,7,1,1,1,5,1,NA,NA
"148",124,8,1,1,1,4,1,NA,NA
"149",124,9,1,1,1,5,1,NA,NA
"150",124,10,1,1,1,3,1,NA,NA
"151",124,11,1,1,1,4,0,NA,NA
"152",124,12,1,1,1,4,0,NA,NA
"153",124,13,1,1,1,2,0,NA,NA
"154",124,14,1,1,1,2,0,NA,NA
"155",124,15,1,1,1,2,0,NA,NA
"156",124,16,1,1,1,4,0,NA,NA
"157",124,17,1,1,1,2,0,NA,NA
"158",124,18,1,1,1,2,0,NA,NA
"159",124,19,1,1,1,2,0,NA,NA
"160",124,20,1,1,1,1,0,NA,NA
"161",125,1,1,1,1,4,1,NA,NA
"162",125,2,1,1,1,1,1,NA,NA
"163",125,3,1,1,1,4,1,NA,NA
"164",125,4,1,1,1,1,1,NA,NA
"165",125,5,1,1,1,2,1,NA,NA
"166",125,6,1,1,1,4,1,NA,NA
"167",125,7,1,1,1,4,1,NA,NA
"168",125,8,1,1,1,5,1,NA,NA
"169",125,9,1,1,1,3,1,NA,NA
"170",125,10,1,1,1,4,1,NA,NA
"171",125,21,1,1,1,3,0,NA,NA
"172",125,22,1,1,1,1,0,NA,NA
"173",125,23,1,1,1,3,0,NA,NA
"174",125,24,1,1,1,3,0,NA,NA
"175",125,25,1,1,1,4,0,NA,NA
"176",125,26,1,1,1,2,0,NA,NA
"177",125,27,1,1,1,4,0,NA,NA
"178",125,28,1,1,1,1,0,NA,NA
"179",125,29,1,1,1,1,0,NA,NA
"180",125,30,1,1,1,4,0,NA,NA
"181",128,1,1,1,1,2,0,NA,NA
"182",128,2,1,1,1,3,0,NA,NA
"183",128,3,1,1,1,4,0,NA,NA
"184",128,4,1,1,1,3,0,NA,NA
"185",128,5,1,1,1,2,0,NA,NA
"186",128,6,1,1,1,3,0,NA,NA
"187",128,7,1,1,1,3,0,NA,NA
"188",128,8,1,1,1,3,0,NA,NA
"189",128,9,1,1,1,3,0,NA,NA
"190",128,10,1,1,1,1,0,NA,NA
"191",128,11,1,1,1,3,1,NA,NA
"192",128,12,1,1,1,3,1,NA,NA
"193",128,13,1,1,1,3,1,NA,NA
"194",128,14,1,1,1,3,1,NA,NA
"195",128,15,1,1,1,3,1,NA,NA
"196",128,16,1,1,1,4,1,NA,NA
"197",128,17,1,1,1,3,1,NA,NA
"198",128,18,1,1,1,4,1,NA,NA
"199",128,19,1,1,1,3,1,NA,NA
"200",128,20,1,1,1,2,1,NA,NA
"201",129,1,1,1,1,4,1,NA,NA
"202",129,2,1,1,1,4,1,NA,NA
"203",129,3,1,1,1,3,1,NA,NA
"204",129,4,1,1,1,4,1,NA,NA
"205",129,5,1,1,1,4,1,NA,NA
"206",129,6,1,1,1,4,1,NA,NA
"207",129,7,1,1,1,4,1,NA,NA
"208",129,8,1,1,1,4,1,NA,NA
"209",129,9,1,1,1,2,1,NA,NA
"210",129,10,1,1,1,5,1,NA,NA
"211",129,11,1,1,1,4,0,NA,NA
"212",129,12,1,1,1,3,0,NA,NA
"213",129,13,1,1,1,3,0,NA,NA
"214",129,14,1,1,1,2,0,NA,NA
"215",129,15,1,1,1,3,0,NA,NA
"216",129,16,1,1,1,3,0,NA,NA
"217",129,17,1,1,1,3,0,NA,NA
"218",129,18,1,1,1,3,0,NA,NA
"219",129,19,1,1,1,3,0,NA,NA
"220",129,20,1,1,1,4,0,NA,NA
"221",131,11,1,1,1,4,1,NA,NA
"222",131,12,1,1,1,5,1,NA,NA
"223",131,13,1,1,1,3,1,NA,NA
"224",131,14,1,1,1,1,1,NA,NA
"225",131,15,1,1,1,5,1,NA,NA
"226",131,16,1,1,1,5,1,NA,NA
"227",131,17,1,1,1,2,1,NA,NA
"228",131,18,1,1,1,1,1,NA,NA
"229",131,19,1,1,1,1,1,NA,NA
"230",131,20,1,1,1,1,1,NA,NA
"231",131,21,1,1,1,5,0,NA,NA
"232",131,22,1,1,1,5,0,NA,NA
"233",131,23,1,1,1,3,0,NA,NA
"234",131,24,1,1,1,3,0,NA,NA
"235",131,25,1,1,1,5,0,NA,NA
"236",131,26,1,1,1,1,0,NA,NA
"237",131,27,1,1,1,1,0,NA,NA
"238",131,28,1,1,1,3,0,NA,NA
"239",131,29,1,1,1,3,0,NA,NA
"240",131,30,1,1,1,5,0,NA,NA
"241",133,11,1,1,1,2,0,NA,NA
"242",133,12,1,1,1,3,0,NA,NA
"243",133,13,1,1,1,5,0,NA,NA
"244",133,14,1,1,1,3,0,NA,NA
"245",133,15,1,1,1,5,0,NA,NA
"246",133,16,1,1,1,4,0,NA,NA
"247",133,17,1,1,1,4,0,NA,NA
"248",133,18,1,1,1,2,0,NA,NA
"249",133,19,1,1,1,2,0,NA,NA
"250",133,20,1,1,1,3,0,NA,NA
"251",133,21,1,1,1,3,1,NA,NA
"252",133,22,1,1,1,3,1,NA,NA
"253",133,23,1,1,1,5,1,NA,NA
"254",133,24,1,1,1,2,1,NA,NA
"255",133,25,1,1,1,3,1,NA,NA
"256",133,26,1,1,1,1,1,NA,NA
"257",133,27,1,1,1,3,1,NA,NA
"258",133,28,1,1,1,1,1,NA,NA
"259",133,29,1,1,1,1,1,NA,NA
"260",133,30,1,1,1,5,1,NA,NA
"261",134,11,1,1,1,4,1,NA,NA
"262",134,12,1,1,1,5,1,NA,NA
"263",134,13,1,1,1,3,1,NA,NA
"264",134,14,1,1,1,1,1,NA,NA
"265",134,15,1,1,1,5,1,NA,NA
"266",134,16,1,1,1,5,1,NA,NA
"267",134,17,1,1,1,2,1,NA,NA
"268",134,18,1,1,1,1,1,NA,NA
"269",134,19,1,1,1,1,1,NA,NA
"270",134,20,1,1,1,1,1,NA,NA
"271",134,21,1,1,1,5,0,NA,NA
"272",134,22,1,1,1,5,0,NA,NA
"273",134,23,1,1,1,5,0,NA,NA
"274",134,24,1,1,1,3,0,NA,NA
"275",134,25,1,1,1,5,0,NA,NA
"276",134,26,1,1,1,1,0,NA,NA
"277",134,27,1,1,1,1,0,NA,NA
"278",134,28,1,1,1,2,0,NA,NA
"279",134,29,1,1,1,4,0,NA,NA
"280",134,30,1,1,1,5,0,NA,NA
"281",135,11,1,1,1,1,0,NA,NA
"282",135,12,1,1,1,2,0,NA,NA
"283",135,13,1,1,1,2,0,NA,NA
"284",135,14,1,1,1,1,0,NA,NA
"285",135,15,1,1,1,2,0,NA,NA
"286",135,16,1,1,1,4,0,NA,NA
"287",135,17,1,1,1,4,0,NA,NA
"288",135,18,1,1,1,1,0,NA,NA
"289",135,19,1,1,1,3,0,NA,NA
"290",135,20,1,1,1,3,0,NA,NA
"291",135,21,1,1,1,4,1,NA,NA
"292",135,22,1,1,1,4,1,NA,NA
"293",135,23,1,1,1,3,1,NA,NA
"294",135,24,1,1,1,4,1,NA,NA
"295",135,25,1,1,1,3,1,NA,NA
"296",135,26,1,1,1,3,1,NA,NA
"297",135,27,1,1,1,4,1,NA,NA
"298",135,28,1,1,1,2,1,NA,NA
"299",135,29,1,1,1,4,1,NA,NA
"300",135,30,1,1,1,4,1,NA,NA
"301",136,1,1,1,1,4,0,NA,NA
"302",136,2,1,1,1,4,0,NA,NA
"303",136,3,1,1,1,5,0,NA,NA
"304",136,4,1,1,1,3,0,NA,NA
"305",136,5,1,1,1,3,0,NA,NA
"306",136,6,1,1,1,2,0,NA,NA
"307",136,7,1,1,1,4,0,NA,NA
"308",136,8,1,1,1,3,0,NA,NA
"309",136,9,1,1,1,4,0,NA,NA
"310",136,10,1,1,1,1,0,NA,NA
"311",136,21,1,1,1,4,1,NA,NA
"312",136,22,1,1,1,1,1,NA,NA
"313",136,23,1,1,1,5,1,NA,NA
"314",136,24,1,1,1,5,1,NA,NA
"315",136,25,1,1,1,5,1,NA,NA
"316",136,26,1,1,1,1,1,NA,NA
"317",136,27,1,1,1,5,1,NA,NA
"318",136,28,1,1,1,5,1,NA,NA
"319",136,29,1,1,1,1,1,NA,NA
"320",136,30,1,1,1,1,1,NA,NA
"321",137,1,1,1,1,4,1,NA,NA
"322",137,2,1,1,1,3,1,NA,NA
"323",137,3,1,1,1,3,1,NA,NA
"324",137,4,1,1,1,3,1,NA,NA
"325",137,5,1,1,1,3,1,NA,NA
"326",137,6,1,1,1,3,1,NA,NA
"327",137,7,1,1,1,3,1,NA,NA
"328",137,8,1,1,1,3,1,NA,NA
"329",137,9,1,1,1,2,1,NA,NA
"330",137,10,1,1,1,1,1,NA,NA
"331",137,21,1,1,1,3,0,NA,NA
"332",137,22,1,1,1,4,0,NA,NA
"333",137,23,1,1,1,3,0,NA,NA
"334",137,24,1,1,1,3,0,NA,NA
"335",137,25,1,1,1,3,0,NA,NA
"336",137,26,1,1,1,1,0,NA,NA
"337",137,27,1,1,1,3,0,NA,NA
"338",137,28,1,1,1,2,0,NA,NA
"339",137,29,1,1,1,3,0,NA,NA
"340",137,30,1,1,1,4,0,NA,NA
"341",138,1,1,1,1,5,1,NA,NA
"342",138,2,1,1,1,1,1,NA,NA
"343",138,3,1,1,1,2,1,NA,NA
"344",138,4,1,1,1,1,1,NA,NA
"345",138,5,1,1,1,4,1,NA,NA
"346",138,6,1,1,1,3,1,NA,NA
"347",138,7,1,1,1,3,1,NA,NA
"348",138,8,1,1,1,3,1,NA,NA
"349",138,9,1,1,1,4,1,NA,NA
"350",138,10,1,1,1,1,1,NA,NA
"351",138,11,1,1,1,3,0,NA,NA
"352",138,12,1,1,1,3,0,NA,NA
"353",138,13,1,1,1,2,0,NA,NA
"354",138,14,1,1,1,1,0,NA,NA
"355",138,15,1,1,1,2,0,NA,NA
"356",138,16,1,1,1,4,0,NA,NA
"357",138,17,1,1,1,3,0,NA,NA
"358",138,18,1,1,1,1,0,NA,NA
"359",138,19,1,1,1,3,0,NA,NA
"360",138,20,1,1,1,1,0,NA,NA
"361",139,1,1,1,1,4,0,NA,NA
"362",139,2,1,1,1,1,0,NA,NA
"363",139,3,1,1,1,4,0,NA,NA
"364",139,4,1,1,1,2,0,NA,NA
"365",139,5,1,1,1,4,0,NA,NA
"366",139,6,1,1,1,2,0,NA,NA
"367",139,7,1,1,1,1,0,NA,NA
"368",139,8,1,1,1,3,0,NA,NA
"369",139,9,1,1,1,3,0,NA,NA
"370",139,10,1,1,1,1,0,NA,NA
"371",139,11,1,1,1,2,1,NA,NA
"372",139,12,1,1,1,3,1,NA,NA
"373",139,13,1,1,1,2,1,NA,NA
"374",139,14,1,1,1,1,1,NA,NA
"375",139,15,1,1,1,3,1,NA,NA
"376",139,16,1,1,1,1,1,NA,NA
"377",139,17,1,1,1,3,1,NA,NA
"378",139,18,1,1,1,1,1,NA,NA
"379",139,19,1,1,1,2,1,NA,NA
"380",139,20,1,1,1,3,1,NA,NA
"381",140,11,1,1,1,3,0,NA,NA
"382",140,12,1,1,1,4,0,NA,NA
"383",140,13,1,1,1,4,0,NA,NA
"384",140,14,1,1,1,2,0,NA,NA
"385",140,15,1,1,1,4,0,NA,NA
"386",140,16,1,1,1,4,0,NA,NA
"387",140,17,1,1,1,4,0,NA,NA
"388",140,18,1,1,1,5,0,NA,NA
"389",140,19,1,1,1,4,0,NA,NA
"390",140,20,1,1,1,4,0,NA,NA
"391",140,21,1,1,1,4,1,NA,NA
"392",140,22,1,1,1,4,1,NA,NA
"393",140,23,1,1,1,4,1,NA,NA
"394",140,24,1,1,1,2,1,NA,NA
"395",140,25,1,1,1,2,1,NA,NA
"396",140,26,1,1,1,4,1,NA,NA
"397",140,27,1,1,1,4,1,NA,NA
"398",140,28,1,1,1,4,1,NA,NA
"399",140,29,1,1,1,4,1,NA,NA
"400",140,30,1,1,1,5,1,NA,NA
"401",144,1,1,1,1,3,1,NA,NA
"402",144,2,1,1,1,4,1,NA,NA
"403",144,3,1,1,1,1,1,NA,NA
"404",144,4,1,1,1,4,1,NA,NA
"405",144,5,1,1,1,1,1,NA,NA
"406",144,6,1,1,1,2,1,NA,NA
"407",144,7,1,1,1,4,1,NA,NA
"408",144,8,1,1,1,3,1,NA,NA
"409",144,9,1,1,1,2,1,NA,NA
"410",144,10,1,1,1,4,1,NA,NA
"411",144,21,1,1,1,4,0,NA,NA
"412",144,22,1,1,1,3,0,NA,NA
"413",144,23,1,1,1,5,0,NA,NA
"414",144,24,1,1,1,2,0,NA,NA
"415",144,25,1,1,1,4,0,NA,NA
"416",144,26,1,1,1,4,0,NA,NA
"417",144,27,1,1,1,3,0,NA,NA
"418",144,28,1,1,1,4,0,NA,NA
"419",144,29,1,1,1,1,0,NA,NA
"420",144,30,1,1,1,5,0,NA,NA
"421",146,1,1,1,1,5,0,NA,NA
"422",146,2,1,1,1,1,0,NA,NA
"423",146,3,1,1,1,2,0,NA,NA
"424",146,4,1,1,1,4,0,NA,NA
"425",146,5,1,1,1,1,0,NA,NA
"426",146,6,1,1,1,1,0,NA,NA
"427",146,7,1,1,1,2,0,NA,NA
"428",146,8,1,1,1,3,0,NA,NA
"429",146,9,1,1,1,1,0,NA,NA
"430",146,10,1,1,1,1,0,NA,NA
"431",146,11,1,1,1,4,1,NA,NA
"432",146,12,1,1,1,5,1,NA,NA
"433",146,13,1,1,1,5,1,NA,NA
"434",146,14,1,1,1,1,1,NA,NA
"435",146,15,1,1,1,5,1,NA,NA
"436",146,16,1,1,1,5,1,NA,NA
"437",146,17,1,1,1,1,1,NA,NA
"438",146,18,1,1,1,1,1,NA,NA
"439",146,19,1,1,1,5,1,NA,NA
"440",146,20,1,1,1,2,1,NA,NA
"441",147,11,1,1,1,4,1,NA,NA
"442",147,12,1,1,1,4,1,NA,NA
"443",147,13,1,1,1,5,1,NA,NA
"444",147,14,1,1,1,5,1,NA,NA
"445",147,15,1,1,1,4,1,NA,NA
"446",147,16,1,1,1,4,1,NA,NA
"447",147,17,1,1,1,4,1,NA,NA
"448",147,18,1,1,1,1,1,NA,NA
"449",147,19,1,1,1,5,1,NA,NA
"450",147,20,1,1,1,4,1,NA,NA
"451",147,21,1,1,1,3,0,NA,NA
"452",147,22,1,1,1,3,0,NA,NA
"453",147,23,1,1,1,3,0,NA,NA
"454",147,24,1,1,1,4,0,NA,NA
"455",147,25,1,1,1,3,0,NA,NA
"456",147,26,1,1,1,5,0,NA,NA
"457",147,27,1,1,1,3,0,NA,NA
"458",147,28,1,1,1,3,0,NA,NA
"459",147,29,1,1,1,2,0,NA,NA
"460",147,30,1,1,1,5,0,NA,NA
"461",149,11,1,1,1,4,1,NA,NA
"462",149,12,1,1,1,4,1,NA,NA
"463",149,13,1,1,1,4,1,NA,NA
"464",149,14,1,1,1,4,1,NA,NA
"465",149,15,1,1,1,3,1,NA,NA
"466",149,16,1,1,1,4,1,NA,NA
"467",149,17,1,1,1,4,1,NA,NA
"468",149,18,1,1,1,4,1,NA,NA
"469",149,19,1,1,1,4,1,NA,NA
"470",149,20,1,1,1,4,1,NA,NA
"471",149,21,1,1,1,3,0,NA,NA
"472",149,22,1,1,1,2,0,NA,NA
"473",149,23,1,1,1,3,0,NA,NA
"474",149,24,1,1,1,3,0,NA,NA
"475",149,25,1,1,1,3,0,NA,NA
"476",149,26,1,1,1,3,0,NA,NA
"477",149,27,1,1,1,3,0,NA,NA
"478",149,28,1,1,1,5,0,NA,NA
"479",149,29,1,1,1,4,0,NA,NA
"480",149,30,1,1,1,3,0,NA,NA
"481",154,11,1,1,1,5,0,NA,NA
"482",154,12,1,1,1,2,0,NA,NA
"483",154,13,1,1,1,5,0,NA,NA
"484",154,14,1,1,1,4,0,NA,NA
"485",154,15,1,1,1,5,0,NA,NA
"486",154,16,1,1,1,4,0,NA,NA
"487",154,17,1,1,1,5,0,NA,NA
"488",154,18,1,1,1,1,0,NA,NA
"489",154,19,1,1,1,3,0,NA,NA
"490",154,20,1,1,1,1,0,NA,NA
"491",154,21,1,1,1,3,1,NA,NA
"492",154,22,1,1,1,4,1,NA,NA
"493",154,23,1,1,1,2,1,NA,NA
"494",154,24,1,1,1,2,1,NA,NA
"495",154,25,1,1,1,4,1,NA,NA
"496",154,26,1,1,1,5,1,NA,NA
"497",154,27,1,1,1,1,1,NA,NA
"498",154,28,1,1,1,1,1,NA,NA
"499",154,29,1,1,1,5,1,NA,NA
"500",154,30,1,1,1,2,1,NA,NA
"501",157,1,1,1,1,4,0,NA,NA
"502",157,2,1,1,1,2,0,NA,NA
"503",157,3,1,1,1,4,0,NA,NA
"504",157,4,1,1,1,4,0,NA,NA
"505",157,5,1,1,1,4,0,NA,NA
"506",157,6,1,1,1,3,0,NA,NA
"507",157,7,1,1,1,4,0,NA,NA
"508",157,8,1,1,1,2,0,NA,NA
"509",157,9,1,1,1,5,0,NA,NA
"510",157,10,1,1,1,2,0,NA,NA
"511",157,11,1,1,1,5,1,NA,NA
"512",157,12,1,1,1,5,1,NA,NA
"513",157,13,1,1,1,5,1,NA,NA
"514",157,14,1,1,1,4,1,NA,NA
"515",157,15,1,1,1,5,1,NA,NA
"516",157,16,1,1,1,5,1,NA,NA
"517",157,17,1,1,1,5,1,NA,NA
"518",157,18,1,1,1,5,1,NA,NA
"519",157,19,1,1,1,5,1,NA,NA
"520",157,20,1,1,1,5,1,NA,NA
"521",159,1,1,1,1,4,0,NA,NA
"522",159,2,1,1,1,4,0,NA,NA
"523",159,3,1,1,1,2,0,NA,NA
"524",159,4,1,1,1,3,0,NA,NA
"525",159,5,1,1,1,2,0,NA,NA
"526",159,6,1,1,1,3,0,NA,NA
"527",159,7,1,1,1,4,0,NA,NA
"528",159,8,1,1,1,4,0,NA,NA
"529",159,9,1,1,1,2,0,NA,NA
"530",159,10,1,1,1,1,0,NA,NA
"531",159,21,1,1,1,4,1,NA,NA
"532",159,22,1,1,1,4,1,NA,NA
"533",159,23,1,1,1,3,1,NA,NA
"534",159,24,1,1,1,4,1,NA,NA
"535",159,25,1,1,1,1,1,NA,NA
"536",159,26,1,1,1,4,1,NA,NA
"537",159,27,1,1,1,1,1,NA,NA
"538",159,28,1,1,1,3,1,NA,NA
"539",159,29,1,1,1,1,1,NA,NA
"540",159,30,1,1,1,5,1,NA,NA
"541",161,11,1,1,1,4,1,NA,NA
"542",161,12,1,1,1,4,1,NA,NA
"543",161,13,1,1,1,4,1,NA,NA
"544",161,14,1,1,1,4,1,NA,NA
"545",161,15,1,1,1,4,1,NA,NA
"546",161,16,1,1,1,4,1,NA,NA
"547",161,17,1,1,1,4,1,NA,NA
"548",161,18,1,1,1,4,1,NA,NA
"549",161,19,1,1,1,4,1,NA,NA
"550",161,20,1,1,1,4,1,NA,NA
"551",161,21,1,1,1,3,0,NA,NA
"552",161,22,1,1,1,4,0,NA,NA
"553",161,23,1,1,1,3,0,NA,NA
"554",161,24,1,1,1,4,0,NA,NA
"555",161,25,1,1,1,2,0,NA,NA
"556",161,26,1,1,1,3,0,NA,NA
"557",161,27,1,1,1,2,0,NA,NA
"558",161,28,1,1,1,3,0,NA,NA
"559",161,29,1,1,1,3,0,NA,NA
"560",161,30,1,1,1,5,0,NA,NA
"561",162,1,1,1,1,3,1,NA,NA
"562",162,2,1,1,1,3,1,NA,NA
"563",162,3,1,1,1,3,1,NA,NA
"564",162,4,1,1,1,3,1,NA,NA
"565",162,5,1,1,1,3,1,NA,NA
"566",162,6,1,1,1,3,1,NA,NA
"567",162,7,1,1,1,3,1,NA,NA
"568",162,8,1,1,1,3,1,NA,NA
"569",162,9,1,1,1,3,1,NA,NA
"570",162,10,1,1,1,3,1,NA,NA
"571",162,21,1,1,1,3,0,NA,NA
"572",162,22,1,1,1,3,0,NA,NA
"573",162,23,1,1,1,3,0,NA,NA
"574",162,24,1,1,1,3,0,NA,NA
"575",162,25,1,1,1,3,0,NA,NA
"576",162,26,1,1,1,3,0,NA,NA
"577",162,27,1,1,1,3,0,NA,NA
"578",162,28,1,1,1,3,0,NA,NA
"579",162,29,1,1,1,3,0,NA,NA
"580",162,30,1,1,1,5,0,NA,NA
"581",163,11,1,1,1,4,0,NA,NA
"582",163,12,1,1,1,3,0,NA,NA
"583",163,13,1,1,1,3,0,NA,NA
"584",163,14,1,1,1,4,0,NA,NA
"585",163,15,1,1,1,4,0,NA,NA
"586",163,16,1,1,1,4,0,NA,NA
"587",163,17,1,1,1,3,0,NA,NA
"588",163,18,1,1,1,4,0,NA,NA
"589",163,19,1,1,1,4,0,NA,NA
"590",163,20,1,1,1,5,0,NA,NA
"591",163,21,1,1,1,4,1,NA,NA
"592",163,22,1,1,1,5,1,NA,NA
"593",163,23,1,1,1,3,1,NA,NA
"594",163,24,1,1,1,5,1,NA,NA
"595",163,25,1,1,1,5,1,NA,NA
"596",163,26,1,1,1,4,1,NA,NA
"597",163,27,1,1,1,3,1,NA,NA
"598",163,28,1,1,1,3,1,NA,NA
"599",163,29,1,1,1,4,1,NA,NA
"600",163,30,1,1,1,5,1,NA,NA
"601",166,11,1,1,1,4,0,NA,NA
"602",166,12,1,1,1,3,0,NA,NA
"603",166,13,1,1,1,4,0,NA,NA
"604",166,14,1,1,1,1,0,NA,NA
"605",166,15,1,1,1,4,0,NA,NA
"606",166,16,1,1,1,2,0,NA,NA
"607",166,17,1,1,1,4,0,NA,NA
"608",166,18,1,1,1,2,0,NA,NA
"609",166,19,1,1,1,2,0,NA,NA
"610",166,20,1,1,1,1,0,NA,NA
"611",166,21,1,1,1,5,1,NA,NA
"612",166,22,1,1,1,5,1,NA,NA
"613",166,23,1,1,1,5,1,NA,NA
"614",166,24,1,1,1,4,1,NA,NA
"615",166,25,1,1,1,2,1,NA,NA
"616",166,26,1,1,1,1,1,NA,NA
"617",166,27,1,1,1,4,1,NA,NA
"618",166,28,1,1,1,3,1,NA,NA
"619",166,29,1,1,1,2,1,NA,NA
"620",166,30,1,1,1,5,1,NA,NA
"621",167,1,1,1,1,4,0,NA,NA
"622",167,2,1,1,1,3,0,NA,NA
"623",167,3,1,1,1,4,0,NA,NA
"624",167,4,1,1,1,3,0,NA,NA
"625",167,5,1,1,1,3,0,NA,NA
"626",167,6,1,1,1,2,0,NA,NA
"627",167,7,1,1,1,2,0,NA,NA
"628",167,8,1,1,1,3,0,NA,NA
"629",167,9,1,1,1,2,0,NA,NA
"630",167,10,1,1,1,3,0,NA,NA
"631",167,11,1,1,1,4,1,NA,NA
"632",167,12,1,1,1,3,1,NA,NA
"633",167,13,1,1,1,3,1,NA,NA
"634",167,14,1,1,1,1,1,NA,NA
"635",167,15,1,1,1,5,1,NA,NA
"636",167,16,1,1,1,2,1,NA,NA
"637",167,17,1,1,1,3,1,NA,NA
"638",167,18,1,1,1,2,1,NA,NA
"639",167,19,1,1,1,4,1,NA,NA
"640",167,20,1,1,1,2,1,NA,NA
"641",171,11,1,1,1,2,1,NA,NA
"642",171,12,1,1,1,3,1,NA,NA
"643",171,13,1,1,1,4,1,NA,NA
"644",171,14,1,1,1,4,1,NA,NA
"645",171,15,1,1,1,4,1,NA,NA
"646",171,16,1,1,1,3,1,NA,NA
"647",171,17,1,1,1,3,1,NA,NA
"648",171,18,1,1,1,3,1,NA,NA
"649",171,19,1,1,1,4,1,NA,NA
"650",171,20,1,1,1,4,1,NA,NA
"651",171,21,1,1,1,3,0,NA,NA
"652",171,22,1,1,1,2,0,NA,NA
"653",171,23,1,1,1,4,0,NA,NA
"654",171,24,1,1,1,4,0,NA,NA
"655",171,25,1,1,1,3,0,NA,NA
"656",171,26,1,1,1,3,0,NA,NA
"657",171,27,1,1,1,4,0,NA,NA
"658",171,28,1,1,1,2,0,NA,NA
"659",171,29,1,1,1,2,0,NA,NA
"660",171,30,1,1,1,3,0,NA,NA
"661",173,1,1,1,1,5,0,NA,NA
"662",173,2,1,1,1,3,0,NA,NA
"663",173,3,1,1,1,4,0,NA,NA
"664",173,4,1,1,1,3,0,NA,NA
"665",173,5,1,1,1,2,0,NA,NA
"666",173,6,1,1,1,4,0,NA,NA
"667",173,7,1,1,1,3,0,NA,NA
"668",173,8,1,1,1,3,0,NA,NA
"669",173,9,1,1,1,4,0,NA,NA
"670",173,10,1,1,1,2,0,NA,NA
"671",173,21,1,1,1,4,1,NA,NA
"672",173,22,1,1,1,4,1,NA,NA
"673",173,23,1,1,1,4,1,NA,NA
"674",173,24,1,1,1,4,1,NA,NA
"675",173,25,1,1,1,4,1,NA,NA
"676",173,26,1,1,1,4,1,NA,NA
"677",173,27,1,1,1,4,1,NA,NA
"678",173,28,1,1,1,4,1,NA,NA
"679",173,29,1,1,1,4,1,NA,NA
"680",173,30,1,1,1,5,1,NA,NA
"681",175,11,1,1,1,1,0,NA,NA
"682",175,12,1,1,1,3,0,NA,NA
"683",175,13,1,1,1,3,0,NA,NA
"684",175,14,1,1,1,4,0,NA,NA
"685",175,15,1,1,1,3,0,NA,NA
"686",175,16,1,1,1,5,0,NA,NA
"687",175,17,1,1,1,4,0,NA,NA
"688",175,18,1,1,1,4,0,NA,NA
"689",175,19,1,1,1,3,0,NA,NA
"690",175,20,1,1,1,2,0,NA,NA
"691",175,21,1,1,1,5,1,NA,NA
"692",175,22,1,1,1,5,1,NA,NA
"693",175,23,1,1,1,5,1,NA,NA
"694",175,24,1,1,1,5,1,NA,NA
"695",175,25,1,1,1,5,1,NA,NA
"696",175,26,1,1,1,5,1,NA,NA
"697",175,27,1,1,1,5,1,NA,NA
"698",175,28,1,1,1,5,1,NA,NA
"699",175,29,1,1,1,5,1,NA,NA
"700",175,30,1,1,1,5,1,NA,NA
"701",176,1,1,1,1,4,1,NA,NA
"702",176,2,1,1,1,5,1,NA,NA
"703",176,3,1,1,1,5,1,NA,NA
"704",176,4,1,1,1,5,1,NA,NA
"705",176,5,1,1,1,5,1,NA,NA
"706",176,6,1,1,1,5,1,NA,NA
"707",176,7,1,1,1,4,1,NA,NA
"708",176,8,1,1,1,3,1,NA,NA
"709",176,9,1,1,1,5,1,NA,NA
"710",176,10,1,1,1,5,1,NA,NA
"711",176,21,1,1,1,3,0,NA,NA
"712",176,22,1,1,1,4,0,NA,NA
"713",176,23,1,1,1,5,0,NA,NA
"714",176,24,1,1,1,2,0,NA,NA
"715",176,25,1,1,1,3,0,NA,NA
"716",176,26,1,1,1,1,0,NA,NA
"717",176,27,1,1,1,3,0,NA,NA
"718",176,28,1,1,1,2,0,NA,NA
"719",176,29,1,1,1,3,0,NA,NA
"720",176,30,1,1,1,5,0,NA,NA
"721",179,1,1,1,1,3,0,NA,NA
"722",179,2,1,1,1,4,0,NA,NA
"723",179,3,1,1,1,4,0,NA,NA
"724",179,4,1,1,1,3,0,NA,NA
"725",179,5,1,1,1,1,0,NA,NA
"726",179,6,1,1,1,4,0,NA,NA
"727",179,7,1,1,1,3,0,NA,NA
"728",179,8,1,1,1,3,0,NA,NA
"729",179,9,1,1,1,3,0,NA,NA
"730",179,10,1,1,1,3,0,NA,NA
"731",179,11,1,1,1,4,1,NA,NA
"732",179,12,1,1,1,4,1,NA,NA
"733",179,13,1,1,1,4,1,NA,NA
"734",179,14,1,1,1,4,1,NA,NA
"735",179,15,1,1,1,5,1,NA,NA
"736",179,16,1,1,1,4,1,NA,NA
"737",179,17,1,1,1,4,1,NA,NA
"738",179,18,1,1,1,5,1,NA,NA
"739",179,19,1,1,1,4,1,NA,NA
"740",179,20,1,1,1,4,1,NA,NA
"741",181,1,1,1,1,4,1,NA,NA
"742",181,2,1,1,1,3,1,NA,NA
"743",181,3,1,1,1,4,1,NA,NA
"744",181,4,1,1,1,5,1,NA,NA
"745",181,5,1,1,1,4,1,NA,NA
"746",181,6,1,1,1,4,1,NA,NA
"747",181,7,1,1,1,4,1,NA,NA
"748",181,8,1,1,1,4,1,NA,NA
"749",181,9,1,1,1,5,1,NA,NA
"750",181,10,1,1,1,4,1,NA,NA
"751",181,21,1,1,1,3,0,NA,NA
"752",181,22,1,1,1,2,0,NA,NA
"753",181,23,1,1,1,3,0,NA,NA
"754",181,24,1,1,1,3,0,NA,NA
"755",181,25,1,1,1,4,0,NA,NA
"756",181,26,1,1,1,3,0,NA,NA
"757",181,27,1,1,1,2,0,NA,NA
"758",181,28,1,1,1,2,0,NA,NA
"759",181,29,1,1,1,4,0,NA,NA
"760",181,30,1,1,1,2,0,NA,NA
"761",182,11,1,1,1,3,1,NA,NA
"762",182,12,1,1,1,3,1,NA,NA
"763",182,13,1,1,1,3,1,NA,NA
"764",182,14,1,1,1,3,1,NA,NA
"765",182,15,1,1,1,3,1,NA,NA
"766",182,16,1,1,1,3,1,NA,NA
"767",182,17,1,1,1,3,1,NA,NA
"768",182,18,1,1,1,3,1,NA,NA
"769",182,19,1,1,1,3,1,NA,NA
"770",182,20,1,1,1,3,1,NA,NA
"771",182,21,1,1,1,3,0,NA,NA
"772",182,22,1,1,1,3,0,NA,NA
"773",182,23,1,1,1,3,0,NA,NA
"774",182,24,1,1,1,3,0,NA,NA
"775",182,25,1,1,1,3,0,NA,NA
"776",182,26,1,1,1,3,0,NA,NA
"777",182,27,1,1,1,3,0,NA,NA
"778",182,28,1,1,1,3,0,NA,NA
"779",182,29,1,1,1,4,0,NA,NA
"780",182,30,1,1,1,3,0,NA,NA
"781",184,1,1,1,1,5,0,NA,NA
"782",184,2,1,1,1,4,0,NA,NA
"783",184,3,1,1,1,1,0,NA,NA
"784",184,4,1,1,1,2,0,NA,NA
"785",184,5,1,1,1,1,0,NA,NA
"786",184,6,1,1,1,3,0,NA,NA
"787",184,7,1,1,1,2,0,NA,NA
"788",184,8,1,1,1,2,0,NA,NA
"789",184,9,1,1,1,4,0,NA,NA
"790",184,10,1,1,1,3,0,NA,NA
"791",184,11,1,1,1,4,1,NA,NA
"792",184,12,1,1,1,2,1,NA,NA
"793",184,13,1,1,1,4,1,NA,NA
"794",184,14,1,1,1,1,1,NA,NA
"795",184,15,1,1,1,3,1,NA,NA
"796",184,16,1,1,1,4,1,NA,NA
"797",184,17,1,1,1,2,1,NA,NA
"798",184,18,1,1,1,1,1,NA,NA
"799",184,19,1,1,1,4,1,NA,NA
"800",184,20,1,1,1,5,1,NA,NA
"801",186,11,1,1,1,2,0,NA,NA
"802",186,12,1,1,1,3,0,NA,NA
"803",186,13,1,1,1,2,0,NA,NA
"804",186,14,1,1,1,1,0,NA,NA
"805",186,15,1,1,1,3,0,NA,NA
"806",186,16,1,1,1,3,0,NA,NA
"807",186,17,1,1,1,3,0,NA,NA
"808",186,18,1,1,1,3,0,NA,NA
"809",186,19,1,1,1,3,0,NA,NA
"810",186,20,1,1,1,3,0,NA,NA
"811",186,21,1,1,1,3,1,NA,NA
"812",186,22,1,1,1,3,1,NA,NA
"813",186,23,1,1,1,3,1,NA,NA
"814",186,24,1,1,1,3,1,NA,NA
"815",186,25,1,1,1,4,1,NA,NA
"816",186,26,1,1,1,2,1,NA,NA
"817",186,27,1,1,1,3,1,NA,NA
"818",186,28,1,1,1,3,1,NA,NA
"819",186,29,1,1,1,4,1,NA,NA
"820",186,30,1,1,1,3,1,NA,NA
"821",187,1,1,1,1,4,1,NA,NA
"822",187,2,1,1,1,2,1,NA,NA
"823",187,3,1,1,1,5,1,NA,NA
"824",187,4,1,1,1,2,1,NA,NA
"825",187,5,1,1,1,5,1,NA,NA
"826",187,6,1,1,1,2,1,NA,NA
"827",187,7,1,1,1,4,1,NA,NA
"828",187,8,1,1,1,4,1,NA,NA
"829",187,9,1,1,1,5,1,NA,NA
"830",187,10,1,1,1,1,1,NA,NA
"831",187,11,1,1,1,4,0,NA,NA
"832",187,12,1,1,1,5,0,NA,NA
"833",187,13,1,1,1,3,0,NA,NA
"834",187,14,1,1,1,4,0,NA,NA
"835",187,15,1,1,1,2,0,NA,NA
"836",187,16,1,1,1,2,0,NA,NA
"837",187,17,1,1,1,4,0,NA,NA
"838",187,18,1,1,1,2,0,NA,NA
"839",187,19,1,1,1,2,0,NA,NA
"840",187,20,1,1,1,3,0,NA,NA
"841",189,1,1,1,1,4,0,NA,NA
"842",189,2,1,1,1,4,0,NA,NA
"843",189,3,1,1,1,4,0,NA,NA
"844",189,4,1,1,1,3,0,NA,NA
"845",189,5,1,1,1,2,0,NA,NA
"846",189,6,1,1,1,3,0,NA,NA
"847",189,7,1,1,1,3,0,NA,NA
"848",189,8,1,1,1,4,0,NA,NA
"849",189,9,1,1,1,3,0,NA,NA
"850",189,10,1,1,1,2,0,NA,NA
"851",189,11,1,1,1,4,1,NA,NA
"852",189,12,1,1,1,3,1,NA,NA
"853",189,13,1,1,1,3,1,NA,NA
"854",189,14,1,1,1,3,1,NA,NA
"855",189,15,1,1,1,3,1,NA,NA
"856",189,16,1,1,1,3,1,NA,NA
"857",189,17,1,1,1,2,1,NA,NA
"858",189,18,1,1,1,3,1,NA,NA
"859",189,19,1,1,1,3,1,NA,NA
"860",189,20,1,1,1,4,1,NA,NA
"861",190,11,1,1,1,4,0,NA,NA
"862",190,12,1,1,1,3,0,NA,NA
"863",190,13,1,1,1,4,0,NA,NA
"864",190,14,1,1,1,2,0,NA,NA
"865",190,15,1,1,1,3,0,NA,NA
"866",190,16,1,1,1,3,0,NA,NA
"867",190,17,1,1,1,3,0,NA,NA
"868",190,18,1,1,1,1,0,NA,NA
"869",190,19,1,1,1,2,0,NA,NA
"870",190,20,1,1,1,5,0,NA,NA
"871",190,21,1,1,1,3,1,NA,NA
"872",190,22,1,1,1,4,1,NA,NA
"873",190,23,1,1,1,4,1,NA,NA
"874",190,24,1,1,1,4,1,NA,NA
"875",190,25,1,1,1,3,1,NA,NA
"876",190,26,1,1,1,1,1,NA,NA
"877",190,27,1,1,1,2,1,NA,NA
"878",190,28,1,1,1,4,1,NA,NA
"879",190,29,1,1,1,4,1,NA,NA
"880",190,30,1,1,1,2,1,NA,NA
"881",191,1,1,1,1,4,0,NA,NA
"882",191,2,1,1,1,4,0,NA,NA
"883",191,3,1,1,1,5,0,NA,NA
"884",191,4,1,1,1,4,0,NA,NA
"885",191,5,1,1,1,5,0,NA,NA
"886",191,6,1,1,1,3,0,NA,NA
"887",191,7,1,1,1,3,0,NA,NA
"888",191,8,1,1,1,2,0,NA,NA
"889",191,9,1,1,1,4,0,NA,NA
"890",191,10,1,1,1,1,0,NA,NA
"891",191,21,1,1,1,5,1,NA,NA
"892",191,22,1,1,1,3,1,NA,NA
"893",191,23,1,1,1,5,1,NA,NA
"894",191,24,1,1,1,4,1,NA,NA
"895",191,25,1,1,1,4,1,NA,NA
"896",191,26,1,1,1,1,1,NA,NA
"897",191,27,1,1,1,4,1,NA,NA
"898",191,28,1,1,1,3,1,NA,NA
"899",191,29,1,1,1,5,1,NA,NA
"900",191,30,1,1,1,5,1,NA,NA
"901",194,11,1,1,1,3,1,NA,NA
"902",194,12,1,1,1,4,1,NA,NA
"903",194,13,1,1,1,2,1,NA,NA
"904",194,14,1,1,1,1,1,NA,NA
"905",194,15,1,1,1,5,1,NA,NA
"906",194,16,1,1,1,3,1,NA,NA
"907",194,17,1,1,1,4,1,NA,NA
"908",194,18,1,1,1,4,1,NA,NA
"909",194,19,1,1,1,2,1,NA,NA
"910",194,20,1,1,1,5,1,NA,NA
"911",194,21,1,1,1,3,0,NA,NA
"912",194,22,1,1,1,2,0,NA,NA
"913",194,23,1,1,1,2,0,NA,NA
"914",194,24,1,1,1,4,0,NA,NA
"915",194,25,1,1,1,2,0,NA,NA
"916",194,26,1,1,1,5,0,NA,NA
"917",194,27,1,1,1,4,0,NA,NA
"918",194,28,1,1,1,3,0,NA,NA
"919",194,29,1,1,1,3,0,NA,NA
"920",194,30,1,1,1,5,0,NA,NA
"921",198,1,1,1,1,4,0,NA,NA
"922",198,2,1,1,1,4,0,NA,NA
"923",198,3,1,1,1,2,0,NA,NA
"924",198,4,1,1,1,3,0,NA,NA
"925",198,5,1,1,1,3,0,NA,NA
"926",198,6,1,1,1,3,0,NA,NA
"927",198,7,1,1,1,3,0,NA,NA
"928",198,8,1,1,1,3,0,NA,NA
"929",198,9,1,1,1,2,0,NA,NA
"930",198,10,1,1,1,3,0,NA,NA
"931",198,21,1,1,1,4,1,NA,NA
"932",198,22,1,1,1,4,1,NA,NA
"933",198,23,1,1,1,3,1,NA,NA
"934",198,24,1,1,1,3,1,NA,NA
"935",198,25,1,1,1,3,1,NA,NA
"936",198,26,1,1,1,2,1,NA,NA
"937",198,27,1,1,1,3,1,NA,NA
"938",198,28,1,1,1,3,1,NA,NA
"939",198,29,1,1,1,4,1,NA,NA
"940",198,30,1,1,1,5,1,NA,NA
"941",199,1,1,1,1,3,0,NA,NA
"942",199,2,1,1,1,3,0,NA,NA
"943",199,3,1,1,1,4,0,NA,NA
"944",199,4,1,1,1,2,0,NA,NA
"945",199,5,1,1,1,2,0,NA,NA
"946",199,6,1,1,1,4,0,NA,NA
"947",199,7,1,1,1,1,0,NA,NA
"948",199,8,1,1,1,3,0,NA,NA
"949",199,9,1,1,1,4,0,NA,NA
"950",199,10,1,1,1,1,0,NA,NA
"951",199,11,1,1,1,5,1,NA,NA
"952",199,12,1,1,1,5,1,NA,NA
"953",199,13,1,1,1,5,1,NA,NA
"954",199,14,1,1,1,3,1,NA,NA
"955",199,15,1,1,1,4,1,NA,NA
"956",199,16,1,1,1,5,1,NA,NA
"957",199,17,1,1,1,2,1,NA,NA
"958",199,18,1,1,1,5,1,NA,NA
"959",199,19,1,1,1,3,1,NA,NA
"960",199,20,1,1,1,3,1,NA,NA
"961",201,11,1,1,1,2,1,NA,NA
"962",201,12,1,1,1,2,1,NA,NA
"963",201,13,1,1,1,1,1,NA,NA
"964",201,14,1,1,1,5,1,NA,NA
"965",201,15,1,1,1,4,1,NA,NA
"966",201,16,1,1,1,4,1,NA,NA
"967",201,17,1,1,1,4,1,NA,NA
"968",201,18,1,1,1,5,1,NA,NA
"969",201,19,1,1,1,5,1,NA,NA
"970",201,20,1,1,1,5,1,NA,NA
"971",201,21,1,1,1,3,0,NA,NA
"972",201,22,1,1,1,1,0,NA,NA
"973",201,23,1,1,1,2,0,NA,NA
"974",201,24,1,1,1,3,0,NA,NA
"975",201,25,1,1,1,3,0,NA,NA
"976",201,26,1,1,1,1,0,NA,NA
"977",201,27,1,1,1,1,0,NA,NA
"978",201,28,1,1,1,5,0,NA,NA
"979",201,29,1,1,1,3,0,NA,NA
"980",201,30,1,1,1,2,0,NA,NA
"981",203,1,1,1,1,4,1,NA,NA
"982",203,2,1,1,1,2,1,NA,NA
"983",203,3,1,1,1,2,1,NA,NA
"984",203,4,1,1,1,2,1,NA,NA
"985",203,5,1,1,1,4,1,NA,NA
"986",203,6,1,1,1,4,1,NA,NA
"987",203,7,1,1,1,4,1,NA,NA
"988",203,8,1,1,1,2,1,NA,NA
"989",203,9,1,1,1,2,1,NA,NA
"990",203,10,1,1,1,2,1,NA,NA
"991",203,11,1,1,1,4,0,NA,NA
"992",203,12,1,1,1,4,0,NA,NA
"993",203,13,1,1,1,4,0,NA,NA
"994",203,14,1,1,1,2,0,NA,NA
"995",203,15,1,1,1,2,0,NA,NA
"996",203,16,1,1,1,4,0,NA,NA
"997",203,17,1,1,1,4,0,NA,NA
"998",203,18,1,1,1,4,0,NA,NA
"999",203,19,1,1,1,2,0,NA,NA
"1000",203,20,1,1,1,2,0,NA,NA
"1001",205,11,1,1,1,2,0,NA,NA
"1002",205,12,1,1,1,2,0,NA,NA
"1003",205,13,1,1,1,2,0,NA,NA
"1004",205,14,1,1,1,1,0,NA,NA
"1005",205,15,1,1,1,4,0,NA,NA
"1006",205,16,1,1,1,2,0,NA,NA
"1007",205,17,1,1,1,1,0,NA,NA
"1008",205,18,1,1,1,3,0,NA,NA
"1009",205,19,1,1,1,2,0,NA,NA
"1010",205,20,1,1,1,3,0,NA,NA
"1011",205,21,1,1,1,4,1,NA,NA
"1012",205,22,1,1,1,4,1,NA,NA
"1013",205,23,1,1,1,4,1,NA,NA
"1014",205,24,1,1,1,4,1,NA,NA
"1015",205,25,1,1,1,4,1,NA,NA
"1016",205,26,1,1,1,3,1,NA,NA
"1017",205,27,1,1,1,4,1,NA,NA
"1018",205,28,1,1,1,3,1,NA,NA
"1019",205,29,1,1,1,2,1,NA,NA
"1020",205,30,1,1,1,3,1,NA,NA
"1021",206,1,1,1,1,4,1,NA,NA
"1022",206,2,1,1,1,2,1,NA,NA
"1023",206,3,1,1,1,2,1,NA,NA
"1024",206,4,1,1,1,3,1,NA,NA
"1025",206,5,1,1,1,4,1,NA,NA
"1026",206,6,1,1,1,3,1,NA,NA
"1027",206,7,1,1,1,4,1,NA,NA
"1028",206,8,1,1,1,2,1,NA,NA
"1029",206,9,1,1,1,3,1,NA,NA
"1030",206,10,1,1,1,1,1,NA,NA
"1031",206,21,1,1,1,2,0,NA,NA
"1032",206,22,1,1,1,4,0,NA,NA
"1033",206,23,1,1,1,3,0,NA,NA
"1034",206,24,1,1,1,4,0,NA,NA
"1035",206,25,1,1,1,4,0,NA,NA
"1036",206,26,1,1,1,2,0,NA,NA
"1037",206,27,1,1,1,3,0,NA,NA
"1038",206,28,1,1,1,3,0,NA,NA
"1039",206,29,1,1,1,2,0,NA,NA
"1040",206,30,1,1,1,3,0,NA,NA
"1041",207,11,1,1,1,2,1,NA,NA
"1042",207,12,1,1,1,4,1,NA,NA
"1043",207,13,1,1,1,4,1,NA,NA
"1044",207,14,1,1,1,4,1,NA,NA
"1045",207,15,1,1,1,3,1,NA,NA
"1046",207,16,1,1,1,1,1,NA,NA
"1047",207,17,1,1,1,5,1,NA,NA
"1048",207,18,1,1,1,5,1,NA,NA
"1049",207,19,1,1,1,2,1,NA,NA
"1050",207,20,1,1,1,1,1,NA,NA
"1051",207,21,1,1,1,5,0,NA,NA
"1052",207,22,1,1,1,4,0,NA,NA
"1053",207,23,1,1,1,5,0,NA,NA
"1054",207,24,1,1,1,4,0,NA,NA
"1055",207,25,1,1,1,1,0,NA,NA
"1056",207,26,1,1,1,4,0,NA,NA
"1057",207,27,1,1,1,4,0,NA,NA
"1058",207,28,1,1,1,2,0,NA,NA
"1059",207,29,1,1,1,1,0,NA,NA
"1060",207,30,1,1,1,5,0,NA,NA
"1061",208,1,1,1,1,2,0,NA,NA
"1062",208,2,1,1,1,4,0,NA,NA
"1063",208,3,1,1,1,5,0,NA,NA
"1064",208,4,1,1,1,2,0,NA,NA
"1065",208,5,1,1,1,4,0,NA,NA
"1066",208,6,1,1,1,2,0,NA,NA
"1067",208,7,1,1,1,4,0,NA,NA
"1068",208,8,1,1,1,2,0,NA,NA
"1069",208,9,1,1,1,3,0,NA,NA
"1070",208,10,1,1,1,3,0,NA,NA
"1071",208,21,1,1,1,2,1,NA,NA
"1072",208,22,1,1,1,3,1,NA,NA
"1073",208,23,1,1,1,4,1,NA,NA
"1074",208,24,1,1,1,3,1,NA,NA
"1075",208,25,1,1,1,2,1,NA,NA
"1076",208,26,1,1,1,5,1,NA,NA
"1077",208,27,1,1,1,4,1,NA,NA
"1078",208,28,1,1,1,3,1,NA,NA
"1079",208,29,1,1,1,4,1,NA,NA
"1080",208,30,1,1,1,5,1,NA,NA
"1081",209,1,1,1,1,4,0,NA,NA
"1082",209,2,1,1,1,2,0,NA,NA
"1083",209,3,1,1,1,2,0,NA,NA
"1084",209,4,1,1,1,1,0,NA,NA
"1085",209,5,1,1,1,4,0,NA,NA
"1086",209,6,1,1,1,1,0,NA,NA
"1087",209,7,1,1,1,3,0,NA,NA
"1088",209,8,1,1,1,4,0,NA,NA
"1089",209,9,1,1,1,1,0,NA,NA
"1090",209,10,1,1,1,1,0,NA,NA
"1091",209,11,1,1,1,1,1,NA,NA
"1092",209,12,1,1,1,3,1,NA,NA
"1093",209,13,1,1,1,1,1,NA,NA
"1094",209,14,1,1,1,1,1,NA,NA
"1095",209,15,1,1,1,1,1,NA,NA
"1096",209,16,1,1,1,1,1,NA,NA
"1097",209,17,1,1,1,3,1,NA,NA
"1098",209,18,1,1,1,1,1,NA,NA
"1099",209,19,1,1,1,4,1,NA,NA
"1100",209,20,1,1,1,2,1,NA,NA
"1101",212,1,1,1,1,2,1,NA,NA
"1102",212,2,1,1,1,3,1,NA,NA
"1103",212,3,1,1,1,4,1,NA,NA
"1104",212,4,1,1,1,3,1,NA,NA
"1105",212,5,1,1,1,2,1,NA,NA
"1106",212,6,1,1,1,3,1,NA,NA
"1107",212,7,1,1,1,2,1,NA,NA
"1108",212,8,1,1,1,3,1,NA,NA
"1109",212,9,1,1,1,3,1,NA,NA
"1110",212,10,1,1,1,3,1,NA,NA
"1111",212,11,1,1,1,4,0,NA,NA
"1112",212,12,1,1,1,2,0,NA,NA
"1113",212,13,1,1,1,3,0,NA,NA
"1114",212,14,1,1,1,2,0,NA,NA
"1115",212,15,1,1,1,3,0,NA,NA
"1116",212,16,1,1,1,3,0,NA,NA
"1117",212,17,1,1,1,2,0,NA,NA
"1118",212,18,1,1,1,3,0,NA,NA
"1119",212,19,1,1,1,3,0,NA,NA
"1120",212,20,1,1,1,4,0,NA,NA
"1121",213,11,1,1,1,5,0,NA,NA
"1122",213,12,1,1,1,3,0,NA,NA
"1123",213,13,1,1,1,2,0,NA,NA
"1124",213,14,1,1,1,5,0,NA,NA
"1125",213,15,1,1,1,1,0,NA,NA
"1126",213,16,1,1,1,2,0,NA,NA
"1127",213,17,1,1,1,1,0,NA,NA
"1128",213,18,1,1,1,2,0,NA,NA
"1129",213,19,1,1,1,4,0,NA,NA
"1130",213,20,1,1,1,3,0,NA,NA
"1131",213,21,1,1,1,3,1,NA,NA
"1132",213,22,1,1,1,2,1,NA,NA
"1133",213,23,1,1,1,1,1,NA,NA
"1134",213,24,1,1,1,2,1,NA,NA
"1135",213,25,1,1,1,4,1,NA,NA
"1136",213,26,1,1,1,4,1,NA,NA
"1137",213,27,1,1,1,1,1,NA,NA
"1138",213,28,1,1,1,4,1,NA,NA
"1139",213,29,1,1,1,2,1,NA,NA
"1140",213,30,1,1,1,1,1,NA,NA
"1141",215,11,1,1,1,5,1,NA,NA
"1142",215,12,1,1,1,5,1,NA,NA
"1143",215,13,1,1,1,5,1,NA,NA
"1144",215,14,1,1,1,5,1,NA,NA
"1145",215,15,1,1,1,5,1,NA,NA
"1146",215,16,1,1,1,5,1,NA,NA
"1147",215,17,1,1,1,5,1,NA,NA
"1148",215,18,1,1,1,5,1,NA,NA
"1149",215,19,1,1,1,5,1,NA,NA
"1150",215,20,1,1,1,5,1,NA,NA
"1151",215,21,1,1,1,3,0,NA,NA
"1152",215,22,1,1,1,4,0,NA,NA
"1153",215,23,1,1,1,4,0,NA,NA
"1154",215,24,1,1,1,3,0,NA,NA
"1155",215,25,1,1,1,4,0,NA,NA
"1156",215,26,1,1,1,5,0,NA,NA
"1157",215,27,1,1,1,4,0,NA,NA
"1158",215,28,1,1,1,1,0,NA,NA
"1159",215,29,1,1,1,2,0,NA,NA
"1160",215,30,1,1,1,4,0,NA,NA
"1161",217,1,1,1,1,2,0,NA,NA
"1162",217,2,1,1,1,3,0,NA,NA
"1163",217,3,1,1,1,1,0,NA,NA
"1164",217,4,1,1,1,3,0,NA,NA
"1165",217,5,1,1,1,1,0,NA,NA
"1166",217,6,1,1,1,2,0,NA,NA
"1167",217,7,1,1,1,2,0,NA,NA
"1168",217,8,1,1,1,3,0,NA,NA
"1169",217,9,1,1,1,3,0,NA,NA
"1170",217,10,1,1,1,3,0,NA,NA
"1171",217,21,1,1,1,3,1,NA,NA
"1172",217,22,1,1,1,2,1,NA,NA
"1173",217,23,1,1,1,5,1,NA,NA
"1174",217,24,1,1,1,2,1,NA,NA
"1175",217,25,1,1,1,4,1,NA,NA
"1176",217,26,1,1,1,2,1,NA,NA
"1177",217,27,1,1,1,3,1,NA,NA
"1178",217,28,1,1,1,1,1,NA,NA
"1179",217,29,1,1,1,2,1,NA,NA
"1180",217,30,1,1,1,3,1,NA,NA
"1181",219,1,1,1,1,4,0,NA,NA
"1182",219,2,1,1,1,2,0,NA,NA
"1183",219,3,1,1,1,2,0,NA,NA
"1184",219,4,1,1,1,2,0,NA,NA
"1185",219,5,1,1,1,4,0,NA,NA
"1186",219,6,1,1,1,3,0,NA,NA
"1187",219,7,1,1,1,3,0,NA,NA
"1188",219,8,1,1,1,3,0,NA,NA
"1189",219,9,1,1,1,3,0,NA,NA
"1190",219,10,1,1,1,3,0,NA,NA
"1191",219,11,1,1,1,4,1,NA,NA
"1192",219,12,1,1,1,4,1,NA,NA
"1193",219,13,1,1,1,3,1,NA,NA
"1194",219,14,1,1,1,4,1,NA,NA
"1195",219,15,1,1,1,4,1,NA,NA
"1196",219,16,1,1,1,4,1,NA,NA
"1197",219,17,1,1,1,3,1,NA,NA
"1198",219,18,1,1,1,4,1,NA,NA
"1199",219,19,1,1,1,4,1,NA,NA
"1200",219,20,1,1,1,3,1,NA,NA
"1201",223,1,1,1,1,4,0,NA,NA
"1202",223,2,1,1,1,4,0,NA,NA
"1203",223,3,1,1,1,2,0,NA,NA
"1204",223,4,1,1,1,1,0,NA,NA
"1205",223,5,1,1,1,2,0,NA,NA
"1206",223,6,1,1,1,4,0,NA,NA
"1207",223,7,1,1,1,1,0,NA,NA
"1208",223,8,1,1,1,3,0,NA,NA
"1209",223,9,1,1,1,4,0,NA,NA
"1210",223,10,1,1,1,4,0,NA,NA
"1211",223,21,1,1,1,4,1,NA,NA
"1212",223,22,1,1,1,4,1,NA,NA
"1213",223,23,1,1,1,3,1,NA,NA
"1214",223,24,1,1,1,4,1,NA,NA
"1215",223,25,1,1,1,2,1,NA,NA
"1216",223,26,1,1,1,3,1,NA,NA
"1217",223,27,1,1,1,5,1,NA,NA
"1218",223,28,1,1,1,4,1,NA,NA
"1219",223,29,1,1,1,5,1,NA,NA
"1220",223,30,1,1,1,5,1,NA,NA
"1221",225,1,1,1,1,5,1,NA,NA
"1222",225,2,1,1,1,5,1,NA,NA
"1223",225,3,1,1,1,1,1,NA,NA
"1224",225,4,1,1,1,4,1,NA,NA
"1225",225,5,1,1,1,2,1,NA,NA
"1226",225,6,1,1,1,2,1,NA,NA
"1227",225,7,1,1,1,4,1,NA,NA
"1228",225,8,1,1,1,4,1,NA,NA
"1229",225,9,1,1,1,2,1,NA,NA
"1230",225,10,1,1,1,2,1,NA,NA
"1231",225,11,1,1,1,1,0,NA,NA
"1232",225,12,1,1,1,2,0,NA,NA
"1233",225,13,1,1,1,4,0,NA,NA
"1234",225,14,1,1,1,2,0,NA,NA
"1235",225,15,1,1,1,5,0,NA,NA
"1236",225,16,1,1,1,4,0,NA,NA
"1237",225,17,1,1,1,2,0,NA,NA
"1238",225,18,1,1,1,4,0,NA,NA
"1239",225,19,1,1,1,4,0,NA,NA
"1240",225,20,1,1,1,1,0,NA,NA
"1241",226,1,1,1,1,4,1,NA,NA
"1242",226,2,1,1,1,3,1,NA,NA
"1243",226,3,1,1,1,3,1,NA,NA
"1244",226,4,1,1,1,3,1,NA,NA
"1245",226,5,1,1,1,5,1,NA,NA
"1246",226,6,1,1,1,2,1,NA,NA
"1247",226,7,1,1,1,3,1,NA,NA
"1248",226,8,1,1,1,3,1,NA,NA
"1249",226,9,1,1,1,3,1,NA,NA
"1250",226,10,1,1,1,3,1,NA,NA
"1251",226,21,1,1,1,3,0,NA,NA
"1252",226,22,1,1,1,3,0,NA,NA
"1253",226,23,1,1,1,2,0,NA,NA
"1254",226,24,1,1,1,3,0,NA,NA
"1255",226,25,1,1,1,2,0,NA,NA
"1256",226,26,1,1,1,3,0,NA,NA
"1257",226,27,1,1,1,3,0,NA,NA
"1258",226,28,1,1,1,3,0,NA,NA
"1259",226,29,1,1,1,5,0,NA,NA
"1260",226,30,1,1,1,5,0,NA,NA
"1261",227,1,1,1,1,5,0,NA,NA
"1262",227,2,1,1,1,1,0,NA,NA
"1263",227,3,1,1,1,5,0,NA,NA
"1264",227,4,1,1,1,3,0,NA,NA
"1265",227,5,1,1,1,3,0,NA,NA
"1266",227,6,1,1,1,3,0,NA,NA
"1267",227,7,1,1,1,5,0,NA,NA
"1268",227,8,1,1,1,3,0,NA,NA
"1269",227,9,1,1,1,3,0,NA,NA
"1270",227,10,1,1,1,3,0,NA,NA
"1271",227,11,1,1,1,5,1,NA,NA
"1272",227,12,1,1,1,5,1,NA,NA
"1273",227,13,1,1,1,4,1,NA,NA
"1274",227,14,1,1,1,5,1,NA,NA
"1275",227,15,1,1,1,3,1,NA,NA
"1276",227,16,1,1,1,3,1,NA,NA
"1277",227,17,1,1,1,3,1,NA,NA
"1278",227,18,1,1,1,3,1,NA,NA
"1279",227,19,1,1,1,3,1,NA,NA
"1280",227,20,1,1,1,3,1,NA,NA
"1281",229,11,1,1,1,1,0,NA,NA
"1282",229,12,1,1,1,5,0,NA,NA
"1283",229,13,1,1,1,5,0,NA,NA
"1284",229,14,1,1,1,4,0,NA,NA
"1285",229,15,1,1,1,5,0,NA,NA
"1286",229,16,1,1,1,5,0,NA,NA
"1287",229,17,1,1,1,1,0,NA,NA
"1288",229,18,1,1,1,2,0,NA,NA
"1289",229,19,1,1,1,4,0,NA,NA
"1290",229,20,1,1,1,5,0,NA,NA
"1291",229,21,1,1,1,5,1,NA,NA
"1292",229,22,1,1,1,5,1,NA,NA
"1293",229,23,1,1,1,5,1,NA,NA
"1294",229,24,1,1,1,5,1,NA,NA
"1295",229,25,1,1,1,5,1,NA,NA
"1296",229,26,1,1,1,3,1,NA,NA
"1297",229,27,1,1,1,5,1,NA,NA
"1298",229,28,1,1,1,5,1,NA,NA
"1299",229,29,1,1,1,5,1,NA,NA
"1300",229,30,1,1,1,5,1,NA,NA
"1301",230,11,1,1,1,4,1,NA,NA
"1302",230,12,1,1,1,2,1,NA,NA
"1303",230,13,1,1,1,4,1,NA,NA
"1304",230,14,1,1,1,4,1,NA,NA
"1305",230,15,1,1,1,3,1,NA,NA
"1306",230,16,1,1,1,2,1,NA,NA
"1307",230,17,1,1,1,1,1,NA,NA
"1308",230,18,1,1,1,2,1,NA,NA
"1309",230,19,1,1,1,1,1,NA,NA
"1310",230,20,1,1,1,3,1,NA,NA
"1311",230,21,1,1,1,3,0,NA,NA
"1312",230,22,1,1,1,3,0,NA,NA
"1313",230,23,1,1,1,2,0,NA,NA
"1314",230,24,1,1,1,5,0,NA,NA
"1315",230,25,1,1,1,3,0,NA,NA
"1316",230,26,1,1,1,4,0,NA,NA
"1317",230,27,1,1,1,2,0,NA,NA
"1318",230,28,1,1,1,3,0,NA,NA
"1319",230,29,1,1,1,3,0,NA,NA
"1320",230,30,1,1,1,4,0,NA,NA
"1321",234,1,1,1,1,4,0,NA,NA
"1322",234,2,1,1,1,3,0,NA,NA
"1323",234,3,1,1,1,2,0,NA,NA
"1324",234,4,1,1,1,3,0,NA,NA
"1325",234,5,1,1,1,2,0,NA,NA
"1326",234,6,1,1,1,4,0,NA,NA
"1327",234,7,1,1,1,4,0,NA,NA
"1328",234,8,1,1,1,3,0,NA,NA
"1329",234,9,1,1,1,1,0,NA,NA
"1330",234,10,1,1,1,1,0,NA,NA
"1331",234,11,1,1,1,4,1,NA,NA
"1332",234,12,1,1,1,3,1,NA,NA
"1333",234,13,1,1,1,3,1,NA,NA
"1334",234,14,1,1,1,4,1,NA,NA
"1335",234,15,1,1,1,3,1,NA,NA
"1336",234,16,1,1,1,1,1,NA,NA
"1337",234,17,1,1,1,4,1,NA,NA
"1338",234,18,1,1,1,1,1,NA,NA
"1339",234,19,1,1,1,3,1,NA,NA
"1340",234,20,1,1,1,2,1,NA,NA
"1341",236,1,1,1,1,2,1,NA,NA
"1342",236,2,1,1,1,5,1,NA,NA
"1343",236,3,1,1,1,5,1,NA,NA
"1344",236,4,1,1,1,1,1,NA,NA
"1345",236,5,1,1,1,1,1,NA,NA
"1346",236,6,1,1,1,1,1,NA,NA
"1347",236,7,1,1,1,1,1,NA,NA
"1348",236,8,1,1,1,1,1,NA,NA
"1349",236,9,1,1,1,1,1,NA,NA
"1350",236,10,1,1,1,1,1,NA,NA
"1351",236,11,1,1,1,5,0,NA,NA
"1352",236,12,1,1,1,5,0,NA,NA
"1353",236,13,1,1,1,5,0,NA,NA
"1354",236,14,1,1,1,1,0,NA,NA
"1355",236,15,1,1,1,5,0,NA,NA
"1356",236,16,1,1,1,5,0,NA,NA
"1357",236,17,1,1,1,2,0,NA,NA
"1358",236,18,1,1,1,1,0,NA,NA
"1359",236,19,1,1,1,1,0,NA,NA
"1360",236,20,1,1,1,2,0,NA,NA
"1361",240,1,1,1,1,2,0,NA,NA
"1362",240,2,1,1,1,2,0,NA,NA
"1363",240,3,1,1,1,2,0,NA,NA
"1364",240,4,1,1,1,3,0,NA,NA
"1365",240,5,1,1,1,3,0,NA,NA
"1366",240,6,1,1,1,3,0,NA,NA
"1367",240,7,1,1,1,2,0,NA,NA
"1368",240,8,1,1,1,4,0,NA,NA
"1369",240,9,1,1,1,4,0,NA,NA
"1370",240,10,1,1,1,3,0,NA,NA
"1371",240,21,1,1,1,4,1,NA,NA
"1372",240,22,1,1,1,4,1,NA,NA
"1373",240,23,1,1,1,4,1,NA,NA
"1374",240,24,1,1,1,2,1,NA,NA
"1375",240,25,1,1,1,4,1,NA,NA
"1376",240,26,1,1,1,4,1,NA,NA
"1377",240,27,1,1,1,3,1,NA,NA
"1378",240,28,1,1,1,5,1,NA,NA
"1379",240,29,1,1,1,3,1,NA,NA
"1380",240,30,1,1,1,4,1,NA,NA
"1381",242,11,1,1,1,3,1,NA,NA
"1382",242,12,1,1,1,3,1,NA,NA
"1383",242,13,1,1,1,3,1,NA,NA
"1384",242,14,1,1,1,3,1,NA,NA
"1385",242,15,1,1,1,3,1,NA,NA
"1386",242,16,1,1,1,3,1,NA,NA
"1387",242,17,1,1,1,3,1,NA,NA
"1388",242,18,1,1,1,3,1,NA,NA
"1389",242,19,1,1,1,3,1,NA,NA
"1390",242,20,1,1,1,3,1,NA,NA
"1391",242,21,1,1,1,3,0,NA,NA
"1392",242,22,1,1,1,3,0,NA,NA
"1393",242,23,1,1,1,3,0,NA,NA
"1394",242,24,1,1,1,3,0,NA,NA
"1395",242,25,1,1,1,3,0,NA,NA
"1396",242,26,1,1,1,3,0,NA,NA
"1397",242,27,1,1,1,3,0,NA,NA
"1398",242,28,1,1,1,3,0,NA,NA
"1399",242,29,1,1,1,3,0,NA,NA
"1400",242,30,1,1,1,3,0,NA,NA
"1401",245,1,1,1,1,4,1,NA,NA
"1402",245,2,1,1,1,4,1,NA,NA
"1403",245,3,1,1,1,4,1,NA,NA
"1404",245,4,1,1,1,4,1,NA,NA
"1405",245,5,1,1,1,2,1,NA,NA
"1406",245,6,1,1,1,3,1,NA,NA
"1407",245,7,1,1,1,4,1,NA,NA
"1408",245,8,1,1,1,3,1,NA,NA
"1409",245,9,1,1,1,3,1,NA,NA
"1410",245,10,1,1,1,3,1,NA,NA
"1411",245,11,1,1,1,3,0,NA,NA
"1412",245,12,1,1,1,3,0,NA,NA
"1413",245,13,1,1,1,4,0,NA,NA
"1414",245,14,1,1,1,3,0,NA,NA
"1415",245,15,1,1,1,5,0,NA,NA
"1416",245,16,1,1,1,4,0,NA,NA
"1417",245,17,1,1,1,2,0,NA,NA
"1418",245,18,1,1,1,4,0,NA,NA
"1419",245,19,1,1,1,2,0,NA,NA
"1420",245,20,1,1,1,3,0,NA,NA
"1421",246,1,1,1,1,4,0,NA,NA
"1422",246,2,1,1,1,3,0,NA,NA
"1423",246,3,1,1,1,3,0,NA,NA
"1424",246,4,1,1,1,3,0,NA,NA
"1425",246,5,1,1,1,2,0,NA,NA
"1426",246,6,1,1,1,3,0,NA,NA
"1427",246,7,1,1,1,4,0,NA,NA
"1428",246,8,1,1,1,4,0,NA,NA
"1429",246,9,1,1,1,2,0,NA,NA
"1430",246,10,1,1,1,1,0,NA,NA
"1431",246,21,1,1,1,3,1,NA,NA
"1432",246,22,1,1,1,4,1,NA,NA
"1433",246,23,1,1,1,3,1,NA,NA
"1434",246,24,1,1,1,5,1,NA,NA
"1435",246,25,1,1,1,3,1,NA,NA
"1436",246,26,1,1,1,1,1,NA,NA
"1437",246,27,1,1,1,3,1,NA,NA
"1438",246,28,1,1,1,3,1,NA,NA
"1439",246,29,1,1,1,2,1,NA,NA
"1440",246,30,1,1,1,5,1,NA,NA
"1441",249,11,1,1,1,2,1,NA,NA
"1442",249,12,1,1,1,2,1,NA,NA
"1443",249,13,1,1,1,3,1,NA,NA
"1444",249,14,1,1,1,4,1,NA,NA
"1445",249,15,1,1,1,2,1,NA,NA
"1446",249,16,1,1,1,2,1,NA,NA
"1447",249,17,1,1,1,2,1,NA,NA
"1448",249,18,1,1,1,2,1,NA,NA
"1449",249,19,1,1,1,4,1,NA,NA
"1450",249,20,1,1,1,4,1,NA,NA
"1451",249,21,1,1,1,3,0,NA,NA
"1452",249,22,1,1,1,3,0,NA,NA
"1453",249,23,1,1,1,2,0,NA,NA
"1454",249,24,1,1,1,2,0,NA,NA
"1455",249,25,1,1,1,2,0,NA,NA
"1456",249,26,1,1,1,4,0,NA,NA
"1457",249,27,1,1,1,4,0,NA,NA
"1458",249,28,1,1,1,3,0,NA,NA
"1459",249,29,1,1,1,3,0,NA,NA
"1460",249,30,1,1,1,2,0,NA,NA
"1461",252,11,1,1,1,4,0,NA,NA
"1462",252,12,1,1,1,3,0,NA,NA
"1463",252,13,1,1,1,3,0,NA,NA
"1464",252,14,1,1,1,3,0,NA,NA
"1465",252,15,1,1,1,3,0,NA,NA
"1466",252,16,1,1,1,3,0,NA,NA
"1467",252,17,1,1,1,3,0,NA,NA
"1468",252,18,1,1,1,3,0,NA,NA
"1469",252,19,1,1,1,3,0,NA,NA
"1470",252,20,1,1,1,2,0,NA,NA
"1471",252,21,1,1,1,3,1,NA,NA
"1472",252,22,1,1,1,3,1,NA,NA
"1473",252,23,1,1,1,3,1,NA,NA
"1474",252,24,1,1,1,3,1,NA,NA
"1475",252,25,1,1,1,3,1,NA,NA
"1476",252,26,1,1,1,1,1,NA,NA
"1477",252,27,1,1,1,3,1,NA,NA
"1478",252,28,1,1,1,3,1,NA,NA
"1479",252,29,1,1,1,4,1,NA,NA
"1480",252,30,1,1,1,5,1,NA,NA
"1481",254,1,1,1,1,4,1,NA,NA
"1482",254,2,1,1,1,4,1,NA,NA
"1483",254,3,1,1,1,4,1,NA,NA
"1484",254,4,1,1,1,3,1,NA,NA
"1485",254,5,1,1,1,3,1,NA,NA
"1486",254,6,1,1,1,4,1,NA,NA
"1487",254,7,1,1,1,4,1,NA,NA
"1488",254,8,1,1,1,4,1,NA,NA
"1489",254,9,1,1,1,2,1,NA,NA
"1490",254,10,1,1,1,4,1,NA,NA
"1491",254,11,1,1,1,4,0,NA,NA
"1492",254,12,1,1,1,4,0,NA,NA
"1493",254,13,1,1,1,4,0,NA,NA
"1494",254,14,1,1,1,3,0,NA,NA
"1495",254,15,1,1,1,2,0,NA,NA
"1496",254,16,1,1,1,2,0,NA,NA
"1497",254,17,1,1,1,4,0,NA,NA
"1498",254,18,1,1,1,3,0,NA,NA
"1499",254,19,1,1,1,4,0,NA,NA
"1500",254,20,1,1,1,4,0,NA,NA
"1501",257,11,1,1,1,4,0,NA,NA
"1502",257,12,1,1,1,1,0,NA,NA
"1503",257,13,1,1,1,2,0,NA,NA
"1504",257,14,1,1,1,2,0,NA,NA
"1505",257,15,1,1,1,4,0,NA,NA
"1506",257,16,1,1,1,3,0,NA,NA
"1507",257,17,1,1,1,3,0,NA,NA
"1508",257,18,1,1,1,4,0,NA,NA
"1509",257,19,1,1,1,3,0,NA,NA
"1510",257,20,1,1,1,3,0,NA,NA
"1511",257,21,1,1,1,5,1,NA,NA
"1512",257,22,1,1,1,3,1,NA,NA
"1513",257,23,1,1,1,5,1,NA,NA
"1514",257,24,1,1,1,5,1,NA,NA
"1515",257,25,1,1,1,5,1,NA,NA
"1516",257,26,1,1,1,5,1,NA,NA
"1517",257,27,1,1,1,5,1,NA,NA
"1518",257,28,1,1,1,1,1,NA,NA
"1519",257,29,1,1,1,3,1,NA,NA
"1520",257,30,1,1,1,4,1,NA,NA
"1521",259,1,1,1,1,4,1,NA,NA
"1522",259,2,1,1,1,3,1,NA,NA
"1523",259,3,1,1,1,2,1,NA,NA
"1524",259,4,1,1,1,3,1,NA,NA
"1525",259,5,1,1,1,4,1,NA,NA
"1526",259,6,1,1,1,3,1,NA,NA
"1527",259,7,1,1,1,2,1,NA,NA
"1528",259,8,1,1,1,2,1,NA,NA
"1529",259,9,1,1,1,2,1,NA,NA
"1530",259,10,1,1,1,3,1,NA,NA
"1531",259,21,1,1,1,3,0,NA,NA
"1532",259,22,1,1,1,2,0,NA,NA
"1533",259,23,1,1,1,3,0,NA,NA
"1534",259,24,1,1,1,2,0,NA,NA
"1535",259,25,1,1,1,3,0,NA,NA
"1536",259,26,1,1,1,1,0,NA,NA
"1537",259,27,1,1,1,3,0,NA,NA
"1538",259,28,1,1,1,2,0,NA,NA
"1539",259,29,1,1,1,2,0,NA,NA
"1540",259,30,1,1,1,5,0,NA,NA
"1541",261,11,1,1,1,4,1,NA,NA
"1542",261,12,1,1,1,4,1,NA,NA
"1543",261,13,1,1,1,1,1,NA,NA
"1544",261,14,1,1,1,3,1,NA,NA
"1545",261,15,1,1,1,3,1,NA,NA
"1546",261,16,1,1,1,4,1,NA,NA
"1547",261,17,1,1,1,2,1,NA,NA
"1548",261,18,1,1,1,2,1,NA,NA
"1549",261,19,1,1,1,3,1,NA,NA
"1550",261,20,1,1,1,2,1,NA,NA
"1551",261,21,1,1,1,3,0,NA,NA
"1552",261,22,1,1,1,2,0,NA,NA
"1553",261,23,1,1,1,2,0,NA,NA
"1554",261,24,1,1,1,1,0,NA,NA
"1555",261,25,1,1,1,1,0,NA,NA
"1556",261,26,1,1,1,4,0,NA,NA
"1557",261,27,1,1,1,3,0,NA,NA
"1558",261,28,1,1,1,4,0,NA,NA
"1559",261,29,1,1,1,1,0,NA,NA
"1560",261,30,1,1,1,5,0,NA,NA
"1561",262,1,1,1,1,2,0,NA,NA
"1562",262,2,1,1,1,3,0,NA,NA
"1563",262,3,1,1,1,2,0,NA,NA
"1564",262,4,1,1,1,2,0,NA,NA
"1565",262,5,1,1,1,2,0,NA,NA
"1566",262,6,1,1,1,4,0,NA,NA
"1567",262,7,1,1,1,3,0,NA,NA
"1568",262,8,1,1,1,3,0,NA,NA
"1569",262,9,1,1,1,4,0,NA,NA
"1570",262,10,1,1,1,4,0,NA,NA
"1571",262,11,1,1,1,2,1,NA,NA
"1572",262,12,1,1,1,3,1,NA,NA
"1573",262,13,1,1,1,4,1,NA,NA
"1574",262,14,1,1,1,3,1,NA,NA
"1575",262,15,1,1,1,3,1,NA,NA
"1576",262,16,1,1,1,3,1,NA,NA
"1577",262,17,1,1,1,3,1,NA,NA
"1578",262,18,1,1,1,4,1,NA,NA
"1579",262,19,1,1,1,2,1,NA,NA
"1580",262,20,1,1,1,1,1,NA,NA
"1581",263,1,1,1,1,4,0,NA,NA
"1582",263,2,1,1,1,3,0,NA,NA
"1583",263,3,1,1,1,4,0,NA,NA
"1584",263,4,1,1,1,3,0,NA,NA
"1585",263,5,1,1,1,2,0,NA,NA
"1586",263,6,1,1,1,4,0,NA,NA
"1587",263,7,1,1,1,3,0,NA,NA
"1588",263,8,1,1,1,4,0,NA,NA
"1589",263,9,1,1,1,2,0,NA,NA
"1590",263,10,1,1,1,4,0,NA,NA
"1591",263,21,1,1,1,5,1,NA,NA
"1592",263,22,1,1,1,4,1,NA,NA
"1593",263,23,1,1,1,2,1,NA,NA
"1594",263,24,1,1,1,5,1,NA,NA
"1595",263,25,1,1,1,3,1,NA,NA
"1596",263,26,1,1,1,3,1,NA,NA
"1597",263,27,1,1,1,4,1,NA,NA
"1598",263,28,1,1,1,5,1,NA,NA
"1599",263,29,1,1,1,5,1,NA,NA
"1600",263,30,1,1,1,5,1,NA,NA
"1601",264,11,1,1,1,4,1,NA,NA
"1602",264,12,1,1,1,3,1,NA,NA
"1603",264,13,1,1,1,3,1,NA,NA
"1604",264,14,1,1,1,1,1,NA,NA
"1605",264,15,1,1,1,3,1,NA,NA
"1606",264,16,1,1,1,3,1,NA,NA
"1607",264,17,1,1,1,3,1,NA,NA
"1608",264,18,1,1,1,3,1,NA,NA
"1609",264,19,1,1,1,2,1,NA,NA
"1610",264,20,1,1,1,3,1,NA,NA
"1611",264,21,1,1,1,3,0,NA,NA
"1612",264,22,1,1,1,4,0,NA,NA
"1613",264,23,1,1,1,3,0,NA,NA
"1614",264,24,1,1,1,2,0,NA,NA
"1615",264,25,1,1,1,2,0,NA,NA
"1616",264,26,1,1,1,1,0,NA,NA
"1617",264,27,1,1,1,3,0,NA,NA
"1618",264,28,1,1,1,3,0,NA,NA
"1619",264,29,1,1,1,4,0,NA,NA
"1620",264,30,1,1,1,1,0,NA,NA
"1621",266,1,1,1,1,4,0,NA,NA
"1622",266,2,1,1,1,2,0,NA,NA
"1623",266,3,1,1,1,2,0,NA,NA
"1624",266,4,1,1,1,2,0,NA,NA
"1625",266,5,1,1,1,1,0,NA,NA
"1626",266,6,1,1,1,3,0,NA,NA
"1627",266,7,1,1,1,4,0,NA,NA
"1628",266,8,1,1,1,3,0,NA,NA
"1629",266,9,1,1,1,3,0,NA,NA
"1630",266,10,1,1,1,3,0,NA,NA
"1631",266,11,1,1,1,4,1,NA,NA
"1632",266,12,1,1,1,5,1,NA,NA
"1633",266,13,1,1,1,5,1,NA,NA
"1634",266,14,1,1,1,4,1,NA,NA
"1635",266,15,1,1,1,4,1,NA,NA
"1636",266,16,1,1,1,5,1,NA,NA
"1637",266,17,1,1,1,5,1,NA,NA
"1638",266,18,1,1,1,5,1,NA,NA
"1639",266,19,1,1,1,5,1,NA,NA
"1640",266,20,1,1,1,2,1,NA,NA
"1641",267,11,1,1,1,4,0,NA,NA
"1642",267,12,1,1,1,3,0,NA,NA
"1643",267,13,1,1,1,4,0,NA,NA
"1644",267,14,1,1,1,4,0,NA,NA
"1645",267,15,1,1,1,3,0,NA,NA
"1646",267,16,1,1,1,3,0,NA,NA
"1647",267,17,1,1,1,4,0,NA,NA
"1648",267,18,1,1,1,3,0,NA,NA
"1649",267,19,1,1,1,3,0,NA,NA
"1650",267,20,1,1,1,4,0,NA,NA
"1651",267,21,1,1,1,3,1,NA,NA
"1652",267,22,1,1,1,4,1,NA,NA
"1653",267,23,1,1,1,3,1,NA,NA
"1654",267,24,1,1,1,2,1,NA,NA
"1655",267,25,1,1,1,4,1,NA,NA
"1656",267,26,1,1,1,2,1,NA,NA
"1657",267,27,1,1,1,3,1,NA,NA
"1658",267,28,1,1,1,3,1,NA,NA
"1659",267,29,1,1,1,4,1,NA,NA
"1660",267,30,1,1,1,5,1,NA,NA
"1661",269,1,1,1,1,4,1,NA,NA
"1662",269,2,1,1,1,4,1,NA,NA
"1663",269,3,1,1,1,3,1,NA,NA
"1664",269,4,1,1,1,2,1,NA,NA
"1665",269,5,1,1,1,3,1,NA,NA
"1666",269,6,1,1,1,3,1,NA,NA
"1667",269,7,1,1,1,4,1,NA,NA
"1668",269,8,1,1,1,4,1,NA,NA
"1669",269,9,1,1,1,4,1,NA,NA
"1670",269,10,1,1,1,3,1,NA,NA
"1671",269,11,1,1,1,2,0,NA,NA
"1672",269,12,1,1,1,2,0,NA,NA
"1673",269,13,1,1,1,3,0,NA,NA
"1674",269,14,1,1,1,2,0,NA,NA
"1675",269,15,1,1,1,3,0,NA,NA
"1676",269,16,1,1,1,3,0,NA,NA
"1677",269,17,1,1,1,3,0,NA,NA
"1678",269,18,1,1,1,3,0,NA,NA
"1679",269,19,1,1,1,2,0,NA,NA
"1680",269,20,1,1,1,3,0,NA,NA
"1681",270,1,1,1,1,4,1,NA,NA
"1682",270,2,1,1,1,2,1,NA,NA
"1683",270,3,1,1,1,3,1,NA,NA
"1684",270,4,1,1,1,2,1,NA,NA
"1685",270,5,1,1,1,4,1,NA,NA
"1686",270,6,1,1,1,2,1,NA,NA
"1687",270,7,1,1,1,2,1,NA,NA
"1688",270,8,1,1,1,3,1,NA,NA
"1689",270,9,1,1,1,3,1,NA,NA
"1690",270,10,1,1,1,3,1,NA,NA
"1691",270,21,1,1,1,4,0,NA,NA
"1692",270,22,1,1,1,2,0,NA,NA
"1693",270,23,1,1,1,2,0,NA,NA
"1694",270,24,1,1,1,2,0,NA,NA
"1695",270,25,1,1,1,4,0,NA,NA
"1696",270,26,1,1,1,1,0,NA,NA
"1697",270,27,1,1,1,3,0,NA,NA
"1698",270,28,1,1,1,2,0,NA,NA
"1699",270,29,1,1,1,2,0,NA,NA
"1700",270,30,1,1,1,5,0,NA,NA
"1701",273,1,1,1,1,5,1,NA,NA
"1702",273,2,1,1,1,5,1,NA,NA
"1703",273,3,1,1,1,5,1,NA,NA
"1704",273,4,1,1,1,5,1,NA,NA
"1705",273,5,1,1,1,5,1,NA,NA
"1706",273,6,1,1,1,5,1,NA,NA
"1707",273,7,1,1,1,5,1,NA,NA
"1708",273,8,1,1,1,4,1,NA,NA
"1709",273,9,1,1,1,1,1,NA,NA
"1710",273,10,1,1,1,5,1,NA,NA
"1711",273,11,1,1,1,4,0,NA,NA
"1712",273,12,1,1,1,4,0,NA,NA
"1713",273,13,1,1,1,4,0,NA,NA
"1714",273,14,1,1,1,3,0,NA,NA
"1715",273,15,1,1,1,5,0,NA,NA
"1716",273,16,1,1,1,4,0,NA,NA
"1717",273,17,1,1,1,4,0,NA,NA
"1718",273,18,1,1,1,3,0,NA,NA
"1719",273,19,1,1,1,2,0,NA,NA
"1720",273,20,1,1,1,3,0,NA,NA
"1721",274,1,1,1,1,4,0,NA,NA
"1722",274,2,1,1,1,3,0,NA,NA
"1723",274,3,1,1,1,1,0,NA,NA
"1724",274,4,1,1,1,3,0,NA,NA
"1725",274,5,1,1,1,3,0,NA,NA
"1726",274,6,1,1,1,3,0,NA,NA
"1727",274,7,1,1,1,3,0,NA,NA
"1728",274,8,1,1,1,4,0,NA,NA
"1729",274,9,1,1,1,3,0,NA,NA
"1730",274,10,1,1,1,4,0,NA,NA
"1731",274,21,1,1,1,3,1,NA,NA
"1732",274,22,1,1,1,3,1,NA,NA
"1733",274,23,1,1,1,3,1,NA,NA
"1734",274,24,1,1,1,4,1,NA,NA
"1735",274,25,1,1,1,3,1,NA,NA
"1736",274,26,1,1,1,4,1,NA,NA
"1737",274,27,1,1,1,3,1,NA,NA
"1738",274,28,1,1,1,3,1,NA,NA
"1739",274,29,1,1,1,4,1,NA,NA
"1740",274,30,1,1,1,4,1,NA,NA
"1741",275,1,1,1,1,5,0,NA,NA
"1742",275,2,1,1,1,5,0,NA,NA
"1743",275,3,1,1,1,5,0,NA,NA
"1744",275,4,1,1,1,1,0,NA,NA
"1745",275,5,1,1,1,1,0,NA,NA
"1746",275,6,1,1,1,1,0,NA,NA
"1747",275,7,1,1,1,1,0,NA,NA
"1748",275,8,1,1,1,1,0,NA,NA
"1749",275,9,1,1,1,3,0,NA,NA
"1750",275,10,1,1,1,1,0,NA,NA
"1751",275,11,1,1,1,3,1,NA,NA
"1752",275,12,1,1,1,3,1,NA,NA
"1753",275,13,1,1,1,5,1,NA,NA
"1754",275,14,1,1,1,3,1,NA,NA
"1755",275,15,1,1,1,5,1,NA,NA
"1756",275,16,1,1,1,1,1,NA,NA
"1757",275,17,1,1,1,5,1,NA,NA
"1758",275,18,1,1,1,1,1,NA,NA
"1759",275,19,1,1,1,1,1,NA,NA
"1760",275,20,1,1,1,5,1,NA,NA
"1761",276,11,1,1,1,4,1,NA,NA
"1762",276,12,1,1,1,4,1,NA,NA
"1763",276,13,1,1,1,4,1,NA,NA
"1764",276,14,1,1,1,4,1,NA,NA
"1765",276,15,1,1,1,3,1,NA,NA
"1766",276,16,1,1,1,5,1,NA,NA
"1767",276,17,1,1,1,4,1,NA,NA
"1768",276,18,1,1,1,4,1,NA,NA
"1769",276,19,1,1,1,4,1,NA,NA
"1770",276,20,1,1,1,4,1,NA,NA
"1771",276,21,1,1,1,4,0,NA,NA
"1772",276,22,1,1,1,4,0,NA,NA
"1773",276,23,1,1,1,2,0,NA,NA
"1774",276,24,1,1,1,2,0,NA,NA
"1775",276,25,1,1,1,2,0,NA,NA
"1776",276,26,1,1,1,3,0,NA,NA
"1777",276,27,1,1,1,4,0,NA,NA
"1778",276,28,1,1,1,2,0,NA,NA
"1779",276,29,1,1,1,1,0,NA,NA
"1780",276,30,1,1,1,5,0,NA,NA
"1781",277,11,1,1,1,4,0,NA,NA
"1782",277,12,1,1,1,3,0,NA,NA
"1783",277,13,1,1,1,4,0,NA,NA
"1784",277,14,1,1,1,5,0,NA,NA
"1785",277,15,1,1,1,4,0,NA,NA
"1786",277,16,1,1,1,3,0,NA,NA
"1787",277,17,1,1,1,2,0,NA,NA
"1788",277,18,1,1,1,3,0,NA,NA
"1789",277,19,1,1,1,5,0,NA,NA
"1790",277,20,1,1,1,3,0,NA,NA
"1791",277,21,1,1,1,3,1,NA,NA
"1792",277,22,1,1,1,3,1,NA,NA
"1793",277,23,1,1,1,5,1,NA,NA
"1794",277,24,1,1,1,3,1,NA,NA
"1795",277,25,1,1,1,5,1,NA,NA
"1796",277,26,1,1,1,5,1,NA,NA
"1797",277,27,1,1,1,5,1,NA,NA
"1798",277,28,1,1,1,4,1,NA,NA
"1799",277,29,1,1,1,3,1,NA,NA
"1800",277,30,1,1,1,5,1,NA,NA
"1801",279,1,1,1,1,4,0,NA,NA
"1802",279,2,1,1,1,3,0,NA,NA
"1803",279,3,1,1,1,3,0,NA,NA
"1804",279,4,1,1,1,2,0,NA,NA
"1805",279,5,1,1,1,1,0,NA,NA
"1806",279,6,1,1,1,2,0,NA,NA
"1807",279,7,1,1,1,4,0,NA,NA
"1808",279,8,1,1,1,4,0,NA,NA
"1809",279,9,1,1,1,1,0,NA,NA
"1810",279,10,1,1,1,3,0,NA,NA
"1811",279,11,1,1,1,4,1,NA,NA
"1812",279,12,1,1,1,3,1,NA,NA
"1813",279,13,1,1,1,4,1,NA,NA
"1814",279,14,1,1,1,1,1,NA,NA
"1815",279,15,1,1,1,5,1,NA,NA
"1816",279,16,1,1,1,4,1,NA,NA
"1817",279,17,1,1,1,2,1,NA,NA
"1818",279,18,1,1,1,3,1,NA,NA
"1819",279,19,1,1,1,1,1,NA,NA
"1820",279,20,1,1,1,3,1,NA,NA
"1821",282,11,1,1,1,4,1,NA,NA
"1822",282,12,1,1,1,4,1,NA,NA
"1823",282,13,1,1,1,1,1,NA,NA
"1824",282,14,1,1,1,4,1,NA,NA
"1825",282,15,1,1,1,1,1,NA,NA
"1826",282,16,1,1,1,4,1,NA,NA
"1827",282,17,1,1,1,4,1,NA,NA
"1828",282,18,1,1,1,4,1,NA,NA
"1829",282,19,1,1,1,2,1,NA,NA
"1830",282,20,1,1,1,4,1,NA,NA
"1831",282,21,1,1,1,4,0,NA,NA
"1832",282,22,1,1,1,5,0,NA,NA
"1833",282,23,1,1,1,3,0,NA,NA
"1834",282,24,1,1,1,2,0,NA,NA
"1835",282,25,1,1,1,1,0,NA,NA
"1836",282,26,1,1,1,3,0,NA,NA
"1837",282,27,1,1,1,4,0,NA,NA
"1838",282,28,1,1,1,4,0,NA,NA
"1839",282,29,1,1,1,1,0,NA,NA
"1840",282,30,1,1,1,3,0,NA,NA
"1841",287,1,1,1,1,2,1,NA,NA
"1842",287,2,1,1,1,3,1,NA,NA
"1843",287,3,1,1,1,1,1,NA,NA
"1844",287,4,1,1,1,3,1,NA,NA
"1845",287,5,1,1,1,2,1,NA,NA
"1846",287,6,1,1,1,2,1,NA,NA
"1847",287,7,1,1,1,3,1,NA,NA
"1848",287,8,1,1,1,2,1,NA,NA
"1849",287,9,1,1,1,3,1,NA,NA
"1850",287,10,1,1,1,2,1,NA,NA
"1851",287,21,1,1,1,3,0,NA,NA
"1852",287,22,1,1,1,2,0,NA,NA
"1853",287,23,1,1,1,2,0,NA,NA
"1854",287,24,1,1,1,2,0,NA,NA
"1855",287,25,1,1,1,1,0,NA,NA
"1856",287,26,1,1,1,1,0,NA,NA
"1857",287,27,1,1,1,2,0,NA,NA
"1858",287,28,1,1,1,2,0,NA,NA
"1859",287,29,1,1,1,2,0,NA,NA
"1860",287,30,1,1,1,1,0,NA,NA
"1861",288,1,1,1,1,4,1,NA,NA
"1862",288,2,1,1,1,3,1,NA,NA
"1863",288,3,1,1,1,4,1,NA,NA
"1864",288,4,1,1,1,3,1,NA,NA
"1865",288,5,1,1,1,2,1,NA,NA
"1866",288,6,1,1,1,3,1,NA,NA
"1867",288,7,1,1,1,3,1,NA,NA
"1868",288,8,1,1,1,3,1,NA,NA
"1869",288,9,1,1,1,3,1,NA,NA
"1870",288,10,1,1,1,3,1,NA,NA
"1871",288,11,1,1,1,4,0,NA,NA
"1872",288,12,1,1,1,4,0,NA,NA
"1873",288,13,1,1,1,3,0,NA,NA
"1874",288,14,1,1,1,3,0,NA,NA
"1875",288,15,1,1,1,3,0,NA,NA
"1876",288,16,1,1,1,4,0,NA,NA
"1877",288,17,1,1,1,3,0,NA,NA
"1878",288,18,1,1,1,3,0,NA,NA
"1879",288,19,1,1,1,3,0,NA,NA
"1880",288,20,1,1,1,3,0,NA,NA
"1881",292,1,1,1,1,4,0,NA,NA
"1882",292,2,1,1,1,3,0,NA,NA
"1883",292,3,1,1,1,4,0,NA,NA
"1884",292,4,1,1,1,2,0,NA,NA
"1885",292,5,1,1,1,2,0,NA,NA
"1886",292,6,1,1,1,2,0,NA,NA
"1887",292,7,1,1,1,2,0,NA,NA
"1888",292,8,1,1,1,2,0,NA,NA
"1889",292,9,1,1,1,3,0,NA,NA
"1890",292,10,1,1,1,4,0,NA,NA
"1891",292,11,1,1,1,5,1,NA,NA
"1892",292,12,1,1,1,5,1,NA,NA
"1893",292,13,1,1,1,4,1,NA,NA
"1894",292,14,1,1,1,4,1,NA,NA
"1895",292,15,1,1,1,5,1,NA,NA
"1896",292,16,1,1,1,5,1,NA,NA
"1897",292,17,1,1,1,4,1,NA,NA
"1898",292,18,1,1,1,3,1,NA,NA
"1899",292,19,1,1,1,4,1,NA,NA
"1900",292,20,1,1,1,5,1,NA,NA
"1901",293,1,1,1,1,4,0,NA,NA
"1902",293,2,1,1,1,4,0,NA,NA
"1903",293,3,1,1,1,3,0,NA,NA
"1904",293,4,1,1,1,3,0,NA,NA
"1905",293,5,1,1,1,3,0,NA,NA
"1906",293,6,1,1,1,3,0,NA,NA
"1907",293,7,1,1,1,2,0,NA,NA
"1908",293,8,1,1,1,3,0,NA,NA
"1909",293,9,1,1,1,2,0,NA,NA
"1910",293,10,1,1,1,1,0,NA,NA
"1911",293,21,1,1,1,4,1,NA,NA
"1912",293,22,1,1,1,4,1,NA,NA
"1913",293,23,1,1,1,5,1,NA,NA
"1914",293,24,1,1,1,4,1,NA,NA
"1915",293,25,1,1,1,4,1,NA,NA
"1916",293,26,1,1,1,4,1,NA,NA
"1917",293,27,1,1,1,4,1,NA,NA
"1918",293,28,1,1,1,5,1,NA,NA
"1919",293,29,1,1,1,5,1,NA,NA
"1920",293,30,1,1,1,4,1,NA,NA
"1921",294,1,1,1,1,4,1,NA,NA
"1922",294,2,1,1,1,3,1,NA,NA
"1923",294,3,1,1,1,4,1,NA,NA
"1924",294,4,1,1,1,3,1,NA,NA
"1925",294,5,1,1,1,4,1,NA,NA
"1926",294,6,1,1,1,4,1,NA,NA
"1927",294,7,1,1,1,4,1,NA,NA
"1928",294,8,1,1,1,3,1,NA,NA
"1929",294,9,1,1,1,4,1,NA,NA
"1930",294,10,1,1,1,3,1,NA,NA
"1931",294,21,1,1,1,3,0,NA,NA
"1932",294,22,1,1,1,3,0,NA,NA
"1933",294,23,1,1,1,4,0,NA,NA
"1934",294,24,1,1,1,4,0,NA,NA
"1935",294,25,1,1,1,3,0,NA,NA
"1936",294,26,1,1,1,3,0,NA,NA
"1937",294,27,1,1,1,3,0,NA,NA
"1938",294,28,1,1,1,3,0,NA,NA
"1939",294,29,1,1,1,4,0,NA,NA
"1940",294,30,1,1,1,4,0,NA,NA
"1941",295,1,1,1,1,4,1,NA,NA
"1942",295,2,1,1,1,5,1,NA,NA
"1943",295,3,1,1,1,4,1,NA,NA
"1944",295,4,1,1,1,3,1,NA,NA
"1945",295,5,1,1,1,5,1,NA,NA
"1946",295,6,1,1,1,3,1,NA,NA
"1947",295,7,1,1,1,3,1,NA,NA
"1948",295,8,1,1,1,4,1,NA,NA
"1949",295,9,1,1,1,3,1,NA,NA
"1950",295,10,1,1,1,1,1,NA,NA
"1951",295,11,1,1,1,5,0,NA,NA
"1952",295,12,1,1,1,3,0,NA,NA
"1953",295,13,1,1,1,1,0,NA,NA
"1954",295,14,1,1,1,1,0,NA,NA
"1955",295,15,1,1,1,3,0,NA,NA
"1956",295,16,1,1,1,3,0,NA,NA
"1957",295,17,1,1,1,5,0,NA,NA
"1958",295,18,1,1,1,3,0,NA,NA
"1959",295,19,1,1,1,3,0,NA,NA
"1960",295,20,1,1,1,1,0,NA,NA
"1961",297,11,1,1,1,1,0,NA,NA
"1962",297,12,1,1,1,3,0,NA,NA
"1963",297,13,1,1,1,5,0,NA,NA
"1964",297,14,1,1,1,2,0,NA,NA
"1965",297,15,1,1,1,5,0,NA,NA
"1966",297,16,1,1,1,2,0,NA,NA
"1967",297,17,1,1,1,3,0,NA,NA
"1968",297,18,1,1,1,1,0,NA,NA
"1969",297,19,1,1,1,2,0,NA,NA
"1970",297,20,1,1,1,3,0,NA,NA
"1971",297,21,1,1,1,3,1,NA,NA
"1972",297,22,1,1,1,4,1,NA,NA
"1973",297,23,1,1,1,5,1,NA,NA
"1974",297,24,1,1,1,3,1,NA,NA
"1975",297,25,1,1,1,3,1,NA,NA
"1976",297,26,1,1,1,1,1,NA,NA
"1977",297,27,1,1,1,3,1,NA,NA
"1978",297,28,1,1,1,2,1,NA,NA
"1979",297,29,1,1,1,3,1,NA,NA
"1980",297,30,1,1,1,5,1,NA,NA
"1981",298,11,1,1,1,3,1,NA,NA
"1982",298,12,1,1,1,3,1,NA,NA
"1983",298,13,1,1,1,4,1,NA,NA
"1984",298,14,1,1,1,4,1,NA,NA
"1985",298,15,1,1,1,3,1,NA,NA
"1986",298,16,1,1,1,3,1,NA,NA
"1987",298,17,1,1,1,3,1,NA,NA
"1988",298,18,1,1,1,3,1,NA,NA
"1989",298,19,1,1,1,3,1,NA,NA
"1990",298,20,1,1,1,3,1,NA,NA
"1991",298,21,1,1,1,3,0,NA,NA
"1992",298,22,1,1,1,1,0,NA,NA
"1993",298,23,1,1,1,3,0,NA,NA
"1994",298,24,1,1,1,2,0,NA,NA
"1995",298,25,1,1,1,3,0,NA,NA
"1996",298,26,1,1,1,2,0,NA,NA
"1997",298,27,1,1,1,4,0,NA,NA
"1998",298,28,1,1,1,2,0,NA,NA
"1999",298,29,1,1,1,1,0,NA,NA
"2000",298,30,1,1,1,5,0,NA,NA
"2001",299,11,1,1,1,1,1,NA,NA
"2002",299,12,1,1,1,2,1,NA,NA
"2003",299,13,1,1,1,3,1,NA,NA
"2004",299,14,1,1,1,4,1,NA,NA
"2005",299,15,1,1,1,3,1,NA,NA
"2006",299,16,1,1,1,4,1,NA,NA
"2007",299,17,1,1,1,2,1,NA,NA
"2008",299,18,1,1,1,1,1,NA,NA
"2009",299,19,1,1,1,2,1,NA,NA
"2010",299,20,1,1,1,3,1,NA,NA
"2011",299,21,1,1,1,4,0,NA,NA
"2012",299,22,1,1,1,2,0,NA,NA
"2013",299,23,1,1,1,2,0,NA,NA
"2014",299,24,1,1,1,2,0,NA,NA
"2015",299,25,1,1,1,4,0,NA,NA
"2016",299,26,1,1,1,4,0,NA,NA
"2017",299,27,1,1,1,2,0,NA,NA
"2018",299,28,1,1,1,4,0,NA,NA
"2019",299,29,1,1,1,2,0,NA,NA
"2020",299,30,1,1,1,4,0,NA,NA
"2021",300,1,1,1,1,4,0,NA,NA
"2022",300,2,1,1,1,3,0,NA,NA
"2023",300,3,1,1,1,2,0,NA,NA
"2024",300,4,1,1,1,3,0,NA,NA
"2025",300,5,1,1,1,2,0,NA,NA
"2026",300,6,1,1,1,3,0,NA,NA
"2027",300,7,1,1,1,4,0,NA,NA
"2028",300,8,1,1,1,3,0,NA,NA
"2029",300,9,1,1,1,3,0,NA,NA
"2030",300,10,1,1,1,3,0,NA,NA
"2031",300,21,1,1,1,3,1,NA,NA
"2032",300,22,1,1,1,2,1,NA,NA
"2033",300,23,1,1,1,3,1,NA,NA
"2034",300,24,1,1,1,3,1,NA,NA
"2035",300,25,1,1,1,3,1,NA,NA
"2036",300,26,1,1,1,3,1,NA,NA
"2037",300,27,1,1,1,3,1,NA,NA
"2038",300,28,1,1,1,3,1,NA,NA
"2039",300,29,1,1,1,2,1,NA,NA
"2040",300,30,1,1,1,3,1,NA,NA
"2041",304,1,1,1,1,5,1,NA,NA
"2042",304,2,1,1,1,5,1,NA,NA
"2043",304,3,1,1,1,4,1,NA,NA
"2044",304,4,1,1,1,5,1,NA,NA
"2045",304,5,1,1,1,5,1,NA,NA
"2046",304,6,1,1,1,5,1,NA,NA
"2047",304,7,1,1,1,4,1,NA,NA
"2048",304,8,1,1,1,5,1,NA,NA
"2049",304,9,1,1,1,5,1,NA,NA
"2050",304,10,1,1,1,5,1,NA,NA
"2051",304,11,1,1,1,3,0,NA,NA
"2052",304,12,1,1,1,3,0,NA,NA
"2053",304,13,1,1,1,3,0,NA,NA
"2054",304,14,1,1,1,3,0,NA,NA
"2055",304,15,1,1,1,3,0,NA,NA
"2056",304,16,1,1,1,3,0,NA,NA
"2057",304,17,1,1,1,3,0,NA,NA
"2058",304,18,1,1,1,3,0,NA,NA
"2059",304,19,1,1,1,2,0,NA,NA
"2060",304,20,1,1,1,2,0,NA,NA
"2061",308,1,1,1,1,4,1,NA,NA
"2062",308,2,1,1,1,4,1,NA,NA
"2063",308,3,1,1,1,4,1,NA,NA
"2064",308,4,1,1,1,2,1,NA,NA
"2065",308,5,1,1,1,4,1,NA,NA
"2066",308,6,1,1,1,3,1,NA,NA
"2067",308,7,1,1,1,2,1,NA,NA
"2068",308,8,1,1,1,2,1,NA,NA
"2069",308,9,1,1,1,2,1,NA,NA
"2070",308,10,1,1,1,1,1,NA,NA
"2071",308,11,1,1,1,4,0,NA,NA
"2072",308,12,1,1,1,3,0,NA,NA
"2073",308,13,1,1,1,4,0,NA,NA
"2074",308,14,1,1,1,4,0,NA,NA
"2075",308,15,1,1,1,2,0,NA,NA
"2076",308,16,1,1,1,3,0,NA,NA
"2077",308,17,1,1,1,4,0,NA,NA
"2078",308,18,1,1,1,5,0,NA,NA
"2079",308,19,1,1,1,4,0,NA,NA
"2080",308,20,1,1,1,1,0,NA,NA
"2081",309,11,1,1,1,4,1,NA,NA
"2082",309,12,1,1,1,4,1,NA,NA
"2083",309,13,1,1,1,4,1,NA,NA
"2084",309,14,1,1,1,4,1,NA,NA
"2085",309,15,1,1,1,4,1,NA,NA
"2086",309,16,1,1,1,4,1,NA,NA
"2087",309,17,1,1,1,4,1,NA,NA
"2088",309,18,1,1,1,4,1,NA,NA
"2089",309,19,1,1,1,4,1,NA,NA
"2090",309,20,1,1,1,2,1,NA,NA
"2091",309,21,1,1,1,4,0,NA,NA
"2092",309,22,1,1,1,4,0,NA,NA
"2093",309,23,1,1,1,4,0,NA,NA
"2094",309,24,1,1,1,2,0,NA,NA
"2095",309,25,1,1,1,4,0,NA,NA
"2096",309,26,1,1,1,4,0,NA,NA
"2097",309,27,1,1,1,4,0,NA,NA
"2098",309,28,1,1,1,3,0,NA,NA
"2099",309,29,1,1,1,4,0,NA,NA
"2100",309,30,1,1,1,4,0,NA,NA
"2101",310,1,1,1,1,3,0,NA,NA
"2102",310,2,1,1,1,3,0,NA,NA
"2103",310,3,1,1,1,2,0,NA,NA
"2104",310,4,1,1,1,2,0,NA,NA
"2105",310,5,1,1,1,3,0,NA,NA
"2106",310,6,1,1,1,3,0,NA,NA
"2107",310,7,1,1,1,3,0,NA,NA
"2108",310,8,1,1,1,3,0,NA,NA
"2109",310,9,1,1,1,4,0,NA,NA
"2110",310,10,1,1,1,3,0,NA,NA
"2111",310,21,1,1,1,4,1,NA,NA
"2112",310,22,1,1,1,5,1,NA,NA
"2113",310,23,1,1,1,5,1,NA,NA
"2114",310,24,1,1,1,4,1,NA,NA
"2115",310,25,1,1,1,5,1,NA,NA
"2116",310,26,1,1,1,4,1,NA,NA
"2117",310,27,1,1,1,4,1,NA,NA
"2118",310,28,1,1,1,5,1,NA,NA
"2119",310,29,1,1,1,4,1,NA,NA
"2120",310,30,1,1,1,5,1,NA,NA
"2121",311,1,1,1,1,4,0,NA,NA
"2122",311,2,1,1,1,4,0,NA,NA
"2123",311,3,1,1,1,3,0,NA,NA
"2124",311,4,1,1,1,3,0,NA,NA
"2125",311,5,1,1,1,2,0,NA,NA
"2126",311,6,1,1,1,3,0,NA,NA
"2127",311,7,1,1,1,3,0,NA,NA
"2128",311,8,1,1,1,3,0,NA,NA
"2129",311,9,1,1,1,3,0,NA,NA
"2130",311,10,1,1,1,4,0,NA,NA
"2131",311,11,1,1,1,5,1,NA,NA
"2132",311,12,1,1,1,4,1,NA,NA
"2133",311,13,1,1,1,5,1,NA,NA
"2134",311,14,1,1,1,3,1,NA,NA
"2135",311,15,1,1,1,4,1,NA,NA
"2136",311,16,1,1,1,3,1,NA,NA
"2137",311,17,1,1,1,5,1,NA,NA
"2138",311,18,1,1,1,5,1,NA,NA
"2139",311,19,1,1,1,5,1,NA,NA
"2140",311,20,1,1,1,1,1,NA,NA
"2141",313,1,1,1,1,4,0,NA,NA
"2142",313,2,1,1,1,3,0,NA,NA
"2143",313,3,1,1,1,2,0,NA,NA
"2144",313,4,1,1,1,2,0,NA,NA
"2145",313,5,1,1,1,2,0,NA,NA
"2146",313,6,1,1,1,3,0,NA,NA
"2147",313,7,1,1,1,4,0,NA,NA
"2148",313,8,1,1,1,3,0,NA,NA
"2149",313,9,1,1,1,3,0,NA,NA
"2150",313,10,1,1,1,1,0,NA,NA
"2151",313,11,1,1,1,5,1,NA,NA
"2152",313,12,1,1,1,5,1,NA,NA
"2153",313,13,1,1,1,5,1,NA,NA
"2154",313,14,1,1,1,1,1,NA,NA
"2155",313,15,1,1,1,5,1,NA,NA
"2156",313,16,1,1,1,5,1,NA,NA
"2157",313,17,1,1,1,5,1,NA,NA
"2158",313,18,1,1,1,5,1,NA,NA
"2159",313,19,1,1,1,5,1,NA,NA
"2160",313,20,1,1,1,5,1,NA,NA
"2161",316,1,1,1,1,3,1,NA,NA
"2162",316,2,1,1,1,3,1,NA,NA
"2163",316,3,1,1,1,3,1,NA,NA
"2164",316,4,1,1,1,3,1,NA,NA
"2165",316,5,1,1,1,2,1,NA,NA
"2166",316,6,1,1,1,3,1,NA,NA
"2167",316,7,1,1,1,2,1,NA,NA
"2168",316,8,1,1,1,3,1,NA,NA
"2169",316,9,1,1,1,3,1,NA,NA
"2170",316,10,1,1,1,3,1,NA,NA
"2171",316,11,1,1,1,3,0,NA,NA
"2172",316,12,1,1,1,3,0,NA,NA
"2173",316,13,1,1,1,3,0,NA,NA
"2174",316,14,1,1,1,2,0,NA,NA
"2175",316,15,1,1,1,3,0,NA,NA
"2176",316,16,1,1,1,3,0,NA,NA
"2177",316,17,1,1,1,3,0,NA,NA
"2178",316,18,1,1,1,3,0,NA,NA
"2179",316,19,1,1,1,3,0,NA,NA
"2180",316,20,1,1,1,3,0,NA,NA
"2181",317,11,1,1,1,4,0,NA,NA
"2182",317,12,1,1,1,3,0,NA,NA
"2183",317,13,1,1,1,4,0,NA,NA
"2184",317,14,1,1,1,4,0,NA,NA
"2185",317,15,1,1,1,1,0,NA,NA
"2186",317,16,1,1,1,1,0,NA,NA
"2187",317,17,1,1,1,2,0,NA,NA
"2188",317,18,1,1,1,4,0,NA,NA
"2189",317,19,1,1,1,2,0,NA,NA
"2190",317,20,1,1,1,4,0,NA,NA
"2191",317,21,1,1,1,3,1,NA,NA
"2192",317,22,1,1,1,4,1,NA,NA
"2193",317,23,1,1,1,1,1,NA,NA
"2194",317,24,1,1,1,2,1,NA,NA
"2195",317,25,1,1,1,1,1,NA,NA
"2196",317,26,1,1,1,1,1,NA,NA
"2197",317,27,1,1,1,4,1,NA,NA
"2198",317,28,1,1,1,3,1,NA,NA
"2199",317,29,1,1,1,1,1,NA,NA
"2200",317,30,1,1,1,5,1,NA,NA
"2201",318,1,1,1,1,4,1,NA,NA
"2202",318,2,1,1,1,4,1,NA,NA
"2203",318,3,1,1,1,4,1,NA,NA
"2204",318,4,1,1,1,3,1,NA,NA
"2205",318,5,1,1,1,2,1,NA,NA
"2206",318,6,1,1,1,4,1,NA,NA
"2207",318,7,1,1,1,4,1,NA,NA
"2208",318,8,1,1,1,4,1,NA,NA
"2209",318,9,1,1,1,4,1,NA,NA
"2210",318,10,1,1,1,3,1,NA,NA
"2211",318,21,1,1,1,2,0,NA,NA
"2212",318,22,1,1,1,4,0,NA,NA
"2213",318,23,1,1,1,3,0,NA,NA
"2214",318,24,1,1,1,4,0,NA,NA
"2215",318,25,1,1,1,4,0,NA,NA
"2216",318,26,1,1,1,3,0,NA,NA
"2217",318,27,1,1,1,4,0,NA,NA
"2218",318,28,1,1,1,3,0,NA,NA
"2219",318,29,1,1,1,2,0,NA,NA
"2220",318,30,1,1,1,5,0,NA,NA
"2221",323,11,1,1,1,4,1,NA,NA
"2222",323,12,1,1,1,4,1,NA,NA
"2223",323,13,1,1,1,5,1,NA,NA
"2224",323,14,1,1,1,1,1,NA,NA
"2225",323,15,1,1,1,5,1,NA,NA
"2226",323,16,1,1,1,4,1,NA,NA
"2227",323,17,1,1,1,4,1,NA,NA
"2228",323,18,1,1,1,3,1,NA,NA
"2229",323,19,1,1,1,1,1,NA,NA
"2230",323,20,1,1,1,5,1,NA,NA
"2231",323,21,1,1,1,5,0,NA,NA
"2232",323,22,1,1,1,1,0,NA,NA
"2233",323,23,1,1,1,3,0,NA,NA
"2234",323,24,1,1,1,2,0,NA,NA
"2235",323,25,1,1,1,2,0,NA,NA
"2236",323,26,1,1,1,4,0,NA,NA
"2237",323,27,1,1,1,4,0,NA,NA
"2238",323,28,1,1,1,4,0,NA,NA
"2239",323,29,1,1,1,2,0,NA,NA
"2240",323,30,1,1,1,5,0,NA,NA
"2241",328,11,1,1,1,1,1,NA,NA
"2242",328,12,1,1,1,5,1,NA,NA
"2243",328,13,1,1,1,3,1,NA,NA
"2244",328,14,1,1,1,4,1,NA,NA
"2245",328,15,1,1,1,5,1,NA,NA
"2246",328,16,1,1,1,4,1,NA,NA
"2247",328,17,1,1,1,4,1,NA,NA
"2248",328,18,1,1,1,5,1,NA,NA
"2249",328,19,1,1,1,5,1,NA,NA
"2250",328,20,1,1,1,3,1,NA,NA
"2251",328,21,1,1,1,4,0,NA,NA
"2252",328,22,1,1,1,3,0,NA,NA
"2253",328,23,1,1,1,3,0,NA,NA
"2254",328,24,1,1,1,4,0,NA,NA
"2255",328,25,1,1,1,2,0,NA,NA
"2256",328,26,1,1,1,3,0,NA,NA
"2257",328,27,1,1,1,3,0,NA,NA
"2258",328,28,1,1,1,3,0,NA,NA
"2259",328,29,1,1,1,3,0,NA,NA
"2260",328,30,1,1,1,4,0,NA,NA
"2261",329,11,1,1,1,3,0,NA,NA
"2262",329,12,1,1,1,3,0,NA,NA
"2263",329,13,1,1,1,3,0,NA,NA
"2264",329,14,1,1,1,4,0,NA,NA
"2265",329,15,1,1,1,4,0,NA,NA
"2266",329,16,1,1,1,3,0,NA,NA
"2267",329,17,1,1,1,3,0,NA,NA
"2268",329,18,1,1,1,1,0,NA,NA
"2269",329,19,1,1,1,3,0,NA,NA
"2270",329,20,1,1,1,3,0,NA,NA
"2271",329,21,1,1,1,3,1,NA,NA
"2272",329,22,1,1,1,3,1,NA,NA
"2273",329,23,1,1,1,3,1,NA,NA
"2274",329,24,1,1,1,4,1,NA,NA
"2275",329,25,1,1,1,4,1,NA,NA
"2276",329,26,1,1,1,4,1,NA,NA
"2277",329,27,1,1,1,4,1,NA,NA
"2278",329,28,1,1,1,3,1,NA,NA
"2279",329,29,1,1,1,1,1,NA,NA
"2280",329,30,1,1,1,5,1,NA,NA
"2281",330,1,1,1,1,4,0,NA,NA
"2282",330,2,1,1,1,2,0,NA,NA
"2283",330,3,1,1,1,3,0,NA,NA
"2284",330,4,1,1,1,3,0,NA,NA
"2285",330,5,1,1,1,3,0,NA,NA
"2286",330,6,1,1,1,3,0,NA,NA
"2287",330,7,1,1,1,3,0,NA,NA
"2288",330,8,1,1,1,3,0,NA,NA
"2289",330,9,1,1,1,1,0,NA,NA
"2290",330,10,1,1,1,3,0,NA,NA
"2291",330,11,1,1,1,4,1,NA,NA
"2292",330,12,1,1,1,3,1,NA,NA
"2293",330,13,1,1,1,3,1,NA,NA
"2294",330,14,1,1,1,1,1,NA,NA
"2295",330,15,1,1,1,3,1,NA,NA
"2296",330,16,1,1,1,3,1,NA,NA
"2297",330,17,1,1,1,3,1,NA,NA
"2298",330,18,1,1,1,3,1,NA,NA
"2299",330,19,1,1,1,3,1,NA,NA
"2300",330,20,1,1,1,3,1,NA,NA
"2301",332,1,1,1,1,5,1,NA,NA
"2302",332,2,1,1,1,2,1,NA,NA
"2303",332,3,1,1,1,1,1,NA,NA
"2304",332,4,1,1,1,2,1,NA,NA
"2305",332,5,1,1,1,4,1,NA,NA
"2306",332,6,1,1,1,4,1,NA,NA
"2307",332,7,1,1,1,4,1,NA,NA
"2308",332,8,1,1,1,4,1,NA,NA
"2309",332,9,1,1,1,4,1,NA,NA
"2310",332,10,1,1,1,4,1,NA,NA
"2311",332,11,1,1,1,4,0,NA,NA
"2312",332,12,1,1,1,4,0,NA,NA
"2313",332,13,1,1,1,4,0,NA,NA
"2314",332,14,1,1,1,3,0,NA,NA
"2315",332,15,1,1,1,4,0,NA,NA
"2316",332,16,1,1,1,4,0,NA,NA
"2317",332,17,1,1,1,2,0,NA,NA
"2318",332,18,1,1,1,4,0,NA,NA
"2319",332,19,1,1,1,2,0,NA,NA
"2320",332,20,1,1,1,2,0,NA,NA
"2321",333,1,1,1,1,4,0,NA,NA
"2322",333,2,1,1,1,3,0,NA,NA
"2323",333,3,1,1,1,3,0,NA,NA
"2324",333,4,1,1,1,3,0,NA,NA
"2325",333,5,1,1,1,3,0,NA,NA
"2326",333,6,1,1,1,3,0,NA,NA
"2327",333,7,1,1,1,4,0,NA,NA
"2328",333,8,1,1,1,3,0,NA,NA
"2329",333,9,1,1,1,1,0,NA,NA
"2330",333,10,1,1,1,3,0,NA,NA
"2331",333,21,1,1,1,3,1,NA,NA
"2332",333,22,1,1,1,3,1,NA,NA
"2333",333,23,1,1,1,5,1,NA,NA
"2334",333,24,1,1,1,2,1,NA,NA
"2335",333,25,1,1,1,1,1,NA,NA
"2336",333,26,1,1,1,3,1,NA,NA
"2337",333,27,1,1,1,2,1,NA,NA
"2338",333,28,1,1,1,3,1,NA,NA
"2339",333,29,1,1,1,1,1,NA,NA
"2340",333,30,1,1,1,2,1,NA,NA
"2341",343,11,1,1,1,3,1,NA,NA
"2342",343,12,1,1,1,3,1,NA,NA
"2343",343,13,1,1,1,3,1,NA,NA
"2344",343,14,1,1,1,4,1,NA,NA
"2345",343,15,1,1,1,3,1,NA,NA
"2346",343,16,1,1,1,5,1,NA,NA
"2347",343,17,1,1,1,3,1,NA,NA
"2348",343,18,1,1,1,4,1,NA,NA
"2349",343,19,1,1,1,4,1,NA,NA
"2350",343,20,1,1,1,2,1,NA,NA
"2351",343,21,1,1,1,3,0,NA,NA
"2352",343,22,1,1,1,4,0,NA,NA
"2353",343,23,1,1,1,3,0,NA,NA
"2354",343,24,1,1,1,4,0,NA,NA
"2355",343,25,1,1,1,2,0,NA,NA
"2356",343,26,1,1,1,3,0,NA,NA
"2357",343,27,1,1,1,3,0,NA,NA
"2358",343,28,1,1,1,4,0,NA,NA
"2359",343,29,1,1,1,2,0,NA,NA
"2360",343,30,1,1,1,3,0,NA,NA
"2361",344,1,1,1,1,4,0,NA,NA
"2362",344,2,1,1,1,3,0,NA,NA
"2363",344,3,1,1,1,2,0,NA,NA
"2364",344,4,1,1,1,1,0,NA,NA
"2365",344,5,1,1,1,1,0,NA,NA
"2366",344,6,1,1,1,4,0,NA,NA
"2367",344,7,1,1,1,1,0,NA,NA
"2368",344,8,1,1,1,3,0,NA,NA
"2369",344,9,1,1,1,3,0,NA,NA
"2370",344,10,1,1,1,3,0,NA,NA
"2371",344,21,1,1,1,4,1,NA,NA
"2372",344,22,1,1,1,2,1,NA,NA
"2373",344,23,1,1,1,4,1,NA,NA
"2374",344,24,1,1,1,2,1,NA,NA
"2375",344,25,1,1,1,2,1,NA,NA
"2376",344,26,1,1,1,4,1,NA,NA
"2377",344,27,1,1,1,4,1,NA,NA
"2378",344,28,1,1,1,3,1,NA,NA
"2379",344,29,1,1,1,1,1,NA,NA
"2380",344,30,1,1,1,4,1,NA,NA
"2381",349,11,1,1,1,4,0,NA,NA
"2382",349,12,1,1,1,4,0,NA,NA
"2383",349,13,1,1,1,3,0,NA,NA
"2384",349,14,1,1,1,4,0,NA,NA
"2385",349,15,1,1,1,4,0,NA,NA
"2386",349,16,1,1,1,4,0,NA,NA
"2387",349,17,1,1,1,4,0,NA,NA
"2388",349,18,1,1,1,2,0,NA,NA
"2389",349,19,1,1,1,2,0,NA,NA
"2390",349,20,1,1,1,2,0,NA,NA
"2391",349,21,1,1,1,4,1,NA,NA
"2392",349,22,1,1,1,4,1,NA,NA
"2393",349,23,1,1,1,4,1,NA,NA
"2394",349,24,1,1,1,3,1,NA,NA
"2395",349,25,1,1,1,3,1,NA,NA
"2396",349,26,1,1,1,4,1,NA,NA
"2397",349,27,1,1,1,2,1,NA,NA
"2398",349,28,1,1,1,4,1,NA,NA
"2399",349,29,1,1,1,4,1,NA,NA
"2400",349,30,1,1,1,2,1,NA,NA
"2401",350,11,1,1,1,4,1,NA,NA
"2402",350,12,1,1,1,4,1,NA,NA
"2403",350,13,1,1,1,5,1,NA,NA
"2404",350,14,1,1,1,4,1,NA,NA
"2405",350,15,1,1,1,3,1,NA,NA
"2406",350,16,1,1,1,5,1,NA,NA
"2407",350,17,1,1,1,5,1,NA,NA
"2408",350,18,1,1,1,3,1,NA,NA
"2409",350,19,1,1,1,3,1,NA,NA
"2410",350,20,1,1,1,4,1,NA,NA
"2411",350,21,1,1,1,4,0,NA,NA
"2412",350,22,1,1,1,4,0,NA,NA
"2413",350,23,1,1,1,3,0,NA,NA
"2414",350,24,1,1,1,3,0,NA,NA
"2415",350,25,1,1,1,3,0,NA,NA
"2416",350,26,1,1,1,4,0,NA,NA
"2417",350,27,1,1,1,4,0,NA,NA
"2418",350,28,1,1,1,4,0,NA,NA
"2419",350,29,1,1,1,1,0,NA,NA
"2420",350,30,1,1,1,4,0,NA,NA
"2421",351,1,1,1,1,4,0,NA,NA
"2422",351,2,1,1,1,3,0,NA,NA
"2423",351,3,1,1,1,3,0,NA,NA
"2424",351,4,1,1,1,3,0,NA,NA
"2425",351,5,1,1,1,4,0,NA,NA
"2426",351,6,1,1,1,3,0,NA,NA
"2427",351,7,1,1,1,4,0,NA,NA
"2428",351,8,1,1,1,3,0,NA,NA
"2429",351,9,1,1,1,1,0,NA,NA
"2430",351,10,1,1,1,1,0,NA,NA
"2431",351,11,1,1,1,3,1,NA,NA
"2432",351,12,1,1,1,3,1,NA,NA
"2433",351,13,1,1,1,4,1,NA,NA
"2434",351,14,1,1,1,1,1,NA,NA
"2435",351,15,1,1,1,3,1,NA,NA
"2436",351,16,1,1,1,1,1,NA,NA
"2437",351,17,1,1,1,4,1,NA,NA
"2438",351,18,1,1,1,1,1,NA,NA
"2439",351,19,1,1,1,4,1,NA,NA
"2440",351,20,1,1,1,3,1,NA,NA
"2441",354,1,1,1,1,2,1,NA,NA
"2442",354,2,1,1,1,4,1,NA,NA
"2443",354,3,1,1,1,4,1,NA,NA
"2444",354,4,1,1,1,4,1,NA,NA
"2445",354,5,1,1,1,4,1,NA,NA
"2446",354,6,1,1,1,4,1,NA,NA
"2447",354,7,1,1,1,4,1,NA,NA
"2448",354,8,1,1,1,4,1,NA,NA
"2449",354,9,1,1,1,4,1,NA,NA
"2450",354,10,1,1,1,3,1,NA,NA
"2451",354,21,1,1,1,5,0,NA,NA
"2452",354,22,1,1,1,4,0,NA,NA
"2453",354,23,1,1,1,3,0,NA,NA
"2454",354,24,1,1,1,3,0,NA,NA
"2455",354,25,1,1,1,3,0,NA,NA
"2456",354,26,1,1,1,4,0,NA,NA
"2457",354,27,1,1,1,3,0,NA,NA
"2458",354,28,1,1,1,3,0,NA,NA
"2459",354,29,1,1,1,4,0,NA,NA
"2460",354,30,1,1,1,5,0,NA,NA
"2461",357,1,1,1,1,4,1,NA,NA
"2462",357,2,1,1,1,4,1,NA,NA
"2463",357,3,1,1,1,2,1,NA,NA
"2464",357,4,1,1,1,3,1,NA,NA
"2465",357,5,1,1,1,2,1,NA,NA
"2466",357,6,1,1,1,4,1,NA,NA
"2467",357,7,1,1,1,4,1,NA,NA
"2468",357,8,1,1,1,4,1,NA,NA
"2469",357,9,1,1,1,4,1,NA,NA
"2470",357,10,1,1,1,1,1,NA,NA
"2471",357,11,1,1,1,3,0,NA,NA
"2472",357,12,1,1,1,3,0,NA,NA
"2473",357,13,1,1,1,2,0,NA,NA
"2474",357,14,1,1,1,1,0,NA,NA
"2475",357,15,1,1,1,3,0,NA,NA
"2476",357,16,1,1,1,2,0,NA,NA
"2477",357,17,1,1,1,3,0,NA,NA
"2478",357,18,1,1,1,1,0,NA,NA
"2479",357,19,1,1,1,3,0,NA,NA
"2480",357,20,1,1,1,1,0,NA,NA
"2481",358,1,1,1,1,4,0,NA,NA
"2482",358,2,1,1,1,3,0,NA,NA
"2483",358,3,1,1,1,4,0,NA,NA
"2484",358,4,1,1,1,3,0,NA,NA
"2485",358,5,1,1,1,4,0,NA,NA
"2486",358,6,1,1,1,3,0,NA,NA
"2487",358,7,1,1,1,2,0,NA,NA
"2488",358,8,1,1,1,3,0,NA,NA
"2489",358,9,1,1,1,3,0,NA,NA
"2490",358,10,1,1,1,4,0,NA,NA
"2491",358,21,1,1,1,4,1,NA,NA
"2492",358,22,1,1,1,4,1,NA,NA
"2493",358,23,1,1,1,4,1,NA,NA
"2494",358,24,1,1,1,4,1,NA,NA
"2495",358,25,1,1,1,4,1,NA,NA
"2496",358,26,1,1,1,3,1,NA,NA
"2497",358,27,1,1,1,4,1,NA,NA
"2498",358,28,1,1,1,4,1,NA,NA
"2499",358,29,1,1,1,4,1,NA,NA
"2500",358,30,1,1,1,4,1,NA,NA
"2501",359,1,1,1,1,4,0,NA,NA
"2502",359,2,1,1,1,4,0,NA,NA
"2503",359,3,1,1,1,2,0,NA,NA
"2504",359,4,1,1,1,3,0,NA,NA
"2505",359,5,1,1,1,2,0,NA,NA
"2506",359,6,1,1,1,4,0,NA,NA
"2507",359,7,1,1,1,4,0,NA,NA
"2508",359,8,1,1,1,2,0,NA,NA
"2509",359,9,1,1,1,3,0,NA,NA
"2510",359,10,1,1,1,3,0,NA,NA
"2511",359,11,1,1,1,4,1,NA,NA
"2512",359,12,1,1,1,4,1,NA,NA
"2513",359,13,1,1,1,5,1,NA,NA
"2514",359,14,1,1,1,3,1,NA,NA
"2515",359,15,1,1,1,4,1,NA,NA
"2516",359,16,1,1,1,4,1,NA,NA
"2517",359,17,1,1,1,4,1,NA,NA
"2518",359,18,1,1,1,5,1,NA,NA
"2519",359,19,1,1,1,4,1,NA,NA
"2520",359,20,1,1,1,4,1,NA,NA
"2521",360,11,1,1,1,4,0,NA,NA
"2522",360,12,1,1,1,3,0,NA,NA
"2523",360,13,1,1,1,4,0,NA,NA
"2524",360,14,1,1,1,1,0,NA,NA
"2525",360,15,1,1,1,1,0,NA,NA
"2526",360,16,1,1,1,3,0,NA,NA
"2527",360,17,1,1,1,2,0,NA,NA
"2528",360,18,1,1,1,3,0,NA,NA
"2529",360,19,1,1,1,3,0,NA,NA
"2530",360,20,1,1,1,4,0,NA,NA
"2531",360,21,1,1,1,4,1,NA,NA
"2532",360,22,1,1,1,5,1,NA,NA
"2533",360,23,1,1,1,5,1,NA,NA
"2534",360,24,1,1,1,4,1,NA,NA
"2535",360,25,1,1,1,5,1,NA,NA
"2536",360,26,1,1,1,5,1,NA,NA
"2537",360,27,1,1,1,3,1,NA,NA
"2538",360,28,1,1,1,5,1,NA,NA
"2539",360,29,1,1,1,2,1,NA,NA
"2540",360,30,1,1,1,5,1,NA,NA
"2541",361,11,1,1,1,2,1,NA,NA
"2542",361,12,1,1,1,3,1,NA,NA
"2543",361,13,1,1,1,3,1,NA,NA
"2544",361,14,1,1,1,3,1,NA,NA
"2545",361,15,1,1,1,3,1,NA,NA
"2546",361,16,1,1,1,1,1,NA,NA
"2547",361,17,1,1,1,3,1,NA,NA
"2548",361,18,1,1,1,3,1,NA,NA
"2549",361,19,1,1,1,3,1,NA,NA
"2550",361,20,1,1,1,3,1,NA,NA
"2551",361,21,1,1,1,3,0,NA,NA
"2552",361,22,1,1,1,3,0,NA,NA
"2553",361,23,1,1,1,3,0,NA,NA
"2554",361,24,1,1,1,3,0,NA,NA
"2555",361,25,1,1,1,2,0,NA,NA
"2556",361,26,1,1,1,3,0,NA,NA
"2557",361,27,1,1,1,3,0,NA,NA
"2558",361,28,1,1,1,2,0,NA,NA
"2559",361,29,1,1,1,2,0,NA,NA
"2560",361,30,1,1,1,5,0,NA,NA
"2561",362,1,1,1,1,4,1,NA,NA
"2562",362,2,1,1,1,3,1,NA,NA
"2563",362,3,1,1,1,2,1,NA,NA
"2564",362,4,1,1,1,3,1,NA,NA
"2565",362,5,1,1,1,4,1,NA,NA
"2566",362,6,1,1,1,2,1,NA,NA
"2567",362,7,1,1,1,3,1,NA,NA
"2568",362,8,1,1,1,4,1,NA,NA
"2569",362,9,1,1,1,4,1,NA,NA
"2570",362,10,1,1,1,1,1,NA,NA
"2571",362,21,1,1,1,3,0,NA,NA
"2572",362,22,1,1,1,5,0,NA,NA
"2573",362,23,1,1,1,3,0,NA,NA
"2574",362,24,1,1,1,2,0,NA,NA
"2575",362,25,1,1,1,3,0,NA,NA
"2576",362,26,1,1,1,2,0,NA,NA
"2577",362,27,1,1,1,2,0,NA,NA
"2578",362,28,1,1,1,4,0,NA,NA
"2579",362,29,1,1,1,3,0,NA,NA
"2580",362,30,1,1,1,3,0,NA,NA
"2581",363,1,1,1,1,5,1,NA,NA
"2582",363,2,1,1,1,3,1,NA,NA
"2583",363,3,1,1,1,4,1,NA,NA
"2584",363,4,1,1,1,4,1,NA,NA
"2585",363,5,1,1,1,4,1,NA,NA
"2586",363,6,1,1,1,4,1,NA,NA
"2587",363,7,1,1,1,4,1,NA,NA
"2588",363,8,1,1,1,4,1,NA,NA
"2589",363,9,1,1,1,4,1,NA,NA
"2590",363,10,1,1,1,4,1,NA,NA
"2591",363,11,1,1,1,4,0,NA,NA
"2592",363,12,1,1,1,3,0,NA,NA
"2593",363,13,1,1,1,2,0,NA,NA
"2594",363,14,1,1,1,3,0,NA,NA
"2595",363,15,1,1,1,4,0,NA,NA
"2596",363,16,1,1,1,3,0,NA,NA
"2597",363,17,1,1,1,2,0,NA,NA
"2598",363,18,1,1,1,4,0,NA,NA
"2599",363,19,1,1,1,2,0,NA,NA
"2600",363,20,1,1,1,4,0,NA,NA
"2601",364,11,1,1,1,4,0,NA,NA
"2602",364,12,1,1,1,4,0,NA,NA
"2603",364,13,1,1,1,5,0,NA,NA
"2604",364,14,1,1,1,2,0,NA,NA
"2605",364,15,1,1,1,3,0,NA,NA
"2606",364,16,1,1,1,3,0,NA,NA
"2607",364,17,1,1,1,3,0,NA,NA
"2608",364,18,1,1,1,4,0,NA,NA
"2609",364,19,1,1,1,2,0,NA,NA
"2610",364,20,1,1,1,4,0,NA,NA
"2611",364,21,1,1,1,3,1,NA,NA
"2612",364,22,1,1,1,5,1,NA,NA
"2613",364,23,1,1,1,5,1,NA,NA
"2614",364,24,1,1,1,4,1,NA,NA
"2615",364,25,1,1,1,1,1,NA,NA
"2616",364,26,1,1,1,5,1,NA,NA
"2617",364,27,1,1,1,3,1,NA,NA
"2618",364,28,1,1,1,5,1,NA,NA
"2619",364,29,1,1,1,4,1,NA,NA
"2620",364,30,1,1,1,5,1,NA,NA
"2621",365,1,1,1,1,4,0,NA,NA
"2622",365,2,1,1,1,3,0,NA,NA
"2623",365,3,1,1,1,2,0,NA,NA
"2624",365,4,1,1,1,3,0,NA,NA
"2625",365,5,1,1,1,2,0,NA,NA
"2626",365,6,1,1,1,3,0,NA,NA
"2627",365,7,1,1,1,3,0,NA,NA
"2628",365,8,1,1,1,4,0,NA,NA
"2629",365,9,1,1,1,4,0,NA,NA
"2630",365,10,1,1,1,1,0,NA,NA
"2631",365,21,1,1,1,3,1,NA,NA
"2632",365,22,1,1,1,4,1,NA,NA
"2633",365,23,1,1,1,2,1,NA,NA
"2634",365,24,1,1,1,4,1,NA,NA
"2635",365,25,1,1,1,3,1,NA,NA
"2636",365,26,1,1,1,4,1,NA,NA
"2637",365,27,1,1,1,1,1,NA,NA
"2638",365,28,1,1,1,4,1,NA,NA
"2639",365,29,1,1,1,1,1,NA,NA
"2640",365,30,1,1,1,5,1,NA,NA
"2641",366,11,1,1,1,4,1,NA,NA
"2642",366,12,1,1,1,4,1,NA,NA
"2643",366,13,1,1,1,3,1,NA,NA
"2644",366,14,1,1,1,1,1,NA,NA
"2645",366,15,1,1,1,3,1,NA,NA
"2646",366,16,1,1,1,4,1,NA,NA
"2647",366,17,1,1,1,4,1,NA,NA
"2648",366,18,1,1,1,1,1,NA,NA
"2649",366,19,1,1,1,3,1,NA,NA
"2650",366,20,1,1,1,4,1,NA,NA
"2651",366,21,1,1,1,4,0,NA,NA
"2652",366,22,1,1,1,4,0,NA,NA
"2653",366,23,1,1,1,3,0,NA,NA
"2654",366,24,1,1,1,2,0,NA,NA
"2655",366,25,1,1,1,4,0,NA,NA
"2656",366,26,1,1,1,4,0,NA,NA
"2657",366,27,1,1,1,3,0,NA,NA
"2658",366,28,1,1,1,3,0,NA,NA
"2659",366,29,1,1,1,4,0,NA,NA
"2660",366,30,1,1,1,5,0,NA,NA
"2661",368,1,1,1,1,4,0,NA,NA
"2662",368,2,1,1,1,2,0,NA,NA
"2663",368,3,1,1,1,1,0,NA,NA
"2664",368,4,1,1,1,2,0,NA,NA
"2665",368,5,1,1,1,2,0,NA,NA
"2666",368,6,1,1,1,4,0,NA,NA
"2667",368,7,1,1,1,4,0,NA,NA
"2668",368,8,1,1,1,4,0,NA,NA
"2669",368,9,1,1,1,1,0,NA,NA
"2670",368,10,1,1,1,4,0,NA,NA
"2671",368,11,1,1,1,2,1,NA,NA
"2672",368,12,1,1,1,2,1,NA,NA
"2673",368,13,1,1,1,2,1,NA,NA
"2674",368,14,1,1,1,2,1,NA,NA
"2675",368,15,1,1,1,1,1,NA,NA
"2676",368,16,1,1,1,2,1,NA,NA
"2677",368,17,1,1,1,2,1,NA,NA
"2678",368,18,1,1,1,4,1,NA,NA
"2679",368,19,1,1,1,2,1,NA,NA
"2680",368,20,1,1,1,1,1,NA,NA
"2681",370,1,1,1,1,1,1,NA,NA
"2682",370,2,1,1,1,4,1,NA,NA
"2683",370,3,1,1,1,2,1,NA,NA
"2684",370,4,1,1,1,2,1,NA,NA
"2685",370,5,1,1,1,1,1,NA,NA
"2686",370,6,1,1,1,2,1,NA,NA
"2687",370,7,1,1,1,2,1,NA,NA
"2688",370,8,1,1,1,2,1,NA,NA
"2689",370,9,1,1,1,4,1,NA,NA
"2690",370,10,1,1,1,2,1,NA,NA
"2691",370,21,1,1,1,4,0,NA,NA
"2692",370,22,1,1,1,1,0,NA,NA
"2693",370,23,1,1,1,1,0,NA,NA
"2694",370,24,1,1,1,3,0,NA,NA
"2695",370,25,1,1,1,2,0,NA,NA
"2696",370,26,1,1,1,1,0,NA,NA
"2697",370,27,1,1,1,4,0,NA,NA
"2698",370,28,1,1,1,2,0,NA,NA
"2699",370,29,1,1,1,4,0,NA,NA
"2700",370,30,1,1,1,1,0,NA,NA
"2701",371,1,1,1,1,4,1,NA,NA
"2702",371,2,1,1,1,2,1,NA,NA
"2703",371,3,1,1,1,4,1,NA,NA
"2704",371,4,1,1,1,2,1,NA,NA
"2705",371,5,1,1,1,2,1,NA,NA
"2706",371,6,1,1,1,3,1,NA,NA
"2707",371,7,1,1,1,4,1,NA,NA
"2708",371,8,1,1,1,4,1,NA,NA
"2709",371,9,1,1,1,3,1,NA,NA
"2710",371,10,1,1,1,3,1,NA,NA
"2711",371,11,1,1,1,3,0,NA,NA
"2712",371,12,1,1,1,3,0,NA,NA
"2713",371,13,1,1,1,3,0,NA,NA
"2714",371,14,1,1,1,4,0,NA,NA
"2715",371,15,1,1,1,3,0,NA,NA
"2716",371,16,1,1,1,4,0,NA,NA
"2717",371,17,1,1,1,4,0,NA,NA
"2718",371,18,1,1,1,3,0,NA,NA
"2719",371,19,1,1,1,3,0,NA,NA
"2720",371,20,1,1,1,1,0,NA,NA
"2721",372,1,1,1,1,4,1,NA,NA
"2722",372,2,1,1,1,3,1,NA,NA
"2723",372,3,1,1,1,1,1,NA,NA
"2724",372,4,1,1,1,4,1,NA,NA
"2725",372,5,1,1,1,4,1,NA,NA
"2726",372,6,1,1,1,4,1,NA,NA
"2727",372,7,1,1,1,3,1,NA,NA
"2728",372,8,1,1,1,4,1,NA,NA
"2729",372,9,1,1,1,3,1,NA,NA
"2730",372,10,1,1,1,4,1,NA,NA
"2731",372,21,1,1,1,3,0,NA,NA
"2732",372,22,1,1,1,2,0,NA,NA
"2733",372,23,1,1,1,3,0,NA,NA
"2734",372,24,1,1,1,2,0,NA,NA
"2735",372,25,1,1,1,4,0,NA,NA
"2736",372,26,1,1,1,1,0,NA,NA
"2737",372,27,1,1,1,2,0,NA,NA
"2738",372,28,1,1,1,2,0,NA,NA
"2739",372,29,1,1,1,3,0,NA,NA
"2740",372,30,1,1,1,3,0,NA,NA
"2741",373,11,1,1,1,3,0,NA,NA
"2742",373,12,1,1,1,4,0,NA,NA
"2743",373,13,1,1,1,5,0,NA,NA
"2744",373,14,1,1,1,4,0,NA,NA
"2745",373,15,1,1,1,3,0,NA,NA
"2746",373,16,1,1,1,2,0,NA,NA
"2747",373,17,1,1,1,3,0,NA,NA
"2748",373,18,1,1,1,3,0,NA,NA
"2749",373,19,1,1,1,1,0,NA,NA
"2750",373,20,1,1,1,1,0,NA,NA
"2751",373,21,1,1,1,5,1,NA,NA
"2752",373,22,1,1,1,2,1,NA,NA
"2753",373,23,1,1,1,5,1,NA,NA
"2754",373,24,1,1,1,2,1,NA,NA
"2755",373,25,1,1,1,5,1,NA,NA
"2756",373,26,1,1,1,5,1,NA,NA
"2757",373,27,1,1,1,5,1,NA,NA
"2758",373,28,1,1,1,3,1,NA,NA
"2759",373,29,1,1,1,5,1,NA,NA
"2760",373,30,1,1,1,5,1,NA,NA
"2761",376,1,1,1,1,4,0,NA,NA
"2762",376,2,1,1,1,2,0,NA,NA
"2763",376,3,1,1,1,2,0,NA,NA
"2764",376,4,1,1,1,1,0,NA,NA
"2765",376,5,1,1,1,4,0,NA,NA
"2766",376,6,1,1,1,3,0,NA,NA
"2767",376,7,1,1,1,3,0,NA,NA
"2768",376,8,1,1,1,2,0,NA,NA
"2769",376,9,1,1,1,1,0,NA,NA
"2770",376,10,1,1,1,2,0,NA,NA
"2771",376,11,1,1,1,4,1,NA,NA
"2772",376,12,1,1,1,4,1,NA,NA
"2773",376,13,1,1,1,4,1,NA,NA
"2774",376,14,1,1,1,1,1,NA,NA
"2775",376,15,1,1,1,5,1,NA,NA
"2776",376,16,1,1,1,5,1,NA,NA
"2777",376,17,1,1,1,4,1,NA,NA
"2778",376,18,1,1,1,4,1,NA,NA
"2779",376,19,1,1,1,3,1,NA,NA
"2780",376,20,1,1,1,1,1,NA,NA
"2781",378,11,1,1,1,2,1,NA,NA
"2782",378,12,1,1,1,4,1,NA,NA
"2783",378,13,1,1,1,5,1,NA,NA
"2784",378,14,1,1,1,4,1,NA,NA
"2785",378,15,1,1,1,4,1,NA,NA
"2786",378,16,1,1,1,4,1,NA,NA
"2787",378,17,1,1,1,4,1,NA,NA
"2788",378,18,1,1,1,5,1,NA,NA
"2789",378,19,1,1,1,5,1,NA,NA
"2790",378,20,1,1,1,2,1,NA,NA
"2791",378,21,1,1,1,3,0,NA,NA
"2792",378,22,1,1,1,2,0,NA,NA
"2793",378,23,1,1,1,3,0,NA,NA
"2794",378,24,1,1,1,2,0,NA,NA
"2795",378,25,1,1,1,2,0,NA,NA
"2796",378,26,1,1,1,3,0,NA,NA
"2797",378,27,1,1,1,3,0,NA,NA
"2798",378,28,1,1,1,3,0,NA,NA
"2799",378,29,1,1,1,4,0,NA,NA
"2800",378,30,1,1,1,3,0,NA,NA
"2801",379,11,1,1,1,5,0,NA,NA
"2802",379,12,1,1,1,4,0,NA,NA
"2803",379,13,1,1,1,3,0,NA,NA
"2804",379,14,1,1,1,2,0,NA,NA
"2805",379,15,1,1,1,3,0,NA,NA
"2806",379,16,1,1,1,2,0,NA,NA
"2807",379,17,1,1,1,1,0,NA,NA
"2808",379,18,1,1,1,3,0,NA,NA
"2809",379,19,1,1,1,3,0,NA,NA
"2810",379,20,1,1,1,3,0,NA,NA
"2811",379,21,1,1,1,5,1,NA,NA
"2812",379,22,1,1,1,3,1,NA,NA
"2813",379,23,1,1,1,3,1,NA,NA
"2814",379,24,1,1,1,3,1,NA,NA
"2815",379,25,1,1,1,4,1,NA,NA
"2816",379,26,1,1,1,3,1,NA,NA
"2817",379,27,1,1,1,3,1,NA,NA
"2818",379,28,1,1,1,3,1,NA,NA
"2819",379,29,1,1,1,4,1,NA,NA
"2820",379,30,1,1,1,3,1,NA,NA
"2821",381,1,1,1,1,2,1,NA,NA
"2822",381,2,1,1,1,2,1,NA,NA
"2823",381,3,1,1,1,1,1,NA,NA
"2824",381,4,1,1,1,4,1,NA,NA
"2825",381,5,1,1,1,4,1,NA,NA
"2826",381,6,1,1,1,3,1,NA,NA
"2827",381,7,1,1,1,4,1,NA,NA
"2828",381,8,1,1,1,4,1,NA,NA
"2829",381,9,1,1,1,3,1,NA,NA
"2830",381,10,1,1,1,2,1,NA,NA
"2831",381,11,1,1,1,5,0,NA,NA
"2832",381,12,1,1,1,3,0,NA,NA
"2833",381,13,1,1,1,4,0,NA,NA
"2834",381,14,1,1,1,3,0,NA,NA
"2835",381,15,1,1,1,3,0,NA,NA
"2836",381,16,1,1,1,3,0,NA,NA
"2837",381,17,1,1,1,1,0,NA,NA
"2838",381,18,1,1,1,3,0,NA,NA
"2839",381,19,1,1,1,4,0,NA,NA
"2840",381,20,1,1,1,1,0,NA,NA
"2841",382,11,1,1,1,2,1,NA,NA
"2842",382,12,1,1,1,5,1,NA,NA
"2843",382,13,1,1,1,5,1,NA,NA
"2844",382,14,1,1,1,5,1,NA,NA
"2845",382,15,1,1,1,5,1,NA,NA
"2846",382,16,1,1,1,5,1,NA,NA
"2847",382,17,1,1,1,5,1,NA,NA
"2848",382,18,1,1,1,5,1,NA,NA
"2849",382,19,1,1,1,5,1,NA,NA
"2850",382,20,1,1,1,5,1,NA,NA
"2851",382,21,1,1,1,3,0,NA,NA
"2852",382,22,1,1,1,3,0,NA,NA
"2853",382,23,1,1,1,3,0,NA,NA
"2854",382,24,1,1,1,3,0,NA,NA
"2855",382,25,1,1,1,3,0,NA,NA
"2856",382,26,1,1,1,3,0,NA,NA
"2857",382,27,1,1,1,5,0,NA,NA
"2858",382,28,1,1,1,3,0,NA,NA
"2859",382,29,1,1,1,5,0,NA,NA
"2860",382,30,1,1,1,3,0,NA,NA
"2861",383,1,1,1,1,4,0,NA,NA
"2862",383,2,1,1,1,3,0,NA,NA
"2863",383,3,1,1,1,5,0,NA,NA
"2864",383,4,1,1,1,3,0,NA,NA
"2865",383,5,1,1,1,2,0,NA,NA
"2866",383,6,1,1,1,3,0,NA,NA
"2867",383,7,1,1,1,4,0,NA,NA
"2868",383,8,1,1,1,2,0,NA,NA
"2869",383,9,1,1,1,3,0,NA,NA
"2870",383,10,1,1,1,3,0,NA,NA
"2871",383,21,1,1,1,5,1,NA,NA
"2872",383,22,1,1,1,3,1,NA,NA
"2873",383,23,1,1,1,5,1,NA,NA
"2874",383,24,1,1,1,5,1,NA,NA
"2875",383,25,1,1,1,5,1,NA,NA
"2876",383,26,1,1,1,5,1,NA,NA
"2877",383,27,1,1,1,5,1,NA,NA
"2878",383,28,1,1,1,5,1,NA,NA
"2879",383,29,1,1,1,5,1,NA,NA
"2880",383,30,1,1,1,5,1,NA,NA
"2881",384,1,1,1,1,4,0,NA,NA
"2882",384,2,1,1,1,2,0,NA,NA
"2883",384,3,1,1,1,2,0,NA,NA
"2884",384,4,1,1,1,2,0,NA,NA
"2885",384,5,1,1,1,2,0,NA,NA
"2886",384,6,1,1,1,4,0,NA,NA
"2887",384,7,1,1,1,2,0,NA,NA
"2888",384,8,1,1,1,2,0,NA,NA
"2889",384,9,1,1,1,1,0,NA,NA
"2890",384,10,1,1,1,1,0,NA,NA
"2891",384,11,1,1,1,4,1,NA,NA
"2892",384,12,1,1,1,3,1,NA,NA
"2893",384,13,1,1,1,4,1,NA,NA
"2894",384,14,1,1,1,1,1,NA,NA
"2895",384,15,1,1,1,2,1,NA,NA
"2896",384,16,1,1,1,3,1,NA,NA
"2897",384,17,1,1,1,2,1,NA,NA
"2898",384,18,1,1,1,2,1,NA,NA
"2899",384,19,1,1,1,4,1,NA,NA
"2900",384,20,1,1,1,1,1,NA,NA
"2901",386,1,1,1,1,4,0,NA,NA
"2902",386,2,1,1,1,3,0,NA,NA
"2903",386,3,1,1,1,1,0,NA,NA
"2904",386,4,1,1,1,2,0,NA,NA
"2905",386,5,1,1,1,3,0,NA,NA
"2906",386,6,1,1,1,3,0,NA,NA
"2907",386,7,1,1,1,3,0,NA,NA
"2908",386,8,1,1,1,2,0,NA,NA
"2909",386,9,1,1,1,2,0,NA,NA
"2910",386,10,1,1,1,3,0,NA,NA
"2911",386,21,1,1,1,4,1,NA,NA
"2912",386,22,1,1,1,4,1,NA,NA
"2913",386,23,1,1,1,5,1,NA,NA
"2914",386,24,1,1,1,3,1,NA,NA
"2915",386,25,1,1,1,2,1,NA,NA
"2916",386,26,1,1,1,3,1,NA,NA
"2917",386,27,1,1,1,4,1,NA,NA
"2918",386,28,1,1,1,4,1,NA,NA
"2919",386,29,1,1,1,3,1,NA,NA
"2920",386,30,1,1,1,4,1,NA,NA
"2921",387,11,1,1,1,4,1,NA,NA
"2922",387,12,1,1,1,3,1,NA,NA
"2923",387,13,1,1,1,2,1,NA,NA
"2924",387,14,1,1,1,3,1,NA,NA
"2925",387,15,1,1,1,3,1,NA,NA
"2926",387,16,1,1,1,4,1,NA,NA
"2927",387,17,1,1,1,3,1,NA,NA
"2928",387,18,1,1,1,3,1,NA,NA
"2929",387,19,1,1,1,2,1,NA,NA
"2930",387,20,1,1,1,1,1,NA,NA
"2931",387,21,1,1,1,4,0,NA,NA
"2932",387,22,1,1,1,3,0,NA,NA
"2933",387,23,1,1,1,2,0,NA,NA
"2934",387,24,1,1,1,3,0,NA,NA
"2935",387,25,1,1,1,3,0,NA,NA
"2936",387,26,1,1,1,3,0,NA,NA
"2937",387,27,1,1,1,2,0,NA,NA
"2938",387,28,1,1,1,1,0,NA,NA
"2939",387,29,1,1,1,4,0,NA,NA
"2940",387,30,1,1,1,3,0,NA,NA
"2941",388,1,1,1,1,5,1,NA,NA
"2942",388,2,1,1,1,5,1,NA,NA
"2943",388,3,1,1,1,2,1,NA,NA
"2944",388,4,1,1,1,5,1,NA,NA
"2945",388,5,1,1,1,5,1,NA,NA
"2946",388,6,1,1,1,5,1,NA,NA
"2947",388,7,1,1,1,4,1,NA,NA
"2948",388,8,1,1,1,4,1,NA,NA
"2949",388,9,1,1,1,5,1,NA,NA
"2950",388,10,1,1,1,5,1,NA,NA
"2951",388,11,1,1,1,4,0,NA,NA
"2952",388,12,1,1,1,4,0,NA,NA
"2953",388,13,1,1,1,3,0,NA,NA
"2954",388,14,1,1,1,1,0,NA,NA
"2955",388,15,1,1,1,4,0,NA,NA
"2956",388,16,1,1,1,3,0,NA,NA
"2957",388,17,1,1,1,2,0,NA,NA
"2958",388,18,1,1,1,2,0,NA,NA
"2959",388,19,1,1,1,2,0,NA,NA
"2960",388,20,1,1,1,4,0,NA,NA
"2961",389,1,1,1,1,5,0,NA,NA
"2962",389,2,1,1,1,4,0,NA,NA
"2963",389,3,1,1,1,5,0,NA,NA
"2964",389,4,1,1,1,4,0,NA,NA
"2965",389,5,1,1,1,3,0,NA,NA
"2966",389,6,1,1,1,3,0,NA,NA
"2967",389,7,1,1,1,3,0,NA,NA
"2968",389,8,1,1,1,4,0,NA,NA
"2969",389,9,1,1,1,3,0,NA,NA
"2970",389,10,1,1,1,1,0,NA,NA
"2971",389,11,1,1,1,3,1,NA,NA
"2972",389,12,1,1,1,4,1,NA,NA
"2973",389,13,1,1,1,3,1,NA,NA
"2974",389,14,1,1,1,3,1,NA,NA
"2975",389,15,1,1,1,3,1,NA,NA
"2976",389,16,1,1,1,3,1,NA,NA
"2977",389,17,1,1,1,4,1,NA,NA
"2978",389,18,1,1,1,4,1,NA,NA
"2979",389,19,1,1,1,4,1,NA,NA
"2980",389,20,1,1,1,5,1,NA,NA
"2981",394,11,1,1,1,1,0,NA,NA
"2982",394,12,1,1,1,2,0,NA,NA
"2983",394,13,1,1,1,1,0,NA,NA
"2984",394,14,1,1,1,1,0,NA,NA
"2985",394,15,1,1,1,2,0,NA,NA
"2986",394,16,1,1,1,3,0,NA,NA
"2987",394,17,1,1,1,3,0,NA,NA
"2988",394,18,1,1,1,1,0,NA,NA
"2989",394,19,1,1,1,1,0,NA,NA
"2990",394,20,1,1,1,1,0,NA,NA
"2991",394,21,1,1,1,1,1,NA,NA
"2992",394,22,1,1,1,2,1,NA,NA
"2993",394,23,1,1,1,2,1,NA,NA
"2994",394,24,1,1,1,4,1,NA,NA
"2995",394,25,1,1,1,1,1,NA,NA
"2996",394,26,1,1,1,1,1,NA,NA
"2997",394,27,1,1,1,2,1,NA,NA
"2998",394,28,1,1,1,2,1,NA,NA
"2999",394,29,1,1,1,1,1,NA,NA
"3000",394,30,1,1,1,1,1,NA,NA
"3001",395,1,1,1,1,3,1,NA,NA
"3002",395,2,1,1,1,4,1,NA,NA
"3003",395,3,1,1,1,4,1,NA,NA
"3004",395,4,1,1,1,3,1,NA,NA
"3005",395,5,1,1,1,2,1,NA,NA
"3006",395,6,1,1,1,3,1,NA,NA
"3007",395,7,1,1,1,4,1,NA,NA
"3008",395,8,1,1,1,2,1,NA,NA
"3009",395,9,1,1,1,3,1,NA,NA
"3010",395,10,1,1,1,4,1,NA,NA
"3011",395,11,1,1,1,5,0,NA,NA
"3012",395,12,1,1,1,3,0,NA,NA
"3013",395,13,1,1,1,2,0,NA,NA
"3014",395,14,1,1,1,4,0,NA,NA
"3015",395,15,1,1,1,3,0,NA,NA
"3016",395,16,1,1,1,2,0,NA,NA
"3017",395,17,1,1,1,2,0,NA,NA
"3018",395,18,1,1,1,3,0,NA,NA
"3019",395,19,1,1,1,2,0,NA,NA
"3020",395,20,1,1,1,4,0,NA,NA
"3021",396,1,1,1,1,4,1,NA,NA
"3022",396,2,1,1,1,2,1,NA,NA
"3023",396,3,1,1,1,2,1,NA,NA
"3024",396,4,1,1,1,4,1,NA,NA
"3025",396,5,1,1,1,3,1,NA,NA
"3026",396,6,1,1,1,2,1,NA,NA
"3027",396,7,1,1,1,4,1,NA,NA
"3028",396,8,1,1,1,4,1,NA,NA
"3029",396,9,1,1,1,4,1,NA,NA
"3030",396,10,1,1,1,4,1,NA,NA
"3031",396,21,1,1,1,2,0,NA,NA
"3032",396,22,1,1,1,4,0,NA,NA
"3033",396,23,1,1,1,2,0,NA,NA
"3034",396,24,1,1,1,2,0,NA,NA
"3035",396,25,1,1,1,2,0,NA,NA
"3036",396,26,1,1,1,4,0,NA,NA
"3037",396,27,1,1,1,3,0,NA,NA
"3038",396,28,1,1,1,2,0,NA,NA
"3039",396,29,1,1,1,2,0,NA,NA
"3040",396,30,1,1,1,3,0,NA,NA
"3041",398,11,1,1,1,3,1,NA,NA
"3042",398,12,1,1,1,3,1,NA,NA
"3043",398,13,1,1,1,3,1,NA,NA
"3044",398,14,1,1,1,2,1,NA,NA
"3045",398,15,1,1,1,3,1,NA,NA
"3046",398,16,1,1,1,3,1,NA,NA
"3047",398,17,1,1,1,3,1,NA,NA
"3048",398,18,1,1,1,3,1,NA,NA
"3049",398,19,1,1,1,3,1,NA,NA
"3050",398,20,1,1,1,3,1,NA,NA
"3051",398,21,1,1,1,3,0,NA,NA
"3052",398,22,1,1,1,2,0,NA,NA
"3053",398,23,1,1,1,3,0,NA,NA
"3054",398,24,1,1,1,2,0,NA,NA
"3055",398,25,1,1,1,3,0,NA,NA
"3056",398,26,1,1,1,2,0,NA,NA
"3057",398,27,1,1,1,3,0,NA,NA
"3058",398,28,1,1,1,4,0,NA,NA
"3059",398,29,1,1,1,3,0,NA,NA
"3060",398,30,1,1,1,3,0,NA,NA
"3061",399,1,1,1,1,4,0,NA,NA
"3062",399,2,1,1,1,1,0,NA,NA
"3063",399,3,1,1,1,2,0,NA,NA
"3064",399,4,1,1,1,2,0,NA,NA
"3065",399,5,1,1,1,4,0,NA,NA
"3066",399,6,1,1,1,3,0,NA,NA
"3067",399,7,1,1,1,1,0,NA,NA
"3068",399,8,1,1,1,2,0,NA,NA
"3069",399,9,1,1,1,4,0,NA,NA
"3070",399,10,1,1,1,4,0,NA,NA
"3071",399,21,1,1,1,3,1,NA,NA
"3072",399,22,1,1,1,1,1,NA,NA
"3073",399,23,1,1,1,2,1,NA,NA
"3074",399,24,1,1,1,1,1,NA,NA
"3075",399,25,1,1,1,2,1,NA,NA
"3076",399,26,1,1,1,4,1,NA,NA
"3077",399,27,1,1,1,4,1,NA,NA
"3078",399,28,1,1,1,2,1,NA,NA
"3079",399,29,1,1,1,3,1,NA,NA
"3080",399,30,1,1,1,4,1,NA,NA
"3081",400,1,1,1,1,3,0,NA,NA
"3082",400,2,1,1,1,3,0,NA,NA
"3083",400,3,1,1,1,3,0,NA,NA
"3084",400,4,1,1,1,3,0,NA,NA
"3085",400,5,1,1,1,2,0,NA,NA
"3086",400,6,1,1,1,3,0,NA,NA
"3087",400,7,1,1,1,3,0,NA,NA
"3088",400,8,1,1,1,3,0,NA,NA
"3089",400,9,1,1,1,4,0,NA,NA
"3090",400,10,1,1,1,3,0,NA,NA
"3091",400,11,1,1,1,4,1,NA,NA
"3092",400,12,1,1,1,3,1,NA,NA
"3093",400,13,1,1,1,3,1,NA,NA
"3094",400,14,1,1,1,3,1,NA,NA
"3095",400,15,1,1,1,3,1,NA,NA
"3096",400,16,1,1,1,3,1,NA,NA
"3097",400,17,1,1,1,4,1,NA,NA
"3098",400,18,1,1,1,3,1,NA,NA
"3099",400,19,1,1,1,4,1,NA,NA
"3100",400,20,1,1,1,3,1,NA,NA
"3101",402,1,1,1,1,4,1,NA,NA
"3102",402,2,1,1,1,4,1,NA,NA
"3103",402,3,1,1,1,4,1,NA,NA
"3104",402,4,1,1,1,3,1,NA,NA
"3105",402,5,1,1,1,2,1,NA,NA
"3106",402,6,1,1,1,3,1,NA,NA
"3107",402,7,1,1,1,4,1,NA,NA
"3108",402,8,1,1,1,3,1,NA,NA
"3109",402,9,1,1,1,3,1,NA,NA
"3110",402,10,1,1,1,3,1,NA,NA
"3111",402,21,1,1,1,3,0,NA,NA
"3112",402,22,1,1,1,2,0,NA,NA
"3113",402,23,1,1,1,3,0,NA,NA
"3114",402,24,1,1,1,2,0,NA,NA
"3115",402,25,1,1,1,2,0,NA,NA
"3116",402,26,1,1,1,1,0,NA,NA
"3117",402,27,1,1,1,3,0,NA,NA
"3118",402,28,1,1,1,3,0,NA,NA
"3119",402,29,1,1,1,2,0,NA,NA
"3120",402,30,1,1,1,5,0,NA,NA
"3121",405,1,1,1,1,4,1,NA,NA
"3122",405,2,1,1,1,3,1,NA,NA
"3123",405,3,1,1,1,1,1,NA,NA
"3124",405,4,1,1,1,4,1,NA,NA
"3125",405,5,1,1,1,3,1,NA,NA
"3126",405,6,1,1,1,3,1,NA,NA
"3127",405,7,1,1,1,1,1,NA,NA
"3128",405,8,1,1,1,3,1,NA,NA
"3129",405,9,1,1,1,2,1,NA,NA
"3130",405,10,1,1,1,4,1,NA,NA
"3131",405,11,1,1,1,4,0,NA,NA
"3132",405,12,1,1,1,2,0,NA,NA
"3133",405,13,1,1,1,2,0,NA,NA
"3134",405,14,1,1,1,2,0,NA,NA
"3135",405,15,1,1,1,1,0,NA,NA
"3136",405,16,1,1,1,3,0,NA,NA
"3137",405,17,1,1,1,2,0,NA,NA
"3138",405,18,1,1,1,3,0,NA,NA
"3139",405,19,1,1,1,1,0,NA,NA
"3140",405,20,1,1,1,2,0,NA,NA
"3141",407,1,1,1,1,5,0,NA,NA
"3142",407,2,1,1,1,3,0,NA,NA
"3143",407,3,1,1,1,4,0,NA,NA
"3144",407,4,1,1,1,4,0,NA,NA
"3145",407,5,1,1,1,4,0,NA,NA
"3146",407,6,1,1,1,3,0,NA,NA
"3147",407,7,1,1,1,3,0,NA,NA
"3148",407,8,1,1,1,3,0,NA,NA
"3149",407,9,1,1,1,3,0,NA,NA
"3150",407,10,1,1,1,3,0,NA,NA
"3151",407,21,1,1,1,3,1,NA,NA
"3152",407,22,1,1,1,3,1,NA,NA
"3153",407,23,1,1,1,2,1,NA,NA
"3154",407,24,1,1,1,4,1,NA,NA
"3155",407,25,1,1,1,1,1,NA,NA
"3156",407,26,1,1,1,3,1,NA,NA
"3157",407,27,1,1,1,4,1,NA,NA
"3158",407,28,1,1,1,3,1,NA,NA
"3159",407,29,1,1,1,5,1,NA,NA
"3160",407,30,1,1,1,3,1,NA,NA
"3161",408,11,1,1,1,4,1,NA,NA
"3162",408,12,1,1,1,4,1,NA,NA
"3163",408,13,1,1,1,4,1,NA,NA
"3164",408,14,1,1,1,4,1,NA,NA
"3165",408,15,1,1,1,4,1,NA,NA
"3166",408,16,1,1,1,4,1,NA,NA
"3167",408,17,1,1,1,4,1,NA,NA
"3168",408,18,1,1,1,4,1,NA,NA
"3169",408,19,1,1,1,4,1,NA,NA
"3170",408,20,1,1,1,4,1,NA,NA
"3171",408,21,1,1,1,3,0,NA,NA
"3172",408,22,1,1,1,4,0,NA,NA
"3173",408,23,1,1,1,4,0,NA,NA
"3174",408,24,1,1,1,2,0,NA,NA
"3175",408,25,1,1,1,2,0,NA,NA
"3176",408,26,1,1,1,3,0,NA,NA
"3177",408,27,1,1,1,3,0,NA,NA
"3178",408,28,1,1,1,3,0,NA,NA
"3179",408,29,1,1,1,2,0,NA,NA
"3180",408,30,1,1,1,5,0,NA,NA
"3181",410,11,1,1,1,2,0,NA,NA
"3182",410,12,1,1,1,4,0,NA,NA
"3183",410,13,1,1,1,4,0,NA,NA
"3184",410,14,1,1,1,2,0,NA,NA
"3185",410,15,1,1,1,2,0,NA,NA
"3186",410,16,1,1,1,4,0,NA,NA
"3187",410,17,1,1,1,2,0,NA,NA
"3188",410,18,1,1,1,3,0,NA,NA
"3189",410,19,1,1,1,3,0,NA,NA
"3190",410,20,1,1,1,2,0,NA,NA
"3191",410,21,1,1,1,3,1,NA,NA
"3192",410,22,1,1,1,4,1,NA,NA
"3193",410,23,1,1,1,4,1,NA,NA
"3194",410,24,1,1,1,2,1,NA,NA
"3195",410,25,1,1,1,4,1,NA,NA
"3196",410,26,1,1,1,4,1,NA,NA
"3197",410,27,1,1,1,4,1,NA,NA
"3198",410,28,1,1,1,4,1,NA,NA
"3199",410,29,1,1,1,2,1,NA,NA
"3200",410,30,1,1,1,4,1,NA,NA
"3201",411,1,1,1,1,3,0,NA,NA
"3202",411,2,1,1,1,4,0,NA,NA
"3203",411,3,1,1,1,2,0,NA,NA
"3204",411,4,1,1,1,2,0,NA,NA
"3205",411,5,1,1,1,2,0,NA,NA
"3206",411,6,1,1,1,3,0,NA,NA
"3207",411,7,1,1,1,2,0,NA,NA
"3208",411,8,1,1,1,4,0,NA,NA
"3209",411,9,1,1,1,4,0,NA,NA
"3210",411,10,1,1,1,2,0,NA,NA
"3211",411,11,1,1,1,4,1,NA,NA
"3212",411,12,1,1,1,2,1,NA,NA
"3213",411,13,1,1,1,4,1,NA,NA
"3214",411,14,1,1,1,4,1,NA,NA
"3215",411,15,1,1,1,4,1,NA,NA
"3216",411,16,1,1,1,4,1,NA,NA
"3217",411,17,1,1,1,4,1,NA,NA
"3218",411,18,1,1,1,4,1,NA,NA
"3219",411,19,1,1,1,2,1,NA,NA
"3220",411,20,1,1,1,2,1,NA,NA
"3221",416,1,1,1,1,4,1,NA,NA
"3222",416,2,1,1,1,2,1,NA,NA
"3223",416,3,1,1,1,4,1,NA,NA
"3224",416,4,1,1,1,2,1,NA,NA
"3225",416,5,1,1,1,2,1,NA,NA
"3226",416,6,1,1,1,3,1,NA,NA
"3227",416,7,1,1,1,3,1,NA,NA
"3228",416,8,1,1,1,3,1,NA,NA
"3229",416,9,1,1,1,3,1,NA,NA
"3230",416,10,1,1,1,3,1,NA,NA
"3231",416,21,1,1,1,3,0,NA,NA
"3232",416,22,1,1,1,4,0,NA,NA
"3233",416,23,1,1,1,2,0,NA,NA
"3234",416,24,1,1,1,3,0,NA,NA
"3235",416,25,1,1,1,4,0,NA,NA
"3236",416,26,1,1,1,2,0,NA,NA
"3237",416,27,1,1,1,2,0,NA,NA
"3238",416,28,1,1,1,3,0,NA,NA
"3239",416,29,1,1,1,4,0,NA,NA
"3240",416,30,1,1,1,4,0,NA,NA
"3241",417,11,1,1,1,4,0,NA,NA
"3242",417,12,1,1,1,4,0,NA,NA
"3243",417,13,1,1,1,2,0,NA,NA
"3244",417,14,1,1,1,2,0,NA,NA
"3245",417,15,1,1,1,5,0,NA,NA
"3246",417,16,1,1,1,4,0,NA,NA
"3247",417,17,1,1,1,4,0,NA,NA
"3248",417,18,1,1,1,4,0,NA,NA
"3249",417,19,1,1,1,4,0,NA,NA
"3250",417,20,1,1,1,2,0,NA,NA
"3251",417,21,1,1,1,4,1,NA,NA
"3252",417,22,1,1,1,4,1,NA,NA
"3253",417,23,1,1,1,4,1,NA,NA
"3254",417,24,1,1,1,2,1,NA,NA
"3255",417,25,1,1,1,4,1,NA,NA
"3256",417,26,1,1,1,1,1,NA,NA
"3257",417,27,1,1,1,4,1,NA,NA
"3258",417,28,1,1,1,2,1,NA,NA
"3259",417,29,1,1,1,4,1,NA,NA
"3260",417,30,1,1,1,5,1,NA,NA
"3261",419,1,1,1,1,4,1,NA,NA
"3262",419,2,1,1,1,3,1,NA,NA
"3263",419,3,1,1,1,4,1,NA,NA
"3264",419,4,1,1,1,3,1,NA,NA
"3265",419,5,1,1,1,5,1,NA,NA
"3266",419,6,1,1,1,4,1,NA,NA
"3267",419,7,1,1,1,4,1,NA,NA
"3268",419,8,1,1,1,2,1,NA,NA
"3269",419,9,1,1,1,4,1,NA,NA
"3270",419,10,1,1,1,1,1,NA,NA
"3271",419,11,1,1,1,4,0,NA,NA
"3272",419,12,1,1,1,3,0,NA,NA
"3273",419,13,1,1,1,5,0,NA,NA
"3274",419,14,1,1,1,4,0,NA,NA
"3275",419,15,1,1,1,3,0,NA,NA
"3276",419,16,1,1,1,4,0,NA,NA
"3277",419,17,1,1,1,4,0,NA,NA
"3278",419,18,1,1,1,5,0,NA,NA
"3279",419,19,1,1,1,3,0,NA,NA
"3280",419,20,1,1,1,1,0,NA,NA
"3281",420,1,1,1,1,4,0,NA,NA
"3282",420,2,1,1,1,2,0,NA,NA
"3283",420,3,1,1,1,2,0,NA,NA
"3284",420,4,1,1,1,3,0,NA,NA
"3285",420,5,1,1,1,4,0,NA,NA
"3286",420,6,1,1,1,3,0,NA,NA
"3287",420,7,1,1,1,4,0,NA,NA
"3288",420,8,1,1,1,2,0,NA,NA
"3289",420,9,1,1,1,2,0,NA,NA
"3290",420,10,1,1,1,3,0,NA,NA
"3291",420,21,1,1,1,3,1,NA,NA
"3292",420,22,1,1,1,3,1,NA,NA
"3293",420,23,1,1,1,3,1,NA,NA
"3294",420,24,1,1,1,2,1,NA,NA
"3295",420,25,1,1,1,3,1,NA,NA
"3296",420,26,1,1,1,4,1,NA,NA
"3297",420,27,1,1,1,3,1,NA,NA
"3298",420,28,1,1,1,3,1,NA,NA
"3299",420,29,1,1,1,3,1,NA,NA
"3300",420,30,1,1,1,4,1,NA,NA
"3301",423,11,1,1,1,3,1,NA,NA
"3302",423,12,1,1,1,3,1,NA,NA
"3303",423,13,1,1,1,2,1,NA,NA
"3304",423,14,1,1,1,3,1,NA,NA
"3305",423,15,1,1,1,3,1,NA,NA
"3306",423,16,1,1,1,5,1,NA,NA
"3307",423,17,1,1,1,3,1,NA,NA
"3308",423,18,1,1,1,2,1,NA,NA
"3309",423,19,1,1,1,3,1,NA,NA
"3310",423,20,1,1,1,3,1,NA,NA
"3311",423,21,1,1,1,3,0,NA,NA
"3312",423,22,1,1,1,2,0,NA,NA
"3313",423,23,1,1,1,3,0,NA,NA
"3314",423,24,1,1,1,3,0,NA,NA
"3315",423,25,1,1,1,3,0,NA,NA
"3316",423,26,1,1,1,3,0,NA,NA
"3317",423,27,1,1,1,4,0,NA,NA
"3318",423,28,1,1,1,3,0,NA,NA
"3319",423,29,1,1,1,4,0,NA,NA
"3320",423,30,1,1,1,3,0,NA,NA
"3321",424,1,1,1,1,4,0,NA,NA
"3322",424,2,1,1,1,4,0,NA,NA
"3323",424,3,1,1,1,4,0,NA,NA
"3324",424,4,1,1,1,3,0,NA,NA
"3325",424,5,1,1,1,4,0,NA,NA
"3326",424,6,1,1,1,3,0,NA,NA
"3327",424,7,1,1,1,3,0,NA,NA
"3328",424,8,1,1,1,3,0,NA,NA
"3329",424,9,1,1,1,3,0,NA,NA
"3330",424,10,1,1,1,4,0,NA,NA
"3331",424,11,1,1,1,3,1,NA,NA
"3332",424,12,1,1,1,3,1,NA,NA
"3333",424,13,1,1,1,4,1,NA,NA
"3334",424,14,1,1,1,3,1,NA,NA
"3335",424,15,1,1,1,2,1,NA,NA
"3336",424,16,1,1,1,4,1,NA,NA
"3337",424,17,1,1,1,4,1,NA,NA
"3338",424,18,1,1,1,2,1,NA,NA
"3339",424,19,1,1,1,3,1,NA,NA
"3340",424,20,1,1,1,2,1,NA,NA
"3341",427,11,1,1,1,4,1,NA,NA
"3342",427,12,1,1,1,4,1,NA,NA
"3343",427,13,1,1,1,4,1,NA,NA
"3344",427,14,1,1,1,3,1,NA,NA
"3345",427,15,1,1,1,1,1,NA,NA
"3346",427,16,1,1,1,5,1,NA,NA
"3347",427,17,1,1,1,5,1,NA,NA
"3348",427,18,1,1,1,2,1,NA,NA
"3349",427,19,1,1,1,4,1,NA,NA
"3350",427,20,1,1,1,3,1,NA,NA
"3351",427,21,1,1,1,3,0,NA,NA
"3352",427,22,1,1,1,5,0,NA,NA
"3353",427,23,1,1,1,3,0,NA,NA
"3354",427,24,1,1,1,4,0,NA,NA
"3355",427,25,1,1,1,3,0,NA,NA
"3356",427,26,1,1,1,1,0,NA,NA
"3357",427,27,1,1,1,4,0,NA,NA
"3358",427,28,1,1,1,3,0,NA,NA
"3359",427,29,1,1,1,4,0,NA,NA
"3360",427,30,1,1,1,5,0,NA,NA
"3361",433,1,1,1,1,5,1,NA,NA
"3362",433,2,1,1,1,5,1,NA,NA
"3363",433,3,1,1,1,5,1,NA,NA
"3364",433,4,1,1,1,5,1,NA,NA
"3365",433,5,1,1,1,5,1,NA,NA
"3366",433,6,1,1,1,4,1,NA,NA
"3367",433,7,1,1,1,5,1,NA,NA
"3368",433,8,1,1,1,5,1,NA,NA
"3369",433,9,1,1,1,5,1,NA,NA
"3370",433,10,1,1,1,5,1,NA,NA
"3371",433,11,1,1,1,1,0,NA,NA
"3372",433,12,1,1,1,3,0,NA,NA
"3373",433,13,1,1,1,3,0,NA,NA
"3374",433,14,1,1,1,3,0,NA,NA
"3375",433,15,1,1,1,2,0,NA,NA
"3376",433,16,1,1,1,3,0,NA,NA
"3377",433,17,1,1,1,3,0,NA,NA
"3378",433,18,1,1,1,3,0,NA,NA
"3379",433,19,1,1,1,3,0,NA,NA
"3380",433,20,1,1,1,4,0,NA,NA
"3381",438,1,1,1,1,5,0,NA,NA
"3382",438,2,1,1,1,5,0,NA,NA
"3383",438,3,1,1,1,2,0,NA,NA
"3384",438,4,1,1,1,4,0,NA,NA
"3385",438,5,1,1,1,4,0,NA,NA
"3386",438,6,1,1,1,3,0,NA,NA
"3387",438,7,1,1,1,4,0,NA,NA
"3388",438,8,1,1,1,4,0,NA,NA
"3389",438,9,1,1,1,1,0,NA,NA
"3390",438,10,1,1,1,3,0,NA,NA
"3391",438,11,1,1,1,2,1,NA,NA
"3392",438,12,1,1,1,4,1,NA,NA
"3393",438,13,1,1,1,2,1,NA,NA
"3394",438,14,1,1,1,3,1,NA,NA
"3395",438,15,1,1,1,3,1,NA,NA
"3396",438,16,1,1,1,4,1,NA,NA
"3397",438,17,1,1,1,3,1,NA,NA
