"","subject","presentation_identifier","statement_identifier","within_identifier","rt","response","repeated","trial"
"1",1001,1,"ACT_1",1,NA,1,1,NA
"2",1001,1,"ACT_2",1,NA,1,1,NA
"3",1001,1,"ACT_3",1,NA,1,1,NA
"4",1001,1,"ACT_4",1,NA,1,1,NA
"5",1001,1,"ACT_5",1,NA,1,1,NA
"6",1001,1,"ACT_6",1,NA,1,1,NA
"7",1001,1,"ACT_7",1,NA,1,1,NA
"8",1001,1,"ACT_8",1,NA,1,1,NA
"9",1001,1,"ACT_9",1,NA,0,1,NA
"10",1001,1,"ACT_10",1,NA,1,1,NA
"11",1001,1,"ACT_11",1,NA,1,1,NA
"12",1001,1,"ACT_12",1,NA,1,1,NA
"13",1001,1,"ACT_13",1,NA,1,1,NA
"14",1001,1,"ACT_14",1,NA,1,1,NA
"15",1001,1,"ACT_15",1,NA,1,1,NA
"16",1001,1,"ACT_16",1,NA,0,1,NA
"17",1001,1,"ACT_17",1,NA,1,1,NA
"18",1001,1,"ACT_18",1,NA,1,1,NA
"19",1001,1,"ACT_19",1,NA,1,1,NA
"20",1001,1,"ACT_20",1,NA,1,1,NA
"21",1001,1,"AIT_21",1,NA,1,1,NA
"22",1001,1,"AIT_22",1,NA,1,1,NA
"23",1001,1,"AIT_23",1,NA,0,1,NA
"24",1001,1,"AIT_24",1,NA,0,1,NA
"25",1001,1,"AIT_25",1,NA,1,1,NA
"26",1001,1,"AIT_26",1,NA,0,1,NA
"27",1001,1,"AIT_27",1,NA,0,1,NA
"28",1001,1,"AIT_28",1,NA,0,1,NA
"29",1001,1,"AIT_29",1,NA,0,1,NA
"30",1001,1,"AIT_30",1,NA,0,1,NA
"31",1001,1,"AIT_31",1,NA,0,1,NA
"32",1001,1,"AIT_32",1,NA,0,1,NA
"33",1001,1,"AIT_33",1,NA,0,1,NA
"34",1001,1,"AIT_34",1,NA,0,1,NA
"35",1001,1,"AIT_35",1,NA,0,1,NA
"36",1001,1,"AIT_36",1,NA,0,1,NA
"37",1001,1,"AIT_37",1,NA,0,1,NA
"38",1001,1,"AIT_38",1,NA,0,1,NA
"39",1001,1,"AIT_39",1,NA,0,1,NA
"40",1001,1,"AIT_40",1,NA,0,1,NA
"41",1001,1,"BCT_1",1,NA,1,0,NA
"42",1001,1,"BCT_2",1,NA,1,0,NA
"43",1001,1,"BCT_3",1,NA,1,0,NA
"44",1001,1,"BCT_4",1,NA,1,0,NA
"45",1001,1,"BCT_5",1,NA,1,0,NA
"46",1001,1,"BCT_6",1,NA,0,0,NA
"47",1001,1,"BCT_7",1,NA,1,0,NA
"48",1001,1,"BCT_8",1,NA,1,0,NA
"49",1001,1,"BCT_9",1,NA,1,0,NA
"50",1001,1,"BCT_10",1,NA,1,0,NA
"51",1001,1,"BCT_11",1,NA,1,0,NA
"52",1001,1,"BCT_12",1,NA,1,0,NA
"53",1001,1,"BCT_13",1,NA,1,0,NA
"54",1001,1,"BCT_14",1,NA,1,0,NA
"55",1001,1,"BCT_15",1,NA,1,0,NA
"56",1001,1,"BCT_16",1,NA,1,0,NA
"57",1001,1,"BCT_17",1,NA,1,0,NA
"58",1001,1,"BCT_18",1,NA,1,0,NA
"59",1001,1,"BCT_19",1,NA,0,0,NA
"60",1001,1,"BCT_20",1,NA,0,0,NA
"61",1001,1,"BIT_21",1,NA,1,0,NA
"62",1001,1,"BIT_22",1,NA,0,0,NA
"63",1001,1,"BIT_23",1,NA,1,0,NA
"64",1001,1,"BIT_24",1,NA,1,0,NA
"65",1001,1,"BIT_25",1,NA,1,0,NA
"66",1001,1,"BIT_26",1,NA,0,0,NA
"67",1001,1,"BIT_27",1,NA,1,0,NA
"68",1001,1,"BIT_28",1,NA,0,0,NA
"69",1001,1,"BIT_29",1,NA,1,0,NA
"70",1001,1,"BIT_30",1,NA,0,0,NA
"71",1001,1,"BIT_31",1,NA,0,0,NA
"72",1001,1,"BIT_32",1,NA,0,0,NA
"73",1001,1,"BIT_33",1,NA,1,0,NA
"74",1001,1,"BIT_34",1,NA,0,0,NA
"75",1001,1,"BIT_35",1,NA,0,0,NA
"76",1001,1,"BIT_36",1,NA,0,0,NA
"77",1001,1,"BIT_37",1,NA,0,0,NA
"78",1001,1,"BIT_38",1,NA,0,0,NA
"79",1001,1,"BIT_39",1,NA,0,0,NA
"80",1001,1,"BIT_40",1,NA,0,0,NA
"81",1002,1,"ACT_1",1,NA,1,1,NA
"82",1002,1,"ACT_2",1,NA,1,1,NA
"83",1002,1,"ACT_3",1,NA,1,1,NA
"84",1002,1,"ACT_4",1,NA,1,1,NA
"85",1002,1,"ACT_5",1,NA,1,1,NA
"86",1002,1,"ACT_6",1,NA,1,1,NA
"87",1002,1,"ACT_7",1,NA,1,1,NA
"88",1002,1,"ACT_8",1,NA,0,1,NA
"89",1002,1,"ACT_9",1,NA,1,1,NA
"90",1002,1,"ACT_10",1,NA,0,1,NA
"91",1002,1,"ACT_11",1,NA,0,1,NA
"92",1002,1,"ACT_12",1,NA,1,1,NA
"93",1002,1,"ACT_13",1,NA,1,1,NA
"94",1002,1,"ACT_14",1,NA,0,1,NA
"95",1002,1,"ACT_15",1,NA,0,1,NA
"96",1002,1,"ACT_16",1,NA,0,1,NA
"97",1002,1,"ACT_17",1,NA,1,1,NA
"98",1002,1,"ACT_18",1,NA,1,1,NA
"99",1002,1,"ACT_19",1,NA,0,1,NA
"100",1002,1,"ACT_20",1,NA,0,1,NA
"101",1002,1,"AIT_21",1,NA,1,1,NA
"102",1002,1,"AIT_22",1,NA,1,1,NA
"103",1002,1,"AIT_23",1,NA,0,1,NA
"104",1002,1,"AIT_24",1,NA,1,1,NA
"105",1002,1,"AIT_25",1,NA,0,1,NA
"106",1002,1,"AIT_26",1,NA,0,1,NA
"107",1002,1,"AIT_27",1,NA,0,1,NA
"108",1002,1,"AIT_28",1,NA,1,1,NA
"109",1002,1,"AIT_29",1,NA,0,1,NA
"110",1002,1,"AIT_30",1,NA,0,1,NA
"111",1002,1,"AIT_31",1,NA,0,1,NA
"112",1002,1,"AIT_32",1,NA,0,1,NA
"113",1002,1,"AIT_33",1,NA,0,1,NA
"114",1002,1,"AIT_34",1,NA,0,1,NA
"115",1002,1,"AIT_35",1,NA,0,1,NA
"116",1002,1,"AIT_36",1,NA,0,1,NA
"117",1002,1,"AIT_37",1,NA,0,1,NA
"118",1002,1,"AIT_38",1,NA,0,1,NA
"119",1002,1,"AIT_39",1,NA,0,1,NA
"120",1002,1,"AIT_40",1,NA,0,1,NA
"121",1002,1,"BCT_1",1,NA,1,0,NA
"122",1002,1,"BCT_2",1,NA,1,0,NA
"123",1002,1,"BCT_3",1,NA,1,0,NA
"124",1002,1,"BCT_4",1,NA,1,0,NA
"125",1002,1,"BCT_5",1,NA,1,0,NA
"126",1002,1,"BCT_6",1,NA,1,0,NA
"127",1002,1,"BCT_7",1,NA,1,0,NA
"128",1002,1,"BCT_8",1,NA,0,0,NA
"129",1002,1,"BCT_9",1,NA,0,0,NA
"130",1002,1,"BCT_10",1,NA,1,0,NA
"131",1002,1,"BCT_11",1,NA,0,0,NA
"132",1002,1,"BCT_12",1,NA,0,0,NA
"133",1002,1,"BCT_13",1,NA,0,0,NA
"134",1002,1,"BCT_14",1,NA,0,0,NA
"135",1002,1,"BCT_15",1,NA,0,0,NA
"136",1002,1,"BCT_16",1,NA,0,0,NA
"137",1002,1,"BCT_17",1,NA,0,0,NA
"138",1002,1,"BCT_18",1,NA,0,0,NA
"139",1002,1,"BCT_19",1,NA,0,0,NA
"140",1002,1,"BCT_20",1,NA,0,0,NA
"141",1002,1,"BIT_21",1,NA,0,0,NA
"142",1002,1,"BIT_22",1,NA,0,0,NA
"143",1002,1,"BIT_23",1,NA,0,0,NA
"144",1002,1,"BIT_24",1,NA,0,0,NA
"145",1002,1,"BIT_25",1,NA,0,0,NA
"146",1002,1,"BIT_26",1,NA,1,0,NA
"147",1002,1,"BIT_27",1,NA,0,0,NA
"148",1002,1,"BIT_28",1,NA,0,0,NA
"149",1002,1,"BIT_29",1,NA,0,0,NA
"150",1002,1,"BIT_30",1,NA,0,0,NA
"151",1002,1,"BIT_31",1,NA,0,0,NA
"152",1002,1,"BIT_32",1,NA,0,0,NA
"153",1002,1,"BIT_33",1,NA,1,0,NA
"154",1002,1,"BIT_34",1,NA,0,0,NA
"155",1002,1,"BIT_35",1,NA,0,0,NA
"156",1002,1,"BIT_36",1,NA,1,0,NA
"157",1002,1,"BIT_37",1,NA,0,0,NA
"158",1002,1,"BIT_38",1,NA,0,0,NA
"159",1002,1,"BIT_39",1,NA,0,0,NA
"160",1002,1,"BIT_40",1,NA,0,0,NA
"161",1003,1,"ACT_1",1,NA,1,1,NA
"162",1003,1,"ACT_2",1,NA,1,1,NA
"163",1003,1,"ACT_3",1,NA,1,1,NA
"164",1003,1,"ACT_4",1,NA,1,1,NA
"165",1003,1,"ACT_5",1,NA,1,1,NA
"166",1003,1,"ACT_6",1,NA,1,1,NA
"167",1003,1,"ACT_7",1,NA,1,1,NA
"168",1003,1,"ACT_8",1,NA,1,1,NA
"169",1003,1,"ACT_9",1,NA,1,1,NA
"170",1003,1,"ACT_10",1,NA,1,1,NA
"171",1003,1,"ACT_11",1,NA,1,1,NA
"172",1003,1,"ACT_12",1,NA,1,1,NA
"173",1003,1,"ACT_13",1,NA,1,1,NA
"174",1003,1,"ACT_14",1,NA,1,1,NA
"175",1003,1,"ACT_15",1,NA,1,1,NA
"176",1003,1,"ACT_16",1,NA,1,1,NA
"177",1003,1,"ACT_17",1,NA,1,1,NA
"178",1003,1,"ACT_18",1,NA,1,1,NA
"179",1003,1,"ACT_19",1,NA,0,1,NA
"180",1003,1,"ACT_20",1,NA,1,1,NA
"181",1003,1,"AIT_21",1,NA,0,1,NA
"182",1003,1,"AIT_22",1,NA,0,1,NA
"183",1003,1,"AIT_23",1,NA,0,1,NA
"184",1003,1,"AIT_24",1,NA,1,1,NA
"185",1003,1,"AIT_25",1,NA,1,1,NA
"186",1003,1,"AIT_26",1,NA,0,1,NA
"187",1003,1,"AIT_27",1,NA,0,1,NA
"188",1003,1,"AIT_28",1,NA,1,1,NA
"189",1003,1,"AIT_29",1,NA,0,1,NA
"190",1003,1,"AIT_30",1,NA,0,1,NA
"191",1003,1,"AIT_31",1,NA,0,1,NA
"192",1003,1,"AIT_32",1,NA,0,1,NA
"193",1003,1,"AIT_33",1,NA,0,1,NA
"194",1003,1,"AIT_34",1,NA,0,1,NA
"195",1003,1,"AIT_35",1,NA,0,1,NA
"196",1003,1,"AIT_36",1,NA,0,1,NA
"197",1003,1,"AIT_37",1,NA,0,1,NA
"198",1003,1,"AIT_38",1,NA,0,1,NA
"199",1003,1,"AIT_39",1,NA,0,1,NA
"200",1003,1,"AIT_40",1,NA,0,1,NA
"201",1003,1,"BCT_1",1,NA,1,0,NA
"202",1003,1,"BCT_2",1,NA,1,0,NA
"203",1003,1,"BCT_3",1,NA,1,0,NA
"204",1003,1,"BCT_4",1,NA,1,0,NA
"205",1003,1,"BCT_5",1,NA,1,0,NA
"206",1003,1,"BCT_6",1,NA,1,0,NA
"207",1003,1,"BCT_7",1,NA,1,0,NA
"208",1003,1,"BCT_8",1,NA,1,0,NA
"209",1003,1,"BCT_9",1,NA,1,0,NA
"210",1003,1,"BCT_10",1,NA,1,0,NA
"211",1003,1,"BCT_11",1,NA,1,0,NA
"212",1003,1,"BCT_12",1,NA,1,0,NA
"213",1003,1,"BCT_13",1,NA,1,0,NA
"214",1003,1,"BCT_14",1,NA,1,0,NA
"215",1003,1,"BCT_15",1,NA,1,0,NA
"216",1003,1,"BCT_16",1,NA,1,0,NA
"217",1003,1,"BCT_17",1,NA,1,0,NA
"218",1003,1,"BCT_18",1,NA,1,0,NA
"219",1003,1,"BCT_19",1,NA,1,0,NA
"220",1003,1,"BCT_20",1,NA,1,0,NA
"221",1003,1,"BIT_21",1,NA,1,0,NA
"222",1003,1,"BIT_22",1,NA,1,0,NA
"223",1003,1,"BIT_23",1,NA,1,0,NA
"224",1003,1,"BIT_24",1,NA,0,0,NA
"225",1003,1,"BIT_25",1,NA,0,0,NA
"226",1003,1,"BIT_26",1,NA,0,0,NA
"227",1003,1,"BIT_27",1,NA,0,0,NA
"228",1003,1,"BIT_28",1,NA,0,0,NA
"229",1003,1,"BIT_29",1,NA,0,0,NA
"230",1003,1,"BIT_30",1,NA,0,0,NA
"231",1003,1,"BIT_31",1,NA,1,0,NA
"232",1003,1,"BIT_32",1,NA,0,0,NA
"233",1003,1,"BIT_33",1,NA,0,0,NA
"234",1003,1,"BIT_34",1,NA,0,0,NA
"235",1003,1,"BIT_35",1,NA,0,0,NA
"236",1003,1,"BIT_36",1,NA,0,0,NA
"237",1003,1,"BIT_37",1,NA,0,0,NA
"238",1003,1,"BIT_38",1,NA,0,0,NA
"239",1003,1,"BIT_39",1,NA,0,0,NA
"240",1003,1,"BIT_40",1,NA,0,0,NA
"241",1004,1,"ACT_1",1,NA,1,1,NA
"242",1004,1,"ACT_2",1,NA,1,1,NA
"243",1004,1,"ACT_3",1,NA,1,1,NA
"244",1004,1,"ACT_4",1,NA,0,1,NA
"245",1004,1,"ACT_5",1,NA,0,1,NA
"246",1004,1,"ACT_6",1,NA,1,1,NA
"247",1004,1,"ACT_7",1,NA,0,1,NA
"248",1004,1,"ACT_8",1,NA,1,1,NA
"249",1004,1,"ACT_9",1,NA,1,1,NA
"250",1004,1,"ACT_10",1,NA,1,1,NA
"251",1004,1,"ACT_11",1,NA,1,1,NA
"252",1004,1,"ACT_12",1,NA,0,1,NA
"253",1004,1,"ACT_13",1,NA,0,1,NA
"254",1004,1,"ACT_14",1,NA,0,1,NA
"255",1004,1,"ACT_15",1,NA,0,1,NA
"256",1004,1,"ACT_16",1,NA,0,1,NA
"257",1004,1,"ACT_17",1,NA,0,1,NA
"258",1004,1,"ACT_18",1,NA,0,1,NA
"259",1004,1,"ACT_19",1,NA,1,1,NA
"260",1004,1,"ACT_20",1,NA,0,1,NA
"261",1004,1,"AIT_21",1,NA,0,1,NA
"262",1004,1,"AIT_22",1,NA,1,1,NA
"263",1004,1,"AIT_23",1,NA,1,1,NA
"264",1004,1,"AIT_24",1,NA,1,1,NA
"265",1004,1,"AIT_25",1,NA,0,1,NA
"266",1004,1,"AIT_26",1,NA,1,1,NA
"267",1004,1,"AIT_27",1,NA,0,1,NA
"268",1004,1,"AIT_28",1,NA,0,1,NA
"269",1004,1,"AIT_29",1,NA,0,1,NA
"270",1004,1,"AIT_30",1,NA,1,1,NA
"271",1004,1,"AIT_31",1,NA,0,1,NA
"272",1004,1,"AIT_32",1,NA,0,1,NA
"273",1004,1,"AIT_33",1,NA,1,1,NA
"274",1004,1,"AIT_34",1,NA,0,1,NA
"275",1004,1,"AIT_35",1,NA,0,1,NA
"276",1004,1,"AIT_36",1,NA,0,1,NA
"277",1004,1,"AIT_37",1,NA,0,1,NA
"278",1004,1,"AIT_38",1,NA,0,1,NA
"279",1004,1,"AIT_39",1,NA,0,1,NA
"280",1004,1,"AIT_40",1,NA,0,1,NA
"281",1004,1,"BCT_1",1,NA,1,0,NA
"282",1004,1,"BCT_2",1,NA,0,0,NA
"283",1004,1,"BCT_3",1,NA,0,0,NA
"284",1004,1,"BCT_4",1,NA,1,0,NA
"285",1004,1,"BCT_5",1,NA,1,0,NA
"286",1004,1,"BCT_6",1,NA,0,0,NA
"287",1004,1,"BCT_7",1,NA,0,0,NA
"288",1004,1,"BCT_8",1,NA,1,0,NA
"289",1004,1,"BCT_9",1,NA,1,0,NA
"290",1004,1,"BCT_10",1,NA,1,0,NA
"291",1004,1,"BCT_11",1,NA,1,0,NA
"292",1004,1,"BCT_12",1,NA,0,0,NA
"293",1004,1,"BCT_13",1,NA,0,0,NA
"294",1004,1,"BCT_14",1,NA,0,0,NA
"295",1004,1,"BCT_15",1,NA,1,0,NA
"296",1004,1,"BCT_16",1,NA,0,0,NA
"297",1004,1,"BCT_17",1,NA,1,0,NA
"298",1004,1,"BCT_18",1,NA,1,0,NA
"299",1004,1,"BCT_19",1,NA,1,0,NA
"300",1004,1,"BCT_20",1,NA,0,0,NA
"301",1004,1,"BIT_21",1,NA,0,0,NA
"302",1004,1,"BIT_22",1,NA,0,0,NA
"303",1004,1,"BIT_23",1,NA,0,0,NA
"304",1004,1,"BIT_24",1,NA,0,0,NA
"305",1004,1,"BIT_25",1,NA,0,0,NA
"306",1004,1,"BIT_26",1,NA,0,0,NA
"307",1004,1,"BIT_27",1,NA,0,0,NA
"308",1004,1,"BIT_28",1,NA,0,0,NA
"309",1004,1,"BIT_29",1,NA,0,0,NA
"310",1004,1,"BIT_30",1,NA,0,0,NA
"311",1004,1,"BIT_31",1,NA,0,0,NA
"312",1004,1,"BIT_32",1,NA,0,0,NA
"313",1004,1,"BIT_33",1,NA,0,0,NA
"314",1004,1,"BIT_34",1,NA,0,0,NA
"315",1004,1,"BIT_35",1,NA,0,0,NA
"316",1004,1,"BIT_36",1,NA,0,0,NA
"317",1004,1,"BIT_37",1,NA,0,0,NA
"318",1004,1,"BIT_38",1,NA,0,0,NA
"319",1004,1,"BIT_39",1,NA,0,0,NA
"320",1004,1,"BIT_40",1,NA,0,0,NA
"321",1005,1,"ACT_1",1,NA,1,1,NA
"322",1005,1,"ACT_2",1,NA,1,1,NA
"323",1005,1,"ACT_3",1,NA,1,1,NA
"324",1005,1,"ACT_4",1,NA,1,1,NA
"325",1005,1,"ACT_5",1,NA,1,1,NA
"326",1005,1,"ACT_6",1,NA,1,1,NA
"327",1005,1,"ACT_7",1,NA,1,1,NA
"328",1005,1,"ACT_8",1,NA,1,1,NA
"329",1005,1,"ACT_9",1,NA,1,1,NA
"330",1005,1,"ACT_10",1,NA,1,1,NA
"331",1005,1,"ACT_11",1,NA,1,1,NA
"332",1005,1,"ACT_12",1,NA,0,1,NA
"333",1005,1,"ACT_13",1,NA,1,1,NA
"334",1005,1,"ACT_14",1,NA,0,1,NA
"335",1005,1,"ACT_15",1,NA,0,1,NA
"336",1005,1,"ACT_16",1,NA,0,1,NA
"337",1005,1,"ACT_17",1,NA,1,1,NA
"338",1005,1,"ACT_18",1,NA,0,1,NA
"339",1005,1,"ACT_19",1,NA,0,1,NA
"340",1005,1,"ACT_20",1,NA,1,1,NA
"341",1005,1,"AIT_21",1,NA,0,1,NA
"342",1005,1,"AIT_22",1,NA,1,1,NA
"343",1005,1,"AIT_23",1,NA,0,1,NA
"344",1005,1,"AIT_24",1,NA,0,1,NA
"345",1005,1,"AIT_25",1,NA,0,1,NA
"346",1005,1,"AIT_26",1,NA,0,1,NA
"347",1005,1,"AIT_27",1,NA,0,1,NA
"348",1005,1,"AIT_28",1,NA,1,1,NA
"349",1005,1,"AIT_29",1,NA,0,1,NA
"350",1005,1,"AIT_30",1,NA,0,1,NA
"351",1005,1,"AIT_31",1,NA,0,1,NA
"352",1005,1,"AIT_32",1,NA,0,1,NA
"353",1005,1,"AIT_33",1,NA,0,1,NA
"354",1005,1,"AIT_34",1,NA,1,1,NA
"355",1005,1,"AIT_35",1,NA,0,1,NA
"356",1005,1,"AIT_36",1,NA,0,1,NA
"357",1005,1,"AIT_37",1,NA,0,1,NA
"358",1005,1,"AIT_38",1,NA,0,1,NA
"359",1005,1,"AIT_39",1,NA,0,1,NA
"360",1005,1,"AIT_40",1,NA,0,1,NA
"361",1005,1,"BCT_1",1,NA,1,0,NA
"362",1005,1,"BCT_2",1,NA,1,0,NA
"363",1005,1,"BCT_3",1,NA,1,0,NA
"364",1005,1,"BCT_4",1,NA,1,0,NA
"365",1005,1,"BCT_5",1,NA,1,0,NA
"366",1005,1,"BCT_6",1,NA,1,0,NA
"367",1005,1,"BCT_7",1,NA,1,0,NA
"368",1005,1,"BCT_8",1,NA,1,0,NA
"369",1005,1,"BCT_9",1,NA,1,0,NA
"370",1005,1,"BCT_10",1,NA,1,0,NA
"371",1005,1,"BCT_11",1,NA,0,0,NA
"372",1005,1,"BCT_12",1,NA,0,0,NA
"373",1005,1,"BCT_13",1,NA,1,0,NA
"374",1005,1,"BCT_14",1,NA,0,0,NA
"375",1005,1,"BCT_15",1,NA,1,0,NA
"376",1005,1,"BCT_16",1,NA,0,0,NA
"377",1005,1,"BCT_17",1,NA,1,0,NA
"378",1005,1,"BCT_18",1,NA,0,0,NA
"379",1005,1,"BCT_19",1,NA,1,0,NA
"380",1005,1,"BCT_20",1,NA,0,0,NA
"381",1005,1,"BIT_21",1,NA,1,0,NA
"382",1005,1,"BIT_22",1,NA,1,0,NA
"383",1005,1,"BIT_23",1,NA,0,0,NA
"384",1005,1,"BIT_24",1,NA,0,0,NA
"385",1005,1,"BIT_25",1,NA,1,0,NA
"386",1005,1,"BIT_26",1,NA,0,0,NA
"387",1005,1,"BIT_27",1,NA,0,0,NA
"388",1005,1,"BIT_28",1,NA,1,0,NA
"389",1005,1,"BIT_29",1,NA,0,0,NA
"390",1005,1,"BIT_30",1,NA,0,0,NA
"391",1005,1,"BIT_31",1,NA,0,0,NA
"392",1005,1,"BIT_32",1,NA,0,0,NA
"393",1005,1,"BIT_33",1,NA,0,0,NA
"394",1005,1,"BIT_34",1,NA,0,0,NA
"395",1005,1,"BIT_35",1,NA,0,0,NA
"396",1005,1,"BIT_36",1,NA,0,0,NA
"397",1005,1,"BIT_37",1,NA,0,0,NA
"398",1005,1,"BIT_38",1,NA,0,0,NA
"399",1005,1,"BIT_39",1,NA,0,0,NA
"400",1005,1,"BIT_40",1,NA,0,0,NA
"401",1006,1,"ACT_1",1,NA,1,1,NA
"402",1006,1,"ACT_2",1,NA,1,1,NA
"403",1006,1,"ACT_3",1,NA,1,1,NA
"404",1006,1,"ACT_4",1,NA,1,1,NA
"405",1006,1,"ACT_5",1,NA,1,1,NA
"406",1006,1,"ACT_6",1,NA,1,1,NA
"407",1006,1,"ACT_7",1,NA,1,1,NA
"408",1006,1,"ACT_8",1,NA,1,1,NA
"409",1006,1,"ACT_9",1,NA,1,1,NA
"410",1006,1,"ACT_10",1,NA,1,1,NA
"411",1006,1,"ACT_11",1,NA,1,1,NA
"412",1006,1,"ACT_12",1,NA,0,1,NA
"413",1006,1,"ACT_13",1,NA,1,1,NA
"414",1006,1,"ACT_14",1,NA,0,1,NA
"415",1006,1,"ACT_15",1,NA,0,1,NA
"416",1006,1,"ACT_16",1,NA,0,1,NA
"417",1006,1,"ACT_17",1,NA,1,1,NA
"418",1006,1,"ACT_18",1,NA,0,1,NA
"419",1006,1,"ACT_19",1,NA,1,1,NA
"420",1006,1,"ACT_20",1,NA,0,1,NA
"421",1006,1,"AIT_21",1,NA,1,1,NA
"422",1006,1,"AIT_22",1,NA,1,1,NA
"423",1006,1,"AIT_23",1,NA,1,1,NA
"424",1006,1,"AIT_24",1,NA,0,1,NA
"425",1006,1,"AIT_25",1,NA,0,1,NA
"426",1006,1,"AIT_26",1,NA,0,1,NA
"427",1006,1,"AIT_27",1,NA,1,1,NA
"428",1006,1,"AIT_28",1,NA,1,1,NA
"429",1006,1,"AIT_29",1,NA,0,1,NA
"430",1006,1,"AIT_30",1,NA,1,1,NA
"431",1006,1,"AIT_31",1,NA,1,1,NA
"432",1006,1,"AIT_32",1,NA,0,1,NA
"433",1006,1,"AIT_33",1,NA,1,1,NA
"434",1006,1,"AIT_34",1,NA,0,1,NA
"435",1006,1,"AIT_35",1,NA,0,1,NA
"436",1006,1,"AIT_36",1,NA,0,1,NA
"437",1006,1,"AIT_37",1,NA,0,1,NA
"438",1006,1,"AIT_38",1,NA,0,1,NA
"439",1006,1,"AIT_39",1,NA,0,1,NA
"440",1006,1,"AIT_40",1,NA,0,1,NA
"441",1006,1,"BCT_1",1,NA,1,0,NA
"442",1006,1,"BCT_2",1,NA,1,0,NA
"443",1006,1,"BCT_3",1,NA,1,0,NA
"444",1006,1,"BCT_4",1,NA,1,0,NA
"445",1006,1,"BCT_5",1,NA,1,0,NA
"446",1006,1,"BCT_6",1,NA,1,0,NA
"447",1006,1,"BCT_7",1,NA,1,0,NA
"448",1006,1,"BCT_8",1,NA,1,0,NA
"449",1006,1,"BCT_9",1,NA,0,0,NA
"450",1006,1,"BCT_10",1,NA,1,0,NA
"451",1006,1,"BCT_11",1,NA,1,0,NA
"452",1006,1,"BCT_12",1,NA,0,0,NA
"453",1006,1,"BCT_13",1,NA,1,0,NA
"454",1006,1,"BCT_14",1,NA,1,0,NA
"455",1006,1,"BCT_15",1,NA,0,0,NA
"456",1006,1,"BCT_16",1,NA,0,0,NA
"457",1006,1,"BCT_17",1,NA,1,0,NA
"458",1006,1,"BCT_18",1,NA,0,0,NA
"459",1006,1,"BCT_19",1,NA,1,0,NA
"460",1006,1,"BCT_20",1,NA,0,0,NA
"461",1006,1,"BIT_21",1,NA,0,0,NA
"462",1006,1,"BIT_22",1,NA,0,0,NA
"463",1006,1,"BIT_23",1,NA,0,0,NA
"464",1006,1,"BIT_24",1,NA,1,0,NA
"465",1006,1,"BIT_25",1,NA,1,0,NA
"466",1006,1,"BIT_26",1,NA,0,0,NA
"467",1006,1,"BIT_27",1,NA,0,0,NA
"468",1006,1,"BIT_28",1,NA,0,0,NA
"469",1006,1,"BIT_29",1,NA,0,0,NA
"470",1006,1,"BIT_30",1,NA,0,0,NA
"471",1006,1,"BIT_31",1,NA,1,0,NA
"472",1006,1,"BIT_32",1,NA,0,0,NA
"473",1006,1,"BIT_33",1,NA,0,0,NA
"474",1006,1,"BIT_34",1,NA,0,0,NA
"475",1006,1,"BIT_35",1,NA,0,0,NA
"476",1006,1,"BIT_36",1,NA,0,0,NA
"477",1006,1,"BIT_37",1,NA,0,0,NA
"478",1006,1,"BIT_38",1,NA,0,0,NA
"479",1006,1,"BIT_39",1,NA,0,0,NA
"480",1006,1,"BIT_40",1,NA,0,0,NA
"481",1007,1,"ACT_1",1,NA,1,1,NA
"482",1007,1,"ACT_2",1,NA,1,1,NA
"483",1007,1,"ACT_3",1,NA,1,1,NA
"484",1007,1,"ACT_4",1,NA,1,1,NA
"485",1007,1,"ACT_5",1,NA,1,1,NA
"486",1007,1,"ACT_6",1,NA,1,1,NA
"487",1007,1,"ACT_7",1,NA,0,1,NA
"488",1007,1,"ACT_8",1,NA,0,1,NA
"489",1007,1,"ACT_9",1,NA,0,1,NA
"490",1007,1,"ACT_10",1,NA,1,1,NA
"491",1007,1,"ACT_11",1,NA,1,1,NA
"492",1007,1,"ACT_12",1,NA,0,1,NA
"493",1007,1,"ACT_13",1,NA,0,1,NA
"494",1007,1,"ACT_14",1,NA,0,1,NA
"495",1007,1,"ACT_15",1,NA,1,1,NA
"496",1007,1,"ACT_16",1,NA,0,1,NA
"497",1007,1,"ACT_17",1,NA,0,1,NA
"498",1007,1,"ACT_18",1,NA,1,1,NA
"499",1007,1,"ACT_19",1,NA,1,1,NA
"500",1007,1,"ACT_20",1,NA,1,1,NA
"501",1007,1,"AIT_21",1,NA,1,1,NA
"502",1007,1,"AIT_22",1,NA,1,1,NA
"503",1007,1,"AIT_23",1,NA,1,1,NA
"504",1007,1,"AIT_24",1,NA,0,1,NA
"505",1007,1,"AIT_25",1,NA,0,1,NA
"506",1007,1,"AIT_26",1,NA,0,1,NA
"507",1007,1,"AIT_27",1,NA,1,1,NA
"508",1007,1,"AIT_28",1,NA,1,1,NA
"509",1007,1,"AIT_29",1,NA,1,1,NA
"510",1007,1,"AIT_30",1,NA,0,1,NA
"511",1007,1,"AIT_31",1,NA,0,1,NA
"512",1007,1,"AIT_32",1,NA,0,1,NA
"513",1007,1,"AIT_33",1,NA,0,1,NA
"514",1007,1,"AIT_34",1,NA,0,1,NA
"515",1007,1,"AIT_35",1,NA,0,1,NA
"516",1007,1,"AIT_36",1,NA,0,1,NA
"517",1007,1,"AIT_37",1,NA,0,1,NA
"518",1007,1,"AIT_38",1,NA,0,1,NA
"519",1007,1,"AIT_39",1,NA,0,1,NA
"520",1007,1,"AIT_40",1,NA,0,1,NA
"521",1007,1,"BCT_1",1,NA,1,0,NA
"522",1007,1,"BCT_2",1,NA,0,0,NA
"523",1007,1,"BCT_3",1,NA,1,0,NA
"524",1007,1,"BCT_4",1,NA,1,0,NA
"525",1007,1,"BCT_5",1,NA,1,0,NA
"526",1007,1,"BCT_6",1,NA,1,0,NA
"527",1007,1,"BCT_7",1,NA,0,0,NA
"528",1007,1,"BCT_8",1,NA,0,0,NA
"529",1007,1,"BCT_9",1,NA,0,0,NA
"530",1007,1,"BCT_10",1,NA,1,0,NA
"531",1007,1,"BCT_11",1,NA,0,0,NA
"532",1007,1,"BCT_12",1,NA,0,0,NA
"533",1007,1,"BCT_13",1,NA,1,0,NA
"534",1007,1,"BCT_14",1,NA,1,0,NA
"535",1007,1,"BCT_15",1,NA,0,0,NA
"536",1007,1,"BCT_16",1,NA,0,0,NA
"537",1007,1,"BCT_17",1,NA,0,0,NA
"538",1007,1,"BCT_18",1,NA,0,0,NA
"539",1007,1,"BCT_19",1,NA,1,0,NA
"540",1007,1,"BCT_20",1,NA,0,0,NA
"541",1007,1,"BIT_21",1,NA,1,0,NA
"542",1007,1,"BIT_22",1,NA,0,0,NA
"543",1007,1,"BIT_23",1,NA,1,0,NA
"544",1007,1,"BIT_24",1,NA,0,0,NA
"545",1007,1,"BIT_25",1,NA,0,0,NA
"546",1007,1,"BIT_26",1,NA,0,0,NA
"547",1007,1,"BIT_27",1,NA,0,0,NA
"548",1007,1,"BIT_28",1,NA,0,0,NA
"549",1007,1,"BIT_29",1,NA,0,0,NA
"550",1007,1,"BIT_30",1,NA,0,0,NA
"551",1007,1,"BIT_31",1,NA,0,0,NA
"552",1007,1,"BIT_32",1,NA,1,0,NA
"553",1007,1,"BIT_33",1,NA,0,0,NA
"554",1007,1,"BIT_34",1,NA,0,0,NA
"555",1007,1,"BIT_35",1,NA,0,0,NA
"556",1007,1,"BIT_36",1,NA,0,0,NA
"557",1007,1,"BIT_37",1,NA,0,0,NA
"558",1007,1,"BIT_38",1,NA,0,0,NA
"559",1007,1,"BIT_39",1,NA,0,0,NA
"560",1007,1,"BIT_40",1,NA,0,0,NA
"561",1008,1,"ACT_1",1,NA,0,1,NA
"562",1008,1,"ACT_2",1,NA,0,1,NA
"563",1008,1,"ACT_3",1,NA,0,1,NA
"564",1008,1,"ACT_4",1,NA,0,1,NA
"565",1008,1,"ACT_5",1,NA,0,1,NA
"566",1008,1,"ACT_6",1,NA,0,1,NA
"567",1008,1,"ACT_7",1,NA,0,1,NA
"568",1008,1,"ACT_8",1,NA,0,1,NA
"569",1008,1,"ACT_9",1,NA,0,1,NA
"570",1008,1,"ACT_10",1,NA,0,1,NA
"571",1008,1,"ACT_11",1,NA,0,1,NA
"572",1008,1,"ACT_12",1,NA,0,1,NA
"573",1008,1,"ACT_13",1,NA,0,1,NA
"574",1008,1,"ACT_14",1,NA,1,1,NA
"575",1008,1,"ACT_15",1,NA,0,1,NA
"576",1008,1,"ACT_16",1,NA,0,1,NA
"577",1008,1,"ACT_17",1,NA,1,1,NA
"578",1008,1,"ACT_18",1,NA,0,1,NA
"579",1008,1,"ACT_19",1,NA,0,1,NA
"580",1008,1,"ACT_20",1,NA,0,1,NA
"581",1008,1,"AIT_21",1,NA,0,1,NA
"582",1008,1,"AIT_22",1,NA,0,1,NA
"583",1008,1,"AIT_23",1,NA,0,1,NA
"584",1008,1,"AIT_24",1,NA,0,1,NA
"585",1008,1,"AIT_25",1,NA,0,1,NA
"586",1008,1,"AIT_26",1,NA,1,1,NA
"587",1008,1,"AIT_27",1,NA,0,1,NA
"588",1008,1,"AIT_28",1,NA,0,1,NA
"589",1008,1,"AIT_29",1,NA,0,1,NA
"590",1008,1,"AIT_30",1,NA,0,1,NA
"591",1008,1,"AIT_31",1,NA,0,1,NA
"592",1008,1,"AIT_32",1,NA,1,1,NA
"593",1008,1,"AIT_33",1,NA,0,1,NA
"594",1008,1,"AIT_34",1,NA,0,1,NA
"595",1008,1,"AIT_35",1,NA,0,1,NA
"596",1008,1,"AIT_36",1,NA,0,1,NA
"597",1008,1,"AIT_37",1,NA,0,1,NA
"598",1008,1,"AIT_38",1,NA,0,1,NA
"599",1008,1,"AIT_39",1,NA,1,1,NA
"600",1008,1,"AIT_40",1,NA,0,1,NA
"601",1008,1,"BCT_1",1,NA,0,0,NA
"602",1008,1,"BCT_2",1,NA,0,0,NA
"603",1008,1,"BCT_3",1,NA,0,0,NA
"604",1008,1,"BCT_4",1,NA,0,0,NA
"605",1008,1,"BCT_5",1,NA,0,0,NA
"606",1008,1,"BCT_6",1,NA,0,0,NA
"607",1008,1,"BCT_7",1,NA,0,0,NA
"608",1008,1,"BCT_8",1,NA,1,0,NA
"609",1008,1,"BCT_9",1,NA,1,0,NA
"610",1008,1,"BCT_10",1,NA,1,0,NA
"611",1008,1,"BCT_11",1,NA,0,0,NA
"612",1008,1,"BCT_12",1,NA,0,0,NA
"613",1008,1,"BCT_13",1,NA,0,0,NA
"614",1008,1,"BCT_14",1,NA,0,0,NA
"615",1008,1,"BCT_15",1,NA,0,0,NA
"616",1008,1,"BCT_16",1,NA,0,0,NA
"617",1008,1,"BCT_17",1,NA,1,0,NA
"618",1008,1,"BCT_18",1,NA,1,0,NA
"619",1008,1,"BCT_19",1,NA,0,0,NA
"620",1008,1,"BCT_20",1,NA,0,0,NA
"621",1008,1,"BIT_21",1,NA,1,0,NA
"622",1008,1,"BIT_22",1,NA,0,0,NA
"623",1008,1,"BIT_23",1,NA,0,0,NA
"624",1008,1,"BIT_24",1,NA,0,0,NA
"625",1008,1,"BIT_25",1,NA,0,0,NA
"626",1008,1,"BIT_26",1,NA,1,0,NA
"627",1008,1,"BIT_27",1,NA,0,0,NA
"628",1008,1,"BIT_28",1,NA,1,0,NA
"629",1008,1,"BIT_29",1,NA,0,0,NA
"630",1008,1,"BIT_30",1,NA,0,0,NA
"631",1008,1,"BIT_31",1,NA,0,0,NA
"632",1008,1,"BIT_32",1,NA,0,0,NA
"633",1008,1,"BIT_33",1,NA,1,0,NA
"634",1008,1,"BIT_34",1,NA,0,0,NA
"635",1008,1,"BIT_35",1,NA,1,0,NA
"636",1008,1,"BIT_36",1,NA,0,0,NA
"637",1008,1,"BIT_37",1,NA,0,0,NA
"638",1008,1,"BIT_38",1,NA,0,0,NA
"639",1008,1,"BIT_39",1,NA,0,0,NA
"640",1008,1,"BIT_40",1,NA,0,0,NA
"641",1009,1,"ACT_1",1,NA,1,1,NA
"642",1009,1,"ACT_2",1,NA,1,1,NA
"643",1009,1,"ACT_3",1,NA,1,1,NA
"644",1009,1,"ACT_4",1,NA,1,1,NA
"645",1009,1,"ACT_5",1,NA,1,1,NA
"646",1009,1,"ACT_6",1,NA,0,1,NA
"647",1009,1,"ACT_7",1,NA,1,1,NA
"648",1009,1,"ACT_8",1,NA,1,1,NA
"649",1009,1,"ACT_9",1,NA,1,1,NA
"650",1009,1,"ACT_10",1,NA,1,1,NA
"651",1009,1,"ACT_11",1,NA,0,1,NA
"652",1009,1,"ACT_12",1,NA,1,1,NA
"653",1009,1,"ACT_13",1,NA,1,1,NA
"654",1009,1,"ACT_14",1,NA,1,1,NA
"655",1009,1,"ACT_15",1,NA,1,1,NA
"656",1009,1,"ACT_16",1,NA,1,1,NA
"657",1009,1,"ACT_17",1,NA,0,1,NA
"658",1009,1,"ACT_18",1,NA,1,1,NA
"659",1009,1,"ACT_19",1,NA,1,1,NA
"660",1009,1,"ACT_20",1,NA,1,1,NA
"661",1009,1,"AIT_21",1,NA,1,1,NA
"662",1009,1,"AIT_22",1,NA,1,1,NA
"663",1009,1,"AIT_23",1,NA,1,1,NA
"664",1009,1,"AIT_24",1,NA,1,1,NA
"665",1009,1,"AIT_25",1,NA,0,1,NA
"666",1009,1,"AIT_26",1,NA,1,1,NA
"667",1009,1,"AIT_27",1,NA,0,1,NA
"668",1009,1,"AIT_28",1,NA,0,1,NA
"669",1009,1,"AIT_29",1,NA,0,1,NA
"670",1009,1,"AIT_30",1,NA,1,1,NA
"671",1009,1,"AIT_31",1,NA,1,1,NA
"672",1009,1,"AIT_32",1,NA,0,1,NA
"673",1009,1,"AIT_33",1,NA,0,1,NA
"674",1009,1,"AIT_34",1,NA,1,1,NA
"675",1009,1,"AIT_35",1,NA,0,1,NA
"676",1009,1,"AIT_36",1,NA,1,1,NA
"677",1009,1,"AIT_37",1,NA,0,1,NA
"678",1009,1,"AIT_38",1,NA,0,1,NA
"679",1009,1,"AIT_39",1,NA,0,1,NA
"680",1009,1,"AIT_40",1,NA,0,1,NA
"681",1009,1,"BCT_1",1,NA,1,0,NA
"682",1009,1,"BCT_2",1,NA,1,0,NA
"683",1009,1,"BCT_3",1,NA,1,0,NA
"684",1009,1,"BCT_4",1,NA,1,0,NA
"685",1009,1,"BCT_5",1,NA,1,0,NA
"686",1009,1,"BCT_6",1,NA,1,0,NA
"687",1009,1,"BCT_7",1,NA,1,0,NA
"688",1009,1,"BCT_8",1,NA,1,0,NA
"689",1009,1,"BCT_9",1,NA,1,0,NA
"690",1009,1,"BCT_10",1,NA,1,0,NA
"691",1009,1,"BCT_11",1,NA,1,0,NA
"692",1009,1,"BCT_12",1,NA,1,0,NA
"693",1009,1,"BCT_13",1,NA,0,0,NA
"694",1009,1,"BCT_14",1,NA,1,0,NA
"695",1009,1,"BCT_15",1,NA,0,0,NA
"696",1009,1,"BCT_16",1,NA,1,0,NA
"697",1009,1,"BCT_17",1,NA,1,0,NA
"698",1009,1,"BCT_18",1,NA,0,0,NA
"699",1009,1,"BCT_19",1,NA,1,0,NA
"700",1009,1,"BCT_20",1,NA,1,0,NA
"701",1009,1,"BIT_21",1,NA,1,0,NA
"702",1009,1,"BIT_22",1,NA,1,0,NA
"703",1009,1,"BIT_23",1,NA,1,0,NA
"704",1009,1,"BIT_24",1,NA,0,0,NA
"705",1009,1,"BIT_25",1,NA,1,0,NA
"706",1009,1,"BIT_26",1,NA,1,0,NA
"707",1009,1,"BIT_27",1,NA,0,0,NA
"708",1009,1,"BIT_28",1,NA,0,0,NA
"709",1009,1,"BIT_29",1,NA,0,0,NA
"710",1009,1,"BIT_30",1,NA,0,0,NA
"711",1009,1,"BIT_31",1,NA,0,0,NA
"712",1009,1,"BIT_32",1,NA,1,0,NA
"713",1009,1,"BIT_33",1,NA,0,0,NA
"714",1009,1,"BIT_34",1,NA,0,0,NA
"715",1009,1,"BIT_35",1,NA,0,0,NA
"716",1009,1,"BIT_36",1,NA,0,0,NA
"717",1009,1,"BIT_37",1,NA,0,0,NA
"718",1009,1,"BIT_38",1,NA,0,0,NA
"719",1009,1,"BIT_39",1,NA,0,0,NA
"720",1009,1,"BIT_40",1,NA,0,0,NA
"721",1010,1,"ACT_1",1,NA,1,1,NA
"722",1010,1,"ACT_2",1,NA,1,1,NA
"723",1010,1,"ACT_3",1,NA,1,1,NA
"724",1010,1,"ACT_4",1,NA,1,1,NA
"725",1010,1,"ACT_5",1,NA,1,1,NA
"726",1010,1,"ACT_6",1,NA,1,1,NA
"727",1010,1,"ACT_7",1,NA,1,1,NA
"728",1010,1,"ACT_8",1,NA,1,1,NA
"729",1010,1,"ACT_9",1,NA,1,1,NA
"730",1010,1,"ACT_10",1,NA,1,1,NA
"731",1010,1,"ACT_11",1,NA,0,1,NA
"732",1010,1,"ACT_12",1,NA,1,1,NA
"733",1010,1,"ACT_13",1,NA,1,1,NA
"734",1010,1,"ACT_14",1,NA,1,1,NA
"735",1010,1,"ACT_15",1,NA,1,1,NA
"736",1010,1,"ACT_16",1,NA,1,1,NA
"737",1010,1,"ACT_17",1,NA,0,1,NA
"738",1010,1,"ACT_18",1,NA,1,1,NA
"739",1010,1,"ACT_19",1,NA,1,1,NA
"740",1010,1,"ACT_20",1,NA,1,1,NA
"741",1010,1,"AIT_21",1,NA,0,1,NA
"742",1010,1,"AIT_22",1,NA,0,1,NA
"743",1010,1,"AIT_23",1,NA,0,1,NA
"744",1010,1,"AIT_24",1,NA,1,1,NA
"745",1010,1,"AIT_25",1,NA,0,1,NA
"746",1010,1,"AIT_26",1,NA,0,1,NA
"747",1010,1,"AIT_27",1,NA,1,1,NA
"748",1010,1,"AIT_28",1,NA,0,1,NA
"749",1010,1,"AIT_29",1,NA,0,1,NA
"750",1010,1,"AIT_30",1,NA,0,1,NA
"751",1010,1,"AIT_31",1,NA,0,1,NA
"752",1010,1,"AIT_32",1,NA,1,1,NA
"753",1010,1,"AIT_33",1,NA,0,1,NA
"754",1010,1,"AIT_34",1,NA,0,1,NA
"755",1010,1,"AIT_35",1,NA,0,1,NA
"756",1010,1,"AIT_36",1,NA,0,1,NA
"757",1010,1,"AIT_37",1,NA,0,1,NA
"758",1010,1,"AIT_38",1,NA,0,1,NA
"759",1010,1,"AIT_39",1,NA,0,1,NA
"760",1010,1,"AIT_40",1,NA,0,1,NA
"761",1010,1,"BCT_1",1,NA,1,0,NA
"762",1010,1,"BCT_2",1,NA,1,0,NA
"763",1010,1,"BCT_3",1,NA,1,0,NA
"764",1010,1,"BCT_4",1,NA,1,0,NA
"765",1010,1,"BCT_5",1,NA,1,0,NA
"766",1010,1,"BCT_6",1,NA,0,0,NA
"767",1010,1,"BCT_7",1,NA,0,0,NA
"768",1010,1,"BCT_8",1,NA,1,0,NA
"769",1010,1,"BCT_9",1,NA,0,0,NA
"770",1010,1,"BCT_10",1,NA,1,0,NA
"771",1010,1,"BCT_11",1,NA,1,0,NA
"772",1010,1,"BCT_12",1,NA,1,0,NA
"773",1010,1,"BCT_13",1,NA,1,0,NA
"774",1010,1,"BCT_14",1,NA,0,0,NA
"775",1010,1,"BCT_15",1,NA,1,0,NA
"776",1010,1,"BCT_16",1,NA,1,0,NA
"777",1010,1,"BCT_17",1,NA,1,0,NA
"778",1010,1,"BCT_18",1,NA,1,0,NA
"779",1010,1,"BCT_19",1,NA,1,0,NA
"780",1010,1,"BCT_20",1,NA,0,0,NA
"781",1010,1,"BIT_21",1,NA,0,0,NA
"782",1010,1,"BIT_22",1,NA,0,0,NA
"783",1010,1,"BIT_23",1,NA,0,0,NA
"784",1010,1,"BIT_24",1,NA,1,0,NA
"785",1010,1,"BIT_25",1,NA,1,0,NA
"786",1010,1,"BIT_26",1,NA,0,0,NA
"787",1010,1,"BIT_27",1,NA,0,0,NA
"788",1010,1,"BIT_28",1,NA,0,0,NA
"789",1010,1,"BIT_29",1,NA,0,0,NA
"790",1010,1,"BIT_30",1,NA,0,0,NA
"791",1010,1,"BIT_31",1,NA,0,0,NA
"792",1010,1,"BIT_32",1,NA,0,0,NA
"793",1010,1,"BIT_33",1,NA,0,0,NA
"794",1010,1,"BIT_34",1,NA,0,0,NA
"795",1010,1,"BIT_35",1,NA,0,0,NA
"796",1010,1,"BIT_36",1,NA,0,0,NA
"797",1010,1,"BIT_37",1,NA,0,0,NA
"798",1010,1,"BIT_38",1,NA,0,0,NA
"799",1010,1,"BIT_39",1,NA,0,0,NA
"800",1010,1,"BIT_40",1,NA,0,0,NA
"801",1011,1,"ACT_1",1,NA,1,1,NA
"802",1011,1,"ACT_2",1,NA,0,1,NA
"803",1011,1,"ACT_3",1,NA,0,1,NA
"804",1011,1,"ACT_4",1,NA,1,1,NA
"805",1011,1,"ACT_5",1,NA,1,1,NA
"806",1011,1,"ACT_6",1,NA,1,1,NA
"807",1011,1,"ACT_7",1,NA,0,1,NA
"808",1011,1,"ACT_8",1,NA,1,1,NA
"809",1011,1,"ACT_9",1,NA,1,1,NA
"810",1011,1,"ACT_10",1,NA,1,1,NA
"811",1011,1,"ACT_11",1,NA,1,1,NA
"812",1011,1,"ACT_12",1,NA,1,1,NA
"813",1011,1,"ACT_13",1,NA,1,1,NA
"814",1011,1,"ACT_14",1,NA,1,1,NA
"815",1011,1,"ACT_15",1,NA,1,1,NA
"816",1011,1,"ACT_16",1,NA,1,1,NA
"817",1011,1,"ACT_17",1,NA,0,1,NA
"818",1011,1,"ACT_18",1,NA,0,1,NA
"819",1011,1,"ACT_19",1,NA,1,1,NA
"820",1011,1,"ACT_20",1,NA,0,1,NA
"821",1011,1,"AIT_21",1,NA,1,1,NA
"822",1011,1,"AIT_22",1,NA,1,1,NA
"823",1011,1,"AIT_23",1,NA,0,1,NA
"824",1011,1,"AIT_24",1,NA,0,1,NA
"825",1011,1,"AIT_25",1,NA,0,1,NA
"826",1011,1,"AIT_26",1,NA,0,1,NA
"827",1011,1,"AIT_27",1,NA,1,1,NA
"828",1011,1,"AIT_28",1,NA,1,1,NA
"829",1011,1,"AIT_29",1,NA,0,1,NA
"830",1011,1,"AIT_30",1,NA,0,1,NA
"831",1011,1,"AIT_31",1,NA,0,1,NA
"832",1011,1,"AIT_32",1,NA,0,1,NA
"833",1011,1,"AIT_33",1,NA,1,1,NA
"834",1011,1,"AIT_34",1,NA,0,1,NA
"835",1011,1,"AIT_35",1,NA,1,1,NA
"836",1011,1,"AIT_36",1,NA,1,1,NA
"837",1011,1,"AIT_37",1,NA,1,1,NA
"838",1011,1,"AIT_38",1,NA,0,1,NA
"839",1011,1,"AIT_39",1,NA,1,1,NA
"840",1011,1,"AIT_40",1,NA,1,1,NA
"841",1011,1,"BCT_1",1,NA,1,0,NA
"842",1011,1,"BCT_2",1,NA,1,0,NA
"843",1011,1,"BCT_3",1,NA,0,0,NA
"844",1011,1,"BCT_4",1,NA,1,0,NA
"845",1011,1,"BCT_5",1,NA,0,0,NA
"846",1011,1,"BCT_6",1,NA,1,0,NA
"847",1011,1,"BCT_7",1,NA,1,0,NA
"848",1011,1,"BCT_8",1,NA,1,0,NA
"849",1011,1,"BCT_9",1,NA,1,0,NA
"850",1011,1,"BCT_10",1,NA,0,0,NA
"851",1011,1,"BCT_11",1,NA,1,0,NA
"852",1011,1,"BCT_12",1,NA,0,0,NA
"853",1011,1,"BCT_13",1,NA,1,0,NA
"854",1011,1,"BCT_14",1,NA,1,0,NA
"855",1011,1,"BCT_15",1,NA,1,0,NA
"856",1011,1,"BCT_16",1,NA,1,0,NA
"857",1011,1,"BCT_17",1,NA,0,0,NA
"858",1011,1,"BCT_18",1,NA,0,0,NA
"859",1011,1,"BCT_19",1,NA,1,0,NA
"860",1011,1,"BCT_20",1,NA,1,0,NA
"861",1011,1,"BIT_21",1,NA,1,0,NA
"862",1011,1,"BIT_22",1,NA,0,0,NA
"863",1011,1,"BIT_23",1,NA,1,0,NA
"864",1011,1,"BIT_24",1,NA,0,0,NA
"865",1011,1,"BIT_25",1,NA,1,0,NA
"866",1011,1,"BIT_26",1,NA,1,0,NA
"867",1011,1,"BIT_27",1,NA,1,0,NA
"868",1011,1,"BIT_28",1,NA,1,0,NA
"869",1011,1,"BIT_29",1,NA,0,0,NA
"870",1011,1,"BIT_30",1,NA,1,0,NA
"871",1011,1,"BIT_31",1,NA,1,0,NA
"872",1011,1,"BIT_32",1,NA,1,0,NA
"873",1011,1,"BIT_33",1,NA,0,0,NA
"874",1011,1,"BIT_34",1,NA,0,0,NA
"875",1011,1,"BIT_35",1,NA,0,0,NA
"876",1011,1,"BIT_36",1,NA,1,0,NA
"877",1011,1,"BIT_37",1,NA,1,0,NA
"878",1011,1,"BIT_38",1,NA,1,0,NA
"879",1011,1,"BIT_39",1,NA,1,0,NA
"880",1011,1,"BIT_40",1,NA,1,0,NA
"881",1012,1,"ACT_1",1,NA,1,1,NA
"882",1012,1,"ACT_2",1,NA,1,1,NA
"883",1012,1,"ACT_3",1,NA,1,1,NA
"884",1012,1,"ACT_4",1,NA,1,1,NA
"885",1012,1,"ACT_5",1,NA,1,1,NA
"886",1012,1,"ACT_6",1,NA,1,1,NA
"887",1012,1,"ACT_7",1,NA,1,1,NA
"888",1012,1,"ACT_8",1,NA,0,1,NA
"889",1012,1,"ACT_9",1,NA,1,1,NA
"890",1012,1,"ACT_10",1,NA,1,1,NA
"891",1012,1,"ACT_11",1,NA,0,1,NA
"892",1012,1,"ACT_12",1,NA,1,1,NA
"893",1012,1,"ACT_13",1,NA,1,1,NA
"894",1012,1,"ACT_14",1,NA,0,1,NA
"895",1012,1,"ACT_15",1,NA,0,1,NA
"896",1012,1,"ACT_16",1,NA,0,1,NA
"897",1012,1,"ACT_17",1,NA,0,1,NA
"898",1012,1,"ACT_18",1,NA,0,1,NA
"899",1012,1,"ACT_19",1,NA,0,1,NA
"900",1012,1,"ACT_20",1,NA,0,1,NA
"901",1012,1,"AIT_21",1,NA,1,1,NA
"902",1012,1,"AIT_22",1,NA,1,1,NA
"903",1012,1,"AIT_23",1,NA,0,1,NA
"904",1012,1,"AIT_24",1,NA,1,1,NA
"905",1012,1,"AIT_25",1,NA,0,1,NA
"906",1012,1,"AIT_26",1,NA,0,1,NA
"907",1012,1,"AIT_27",1,NA,0,1,NA
"908",1012,1,"AIT_28",1,NA,1,1,NA
"909",1012,1,"AIT_29",1,NA,0,1,NA
"910",1012,1,"AIT_30",1,NA,0,1,NA
"911",1012,1,"AIT_31",1,NA,0,1,NA
"912",1012,1,"AIT_32",1,NA,1,1,NA
"913",1012,1,"AIT_33",1,NA,1,1,NA
"914",1012,1,"AIT_34",1,NA,0,1,NA
"915",1012,1,"AIT_35",1,NA,0,1,NA
"916",1012,1,"AIT_36",1,NA,0,1,NA
"917",1012,1,"AIT_37",1,NA,0,1,NA
"918",1012,1,"AIT_38",1,NA,0,1,NA
"919",1012,1,"AIT_39",1,NA,0,1,NA
"920",1012,1,"AIT_40",1,NA,0,1,NA
"921",1012,1,"BCT_1",1,NA,1,0,NA
"922",1012,1,"BCT_2",1,NA,1,0,NA
"923",1012,1,"BCT_3",1,NA,1,0,NA
"924",1012,1,"BCT_4",1,NA,1,0,NA
"925",1012,1,"BCT_5",1,NA,1,0,NA
"926",1012,1,"BCT_6",1,NA,1,0,NA
"927",1012,1,"BCT_7",1,NA,1,0,NA
"928",1012,1,"BCT_8",1,NA,0,0,NA
"929",1012,1,"BCT_9",1,NA,0,0,NA
"930",1012,1,"BCT_10",1,NA,1,0,NA
"931",1012,1,"BCT_11",1,NA,1,0,NA
"932",1012,1,"BCT_12",1,NA,1,0,NA
"933",1012,1,"BCT_13",1,NA,1,0,NA
"934",1012,1,"BCT_14",1,NA,0,0,NA
"935",1012,1,"BCT_15",1,NA,0,0,NA
"936",1012,1,"BCT_16",1,NA,0,0,NA
"937",1012,1,"BCT_17",1,NA,0,0,NA
"938",1012,1,"BCT_18",1,NA,0,0,NA
"939",1012,1,"BCT_19",1,NA,0,0,NA
"940",1012,1,"BCT_20",1,NA,1,0,NA
"941",1012,1,"BIT_21",1,NA,0,0,NA
"942",1012,1,"BIT_22",1,NA,1,0,NA
"943",1012,1,"BIT_23",1,NA,0,0,NA
"944",1012,1,"BIT_24",1,NA,0,0,NA
"945",1012,1,"BIT_25",1,NA,0,0,NA
"946",1012,1,"BIT_26",1,NA,0,0,NA
"947",1012,1,"BIT_27",1,NA,0,0,NA
"948",1012,1,"BIT_28",1,NA,1,0,NA
"949",1012,1,"BIT_29",1,NA,1,0,NA
"950",1012,1,"BIT_30",1,NA,0,0,NA
"951",1012,1,"BIT_31",1,NA,0,0,NA
"952",1012,1,"BIT_32",1,NA,0,0,NA
"953",1012,1,"BIT_33",1,NA,1,0,NA
"954",1012,1,"BIT_34",1,NA,0,0,NA
"955",1012,1,"BIT_35",1,NA,0,0,NA
"956",1012,1,"BIT_36",1,NA,0,0,NA
"957",1012,1,"BIT_37",1,NA,0,0,NA
"958",1012,1,"BIT_38",1,NA,0,0,NA
"959",1012,1,"BIT_39",1,NA,0,0,NA
"960",1012,1,"BIT_40",1,NA,0,0,NA
"961",1013,1,"ACT_1",1,NA,1,1,NA
"962",1013,1,"ACT_2",1,NA,1,1,NA
"963",1013,1,"ACT_3",1,NA,1,1,NA
"964",1013,1,"ACT_4",1,NA,1,1,NA
"965",1013,1,"ACT_5",1,NA,0,1,NA
"966",1013,1,"ACT_6",1,NA,1,1,NA
"967",1013,1,"ACT_7",1,NA,1,1,NA
"968",1013,1,"ACT_8",1,NA,1,1,NA
"969",1013,1,"ACT_9",1,NA,1,1,NA
"970",1013,1,"ACT_10",1,NA,0,1,NA
"971",1013,1,"ACT_11",1,NA,0,1,NA
"972",1013,1,"ACT_12",1,NA,1,1,NA
"973",1013,1,"ACT_13",1,NA,1,1,NA
"974",1013,1,"ACT_14",1,NA,1,1,NA
"975",1013,1,"ACT_15",1,NA,0,1,NA
"976",1013,1,"ACT_16",1,NA,0,1,NA
"977",1013,1,"ACT_17",1,NA,1,1,NA
"978",1013,1,"ACT_18",1,NA,1,1,NA
"979",1013,1,"ACT_19",1,NA,0,1,NA
"980",1013,1,"ACT_20",1,NA,0,1,NA
"981",1013,1,"AIT_21",1,NA,0,1,NA
"982",1013,1,"AIT_22",1,NA,0,1,NA
"983",1013,1,"AIT_23",1,NA,0,1,NA
"984",1013,1,"AIT_24",1,NA,0,1,NA
"985",1013,1,"AIT_25",1,NA,0,1,NA
"986",1013,1,"AIT_26",1,NA,0,1,NA
"987",1013,1,"AIT_27",1,NA,0,1,NA
"988",1013,1,"AIT_28",1,NA,0,1,NA
"989",1013,1,"AIT_29",1,NA,0,1,NA
"990",1013,1,"AIT_30",1,NA,0,1,NA
"991",1013,1,"AIT_31",1,NA,0,1,NA
"992",1013,1,"AIT_32",1,NA,0,1,NA
"993",1013,1,"AIT_33",1,NA,0,1,NA
"994",1013,1,"AIT_34",1,NA,0,1,NA
"995",1013,1,"AIT_35",1,NA,0,1,NA
"996",1013,1,"AIT_36",1,NA,0,1,NA
"997",1013,1,"AIT_37",1,NA,0,1,NA
"998",1013,1,"AIT_38",1,NA,0,1,NA
"999",1013,1,"AIT_39",1,NA,0,1,NA
"1000",1013,1,"AIT_40",1,NA,0,1,NA
"1001",1013,1,"BCT_1",1,NA,1,0,NA
"1002",1013,1,"BCT_2",1,NA,1,0,NA
"1003",1013,1,"BCT_3",1,NA,1,0,NA
"1004",1013,1,"BCT_4",1,NA,1,0,NA
"1005",1013,1,"BCT_5",1,NA,1,0,NA
"1006",1013,1,"BCT_6",1,NA,1,0,NA
"1007",1013,1,"BCT_7",1,NA,1,0,NA
"1008",1013,1,"BCT_8",1,NA,1,0,NA
"1009",1013,1,"BCT_9",1,NA,1,0,NA
"1010",1013,1,"BCT_10",1,NA,1,0,NA
"1011",1013,1,"BCT_11",1,NA,1,0,NA
"1012",1013,1,"BCT_12",1,NA,1,0,NA
"1013",1013,1,"BCT_13",1,NA,0,0,NA
"1014",1013,1,"BCT_14",1,NA,0,0,NA
"1015",1013,1,"BCT_15",1,NA,0,0,NA
"1016",1013,1,"BCT_16",1,NA,1,0,NA
"1017",1013,1,"BCT_17",1,NA,0,0,NA
"1018",1013,1,"BCT_18",1,NA,1,0,NA
"1019",1013,1,"BCT_19",1,NA,1,0,NA
"1020",1013,1,"BCT_20",1,NA,0,0,NA
"1021",1013,1,"BIT_21",1,NA,1,0,NA
"1022",1013,1,"BIT_22",1,NA,1,0,NA
"1023",1013,1,"BIT_23",1,NA,0,0,NA
"1024",1013,1,"BIT_24",1,NA,0,0,NA
"1025",1013,1,"BIT_25",1,NA,1,0,NA
"1026",1013,1,"BIT_26",1,NA,1,0,NA
"1027",1013,1,"BIT_27",1,NA,0,0,NA
"1028",1013,1,"BIT_28",1,NA,0,0,NA
"1029",1013,1,"BIT_29",1,NA,0,0,NA
"1030",1013,1,"BIT_30",1,NA,0,0,NA
"1031",1013,1,"BIT_31",1,NA,0,0,NA
"1032",1013,1,"BIT_32",1,NA,0,0,NA
"1033",1013,1,"BIT_33",1,NA,0,0,NA
"1034",1013,1,"BIT_34",1,NA,0,0,NA
"1035",1013,1,"BIT_35",1,NA,0,0,NA
"1036",1013,1,"BIT_36",1,NA,0,0,NA
"1037",1013,1,"BIT_37",1,NA,0,0,NA
"1038",1013,1,"BIT_38",1,NA,0,0,NA
"1039",1013,1,"BIT_39",1,NA,0,0,NA
"1040",1013,1,"BIT_40",1,NA,0,0,NA
"1041",1014,1,"ACT_1",1,NA,0,1,NA
"1042",1014,1,"ACT_2",1,NA,0,1,NA
"1043",1014,1,"ACT_3",1,NA,0,1,NA
"1044",1014,1,"ACT_4",1,NA,0,1,NA
"1045",1014,1,"ACT_5",1,NA,1,1,NA
"1046",1014,1,"ACT_6",1,NA,1,1,NA
"1047",1014,1,"ACT_7",1,NA,0,1,NA
"1048",1014,1,"ACT_8",1,NA,1,1,NA
"1049",1014,1,"ACT_9",1,NA,1,1,NA
"1050",1014,1,"ACT_10",1,NA,0,1,NA
"1051",1014,1,"ACT_11",1,NA,0,1,NA
"1052",1014,1,"ACT_12",1,NA,0,1,NA
"1053",1014,1,"ACT_13",1,NA,0,1,NA
"1054",1014,1,"ACT_14",1,NA,0,1,NA
"1055",1014,1,"ACT_15",1,NA,0,1,NA
"1056",1014,1,"ACT_16",1,NA,0,1,NA
"1057",1014,1,"ACT_17",1,NA,0,1,NA
"1058",1014,1,"ACT_18",1,NA,0,1,NA
"1059",1014,1,"ACT_19",1,NA,0,1,NA
"1060",1014,1,"ACT_20",1,NA,0,1,NA
"1061",1014,1,"AIT_21",1,NA,0,1,NA
"1062",1014,1,"AIT_22",1,NA,0,1,NA
"1063",1014,1,"AIT_23",1,NA,0,1,NA
"1064",1014,1,"AIT_24",1,NA,0,1,NA
"1065",1014,1,"AIT_25",1,NA,0,1,NA
"1066",1014,1,"AIT_26",1,NA,0,1,NA
"1067",1014,1,"AIT_27",1,NA,1,1,NA
"1068",1014,1,"AIT_28",1,NA,0,1,NA
"1069",1014,1,"AIT_29",1,NA,0,1,NA
"1070",1014,1,"AIT_30",1,NA,0,1,NA
"1071",1014,1,"AIT_31",1,NA,0,1,NA
"1072",1014,1,"AIT_32",1,NA,1,1,NA
"1073",1014,1,"AIT_33",1,NA,1,1,NA
"1074",1014,1,"AIT_34",1,NA,1,1,NA
"1075",1014,1,"AIT_35",1,NA,0,1,NA
"1076",1014,1,"AIT_36",1,NA,0,1,NA
"1077",1014,1,"AIT_37",1,NA,0,1,NA
"1078",1014,1,"AIT_38",1,NA,0,1,NA
"1079",1014,1,"AIT_39",1,NA,1,1,NA
"1080",1014,1,"AIT_40",1,NA,0,1,NA
"1081",1014,1,"BCT_1",1,NA,0,0,NA
"1082",1014,1,"BCT_2",1,NA,1,0,NA
"1083",1014,1,"BCT_3",1,NA,0,0,NA
"1084",1014,1,"BCT_4",1,NA,0,0,NA
"1085",1014,1,"BCT_5",1,NA,0,0,NA
"1086",1014,1,"BCT_6",1,NA,1,0,NA
"1087",1014,1,"BCT_7",1,NA,1,0,NA
"1088",1014,1,"BCT_8",1,NA,1,0,NA
"1089",1014,1,"BCT_9",1,NA,1,0,NA
"1090",1014,1,"BCT_10",1,NA,1,0,NA
"1091",1014,1,"BCT_11",1,NA,0,0,NA
"1092",1014,1,"BCT_12",1,NA,0,0,NA
"1093",1014,1,"BCT_13",1,NA,0,0,NA
"1094",1014,1,"BCT_14",1,NA,0,0,NA
"1095",1014,1,"BCT_15",1,NA,0,0,NA
"1096",1014,1,"BCT_16",1,NA,1,0,NA
"1097",1014,1,"BCT_17",1,NA,0,0,NA
"1098",1014,1,"BCT_18",1,NA,1,0,NA
"1099",1014,1,"BCT_19",1,NA,0,0,NA
"1100",1014,1,"BCT_20",1,NA,0,0,NA
"1101",1014,1,"BIT_21",1,NA,0,0,NA
"1102",1014,1,"BIT_22",1,NA,0,0,NA
"1103",1014,1,"BIT_23",1,NA,0,0,NA
"1104",1014,1,"BIT_24",1,NA,0,0,NA
"1105",1014,1,"BIT_25",1,NA,0,0,NA
"1106",1014,1,"BIT_26",1,NA,0,0,NA
"1107",1014,1,"BIT_27",1,NA,0,0,NA
"1108",1014,1,"BIT_28",1,NA,0,0,NA
"1109",1014,1,"BIT_29",1,NA,0,0,NA
"1110",1014,1,"BIT_30",1,NA,0,0,NA
"1111",1014,1,"BIT_31",1,NA,0,0,NA
"1112",1014,1,"BIT_32",1,NA,0,0,NA
"1113",1014,1,"BIT_33",1,NA,0,0,NA
"1114",1014,1,"BIT_34",1,NA,0,0,NA
"1115",1014,1,"BIT_35",1,NA,0,0,NA
"1116",1014,1,"BIT_36",1,NA,1,0,NA
"1117",1014,1,"BIT_37",1,NA,0,0,NA
"1118",1014,1,"BIT_38",1,NA,0,0,NA
"1119",1014,1,"BIT_39",1,NA,0,0,NA
"1120",1014,1,"BIT_40",1,NA,0,0,NA
"1121",1015,1,"ACT_1",1,NA,1,1,NA
"1122",1015,1,"ACT_2",1,NA,1,1,NA
"1123",1015,1,"ACT_3",1,NA,1,1,NA
"1124",1015,1,"ACT_4",1,NA,1,1,NA
"1125",1015,1,"ACT_5",1,NA,1,1,NA
"1126",1015,1,"ACT_6",1,NA,1,1,NA
"1127",1015,1,"ACT_7",1,NA,1,1,NA
"1128",1015,1,"ACT_8",1,NA,1,1,NA
"1129",1015,1,"ACT_9",1,NA,1,1,NA
"1130",1015,1,"ACT_10",1,NA,1,1,NA
"1131",1015,1,"ACT_11",1,NA,1,1,NA
"1132",1015,1,"ACT_12",1,NA,1,1,NA
"1133",1015,1,"ACT_13",1,NA,1,1,NA
"1134",1015,1,"ACT_14",1,NA,1,1,NA
"1135",1015,1,"ACT_15",1,NA,1,1,NA
"1136",1015,1,"ACT_16",1,NA,0,1,NA
"1137",1015,1,"ACT_17",1,NA,0,1,NA
"1138",1015,1,"ACT_18",1,NA,0,1,NA
"1139",1015,1,"ACT_19",1,NA,0,1,NA
"1140",1015,1,"ACT_20",1,NA,1,1,NA
"1141",1015,1,"AIT_21",1,NA,1,1,NA
"1142",1015,1,"AIT_22",1,NA,1,1,NA
"1143",1015,1,"AIT_23",1,NA,1,1,NA
"1144",1015,1,"AIT_24",1,NA,0,1,NA
"1145",1015,1,"AIT_25",1,NA,0,1,NA
"1146",1015,1,"AIT_26",1,NA,0,1,NA
"1147",1015,1,"AIT_27",1,NA,1,1,NA
"1148",1015,1,"AIT_28",1,NA,0,1,NA
"1149",1015,1,"AIT_29",1,NA,0,1,NA
"1150",1015,1,"AIT_30",1,NA,1,1,NA
"1151",1015,1,"AIT_31",1,NA,0,1,NA
"1152",1015,1,"AIT_32",1,NA,0,1,NA
"1153",1015,1,"AIT_33",1,NA,0,1,NA
"1154",1015,1,"AIT_34",1,NA,0,1,NA
"1155",1015,1,"AIT_35",1,NA,0,1,NA
"1156",1015,1,"AIT_36",1,NA,0,1,NA
"1157",1015,1,"AIT_37",1,NA,0,1,NA
"1158",1015,1,"AIT_38",1,NA,0,1,NA
"1159",1015,1,"AIT_39",1,NA,0,1,NA
"1160",1015,1,"AIT_40",1,NA,0,1,NA
"1161",1015,1,"BCT_1",1,NA,1,0,NA
"1162",1015,1,"BCT_2",1,NA,1,0,NA
"1163",1015,1,"BCT_3",1,NA,1,0,NA
"1164",1015,1,"BCT_4",1,NA,1,0,NA
"1165",1015,1,"BCT_5",1,NA,1,0,NA
"1166",1015,1,"BCT_6",1,NA,1,0,NA
"1167",1015,1,"BCT_7",1,NA,1,0,NA
"1168",1015,1,"BCT_8",1,NA,0,0,NA
"1169",1015,1,"BCT_9",1,NA,0,0,NA
"1170",1015,1,"BCT_10",1,NA,1,0,NA
"1171",1015,1,"BCT_11",1,NA,1,0,NA
"1172",1015,1,"BCT_12",1,NA,0,0,NA
"1173",1015,1,"BCT_13",1,NA,1,0,NA
"1174",1015,1,"BCT_14",1,NA,0,0,NA
"1175",1015,1,"BCT_15",1,NA,0,0,NA
"1176",1015,1,"BCT_16",1,NA,1,0,NA
"1177",1015,1,"BCT_17",1,NA,1,0,NA
"1178",1015,1,"BCT_18",1,NA,0,0,NA
"1179",1015,1,"BCT_19",1,NA,1,0,NA
"1180",1015,1,"BCT_20",1,NA,0,0,NA
"1181",1015,1,"BIT_21",1,NA,0,0,NA
"1182",1015,1,"BIT_22",1,NA,0,0,NA
"1183",1015,1,"BIT_23",1,NA,0,0,NA
"1184",1015,1,"BIT_24",1,NA,0,0,NA
"1185",1015,1,"BIT_25",1,NA,0,0,NA
"1186",1015,1,"BIT_26",1,NA,0,0,NA
"1187",1015,1,"BIT_27",1,NA,0,0,NA
"1188",1015,1,"BIT_28",1,NA,0,0,NA
"1189",1015,1,"BIT_29",1,NA,0,0,NA
"1190",1015,1,"BIT_30",1,NA,0,0,NA
"1191",1015,1,"BIT_31",1,NA,0,0,NA
"1192",1015,1,"BIT_32",1,NA,0,0,NA
"1193",1015,1,"BIT_33",1,NA,0,0,NA
"1194",1015,1,"BIT_34",1,NA,0,0,NA
"1195",1015,1,"BIT_35",1,NA,0,0,NA
"1196",1015,1,"BIT_36",1,NA,0,0,NA
"1197",1015,1,"BIT_37",1,NA,0,0,NA
"1198",1015,1,"BIT_38",1,NA,0,0,NA
"1199",1015,1,"BIT_39",1,NA,0,0,NA
"1200",1015,1,"BIT_40",1,NA,0,0,NA
"1201",1016,1,"ACT_1",1,NA,0,1,NA
"1202",1016,1,"ACT_2",1,NA,1,1,NA
"1203",1016,1,"ACT_3",1,NA,1,1,NA
"1204",1016,1,"ACT_4",1,NA,1,1,NA
"1205",1016,1,"ACT_5",1,NA,1,1,NA
"1206",1016,1,"ACT_6",1,NA,1,1,NA
"1207",1016,1,"ACT_7",1,NA,1,1,NA
"1208",1016,1,"ACT_8",1,NA,1,1,NA
"1209",1016,1,"ACT_9",1,NA,1,1,NA
"1210",1016,1,"ACT_10",1,NA,1,1,NA
"1211",1016,1,"ACT_11",1,NA,1,1,NA
"1212",1016,1,"ACT_12",1,NA,0,1,NA
"1213",1016,1,"ACT_13",1,NA,1,1,NA
"1214",1016,1,"ACT_14",1,NA,1,1,NA
"1215",1016,1,"ACT_15",1,NA,1,1,NA
"1216",1016,1,"ACT_16",1,NA,0,1,NA
"1217",1016,1,"ACT_17",1,NA,1,1,NA
"1218",1016,1,"ACT_18",1,NA,1,1,NA
"1219",1016,1,"ACT_19",1,NA,0,1,NA
"1220",1016,1,"ACT_20",1,NA,1,1,NA
"1221",1016,1,"AIT_21",1,NA,1,1,NA
"1222",1016,1,"AIT_22",1,NA,1,1,NA
"1223",1016,1,"AIT_23",1,NA,1,1,NA
"1224",1016,1,"AIT_24",1,NA,1,1,NA
"1225",1016,1,"AIT_25",1,NA,1,1,NA
"1226",1016,1,"AIT_26",1,NA,1,1,NA
"1227",1016,1,"AIT_27",1,NA,1,1,NA
"1228",1016,1,"AIT_28",1,NA,1,1,NA
"1229",1016,1,"AIT_29",1,NA,1,1,NA
"1230",1016,1,"AIT_30",1,NA,1,1,NA
"1231",1016,1,"AIT_31",1,NA,0,1,NA
"1232",1016,1,"AIT_32",1,NA,1,1,NA
"1233",1016,1,"AIT_33",1,NA,1,1,NA
"1234",1016,1,"AIT_34",1,NA,1,1,NA
"1235",1016,1,"AIT_35",1,NA,1,1,NA
"1236",1016,1,"AIT_36",1,NA,0,1,NA
"1237",1016,1,"AIT_37",1,NA,1,1,NA
"1238",1016,1,"AIT_38",1,NA,1,1,NA
"1239",1016,1,"AIT_39",1,NA,1,1,NA
"1240",1016,1,"AIT_40",1,NA,1,1,NA
"1241",1016,1,"BCT_1",1,NA,1,0,NA
"1242",1016,1,"BCT_2",1,NA,1,0,NA
"1243",1016,1,"BCT_3",1,NA,1,0,NA
"1244",1016,1,"BCT_4",1,NA,1,0,NA
"1245",1016,1,"BCT_5",1,NA,1,0,NA
"1246",1016,1,"BCT_6",1,NA,0,0,NA
"1247",1016,1,"BCT_7",1,NA,0,0,NA
"1248",1016,1,"BCT_8",1,NA,1,0,NA
"1249",1016,1,"BCT_9",1,NA,1,0,NA
"1250",1016,1,"BCT_10",1,NA,1,0,NA
"1251",1016,1,"BCT_11",1,NA,0,0,NA
"1252",1016,1,"BCT_12",1,NA,1,0,NA
"1253",1016,1,"BCT_13",1,NA,1,0,NA
"1254",1016,1,"BCT_14",1,NA,1,0,NA
"1255",1016,1,"BCT_15",1,NA,1,0,NA
"1256",1016,1,"BCT_16",1,NA,1,0,NA
"1257",1016,1,"BCT_17",1,NA,0,0,NA
"1258",1016,1,"BCT_18",1,NA,1,0,NA
"1259",1016,1,"BCT_19",1,NA,0,0,NA
"1260",1016,1,"BCT_20",1,NA,1,0,NA
"1261",1016,1,"BIT_21",1,NA,1,0,NA
"1262",1016,1,"BIT_22",1,NA,1,0,NA
"1263",1016,1,"BIT_23",1,NA,1,0,NA
"1264",1016,1,"BIT_24",1,NA,0,0,NA
"1265",1016,1,"BIT_25",1,NA,1,0,NA
"1266",1016,1,"BIT_26",1,NA,0,0,NA
"1267",1016,1,"BIT_27",1,NA,1,0,NA
"1268",1016,1,"BIT_28",1,NA,1,0,NA
"1269",1016,1,"BIT_29",1,NA,1,0,NA
"1270",1016,1,"BIT_30",1,NA,0,0,NA
"1271",1016,1,"BIT_31",1,NA,1,0,NA
"1272",1016,1,"BIT_32",1,NA,1,0,NA
"1273",1016,1,"BIT_33",1,NA,1,0,NA
"1274",1016,1,"BIT_34",1,NA,1,0,NA
"1275",1016,1,"BIT_35",1,NA,1,0,NA
"1276",1016,1,"BIT_36",1,NA,1,0,NA
"1277",1016,1,"BIT_37",1,NA,1,0,NA
"1278",1016,1,"BIT_38",1,NA,0,0,NA
"1279",1016,1,"BIT_39",1,NA,1,0,NA
"1280",1016,1,"BIT_40",1,NA,1,0,NA
"1281",1017,1,"ACT_1",1,NA,1,1,NA
"1282",1017,1,"ACT_2",1,NA,1,1,NA
"1283",1017,1,"ACT_3",1,NA,1,1,NA
"1284",1017,1,"ACT_4",1,NA,1,1,NA
"1285",1017,1,"ACT_5",1,NA,1,1,NA
"1286",1017,1,"ACT_6",1,NA,1,1,NA
"1287",1017,1,"ACT_7",1,NA,1,1,NA
"1288",1017,1,"ACT_8",1,NA,1,1,NA
"1289",1017,1,"ACT_9",1,NA,0,1,NA
"1290",1017,1,"ACT_10",1,NA,1,1,NA
"1291",1017,1,"ACT_11",1,NA,1,1,NA
"1292",1017,1,"ACT_12",1,NA,1,1,NA
"1293",1017,1,"ACT_13",1,NA,1,1,NA
"1294",1017,1,"ACT_14",1,NA,0,1,NA
"1295",1017,1,"ACT_15",1,NA,1,1,NA
"1296",1017,1,"ACT_16",1,NA,1,1,NA
"1297",1017,1,"ACT_17",1,NA,0,1,NA
"1298",1017,1,"ACT_18",1,NA,0,1,NA
"1299",1017,1,"ACT_19",1,NA,1,1,NA
"1300",1017,1,"ACT_20",1,NA,1,1,NA
"1301",1017,1,"AIT_21",1,NA,1,1,NA
"1302",1017,1,"AIT_22",1,NA,0,1,NA
"1303",1017,1,"AIT_23",1,NA,0,1,NA
"1304",1017,1,"AIT_24",1,NA,0,1,NA
"1305",1017,1,"AIT_25",1,NA,0,1,NA
"1306",1017,1,"AIT_26",1,NA,0,1,NA
"1307",1017,1,"AIT_27",1,NA,1,1,NA
"1308",1017,1,"AIT_28",1,NA,0,1,NA
"1309",1017,1,"AIT_29",1,NA,1,1,NA
"1310",1017,1,"AIT_30",1,NA,1,1,NA
"1311",1017,1,"AIT_31",1,NA,0,1,NA
"1312",1017,1,"AIT_32",1,NA,0,1,NA
"1313",1017,1,"AIT_33",1,NA,1,1,NA
"1314",1017,1,"AIT_34",1,NA,0,1,NA
"1315",1017,1,"AIT_35",1,NA,0,1,NA
"1316",1017,1,"AIT_36",1,NA,0,1,NA
"1317",1017,1,"AIT_37",1,NA,0,1,NA
"1318",1017,1,"AIT_38",1,NA,0,1,NA
"1319",1017,1,"AIT_39",1,NA,0,1,NA
"1320",1017,1,"AIT_40",1,NA,0,1,NA
"1321",1017,1,"BCT_1",1,NA,1,0,NA
"1322",1017,1,"BCT_2",1,NA,1,0,NA
"1323",1017,1,"BCT_3",1,NA,1,0,NA
"1324",1017,1,"BCT_4",1,NA,1,0,NA
"1325",1017,1,"BCT_5",1,NA,1,0,NA
"1326",1017,1,"BCT_6",1,NA,1,0,NA
"1327",1017,1,"BCT_7",1,NA,1,0,NA
"1328",1017,1,"BCT_8",1,NA,1,0,NA
"1329",1017,1,"BCT_9",1,NA,1,0,NA
"1330",1017,1,"BCT_10",1,NA,1,0,NA
"1331",1017,1,"BCT_11",1,NA,1,0,NA
"1332",1017,1,"BCT_12",1,NA,1,0,NA
"1333",1017,1,"BCT_13",1,NA,0,0,NA
"1334",1017,1,"BCT_14",1,NA,1,0,NA
"1335",1017,1,"BCT_15",1,NA,1,0,NA
"1336",1017,1,"BCT_16",1,NA,0,0,NA
"1337",1017,1,"BCT_17",1,NA,1,0,NA
"1338",1017,1,"BCT_18",1,NA,1,0,NA
"1339",1017,1,"BCT_19",1,NA,1,0,NA
"1340",1017,1,"BCT_20",1,NA,0,0,NA
"1341",1017,1,"BIT_21",1,NA,1,0,NA
"1342",1017,1,"BIT_22",1,NA,0,0,NA
"1343",1017,1,"BIT_23",1,NA,1,0,NA
"1344",1017,1,"BIT_24",1,NA,1,0,NA
"1345",1017,1,"BIT_25",1,NA,1,0,NA
"1346",1017,1,"BIT_26",1,NA,1,0,NA
"1347",1017,1,"BIT_27",1,NA,0,0,NA
"1348",1017,1,"BIT_28",1,NA,0,0,NA
"1349",1017,1,"BIT_29",1,NA,1,0,NA
"1350",1017,1,"BIT_30",1,NA,0,0,NA
"1351",1017,1,"BIT_31",1,NA,0,0,NA
"1352",1017,1,"BIT_32",1,NA,0,0,NA
"1353",1017,1,"BIT_33",1,NA,0,0,NA
"1354",1017,1,"BIT_34",1,NA,0,0,NA
"1355",1017,1,"BIT_35",1,NA,0,0,NA
"1356",1017,1,"BIT_36",1,NA,0,0,NA
"1357",1017,1,"BIT_37",1,NA,0,0,NA
"1358",1017,1,"BIT_38",1,NA,0,0,NA
"1359",1017,1,"BIT_39",1,NA,0,0,NA
"1360",1017,1,"BIT_40",1,NA,0,0,NA
"1361",1018,1,"ACT_1",1,NA,0,1,NA
"1362",1018,1,"ACT_2",1,NA,0,1,NA
"1363",1018,1,"ACT_3",1,NA,1,1,NA
"1364",1018,1,"ACT_4",1,NA,1,1,NA
"1365",1018,1,"ACT_5",1,NA,1,1,NA
"1366",1018,1,"ACT_6",1,NA,1,1,NA
"1367",1018,1,"ACT_7",1,NA,0,1,NA
"1368",1018,1,"ACT_8",1,NA,1,1,NA
"1369",1018,1,"ACT_9",1,NA,1,1,NA
"1370",1018,1,"ACT_10",1,NA,1,1,NA
"1371",1018,1,"ACT_11",1,NA,1,1,NA
"1372",1018,1,"ACT_12",1,NA,1,1,NA
"1373",1018,1,"ACT_13",1,NA,0,1,NA
"1374",1018,1,"ACT_14",1,NA,0,1,NA
"1375",1018,1,"ACT_15",1,NA,1,1,NA
"1376",1018,1,"ACT_16",1,NA,1,1,NA
"1377",1018,1,"ACT_17",1,NA,1,1,NA
"1378",1018,1,"ACT_18",1,NA,1,1,NA
"1379",1018,1,"ACT_19",1,NA,1,1,NA
"1380",1018,1,"ACT_20",1,NA,0,1,NA
"1381",1018,1,"AIT_21",1,NA,1,1,NA
"1382",1018,1,"AIT_22",1,NA,1,1,NA
"1383",1018,1,"AIT_23",1,NA,1,1,NA
"1384",1018,1,"AIT_24",1,NA,0,1,NA
"1385",1018,1,"AIT_25",1,NA,0,1,NA
"1386",1018,1,"AIT_26",1,NA,1,1,NA
"1387",1018,1,"AIT_27",1,NA,1,1,NA
"1388",1018,1,"AIT_28",1,NA,1,1,NA
"1389",1018,1,"AIT_29",1,NA,1,1,NA
"1390",1018,1,"AIT_30",1,NA,1,1,NA
"1391",1018,1,"AIT_31",1,NA,1,1,NA
"1392",1018,1,"AIT_32",1,NA,1,1,NA
"1393",1018,1,"AIT_33",1,NA,1,1,NA
"1394",1018,1,"AIT_34",1,NA,1,1,NA
"1395",1018,1,"AIT_35",1,NA,1,1,NA
"1396",1018,1,"AIT_36",1,NA,0,1,NA
"1397",1018,1,"AIT_37",1,NA,1,1,NA
"1398",1018,1,"AIT_38",1,NA,0,1,NA
"1399",1018,1,"AIT_39",1,NA,1,1,NA
"1400",1018,1,"AIT_40",1,NA,1,1,NA
"1401",1018,1,"BCT_1",1,NA,1,0,NA
"1402",1018,1,"BCT_2",1,NA,0,0,NA
"1403",1018,1,"BCT_3",1,NA,1,0,NA
"1404",1018,1,"BCT_4",1,NA,1,0,NA
"1405",1018,1,"BCT_5",1,NA,1,0,NA
"1406",1018,1,"BCT_6",1,NA,0,0,NA
"1407",1018,1,"BCT_7",1,NA,1,0,NA
"1408",1018,1,"BCT_8",1,NA,1,0,NA
"1409",1018,1,"BCT_9",1,NA,1,0,NA
"1410",1018,1,"BCT_10",1,NA,1,0,NA
"1411",1018,1,"BCT_11",1,NA,0,0,NA
"1412",1018,1,"BCT_12",1,NA,0,0,NA
"1413",1018,1,"BCT_13",1,NA,0,0,NA
"1414",1018,1,"BCT_14",1,NA,0,0,NA
"1415",1018,1,"BCT_15",1,NA,1,0,NA
"1416",1018,1,"BCT_16",1,NA,1,0,NA
"1417",1018,1,"BCT_17",1,NA,1,0,NA
"1418",1018,1,"BCT_18",1,NA,0,0,NA
"1419",1018,1,"BCT_19",1,NA,1,0,NA
"1420",1018,1,"BCT_20",1,NA,1,0,NA
"1421",1018,1,"BIT_21",1,NA,0,0,NA
"1422",1018,1,"BIT_22",1,NA,0,0,NA
"1423",1018,1,"BIT_23",1,NA,1,0,NA
"1424",1018,1,"BIT_24",1,NA,1,0,NA
"1425",1018,1,"BIT_25",1,NA,1,0,NA
"1426",1018,1,"BIT_26",1,NA,1,0,NA
"1427",1018,1,"BIT_27",1,NA,0,0,NA
"1428",1018,1,"BIT_28",1,NA,1,0,NA
"1429",1018,1,"BIT_29",1,NA,1,0,NA
"1430",1018,1,"BIT_30",1,NA,0,0,NA
"1431",1018,1,"BIT_31",1,NA,1,0,NA
"1432",1018,1,"BIT_32",1,NA,1,0,NA
"1433",1018,1,"BIT_33",1,NA,1,0,NA
"1434",1018,1,"BIT_34",1,NA,1,0,NA
"1435",1018,1,"BIT_35",1,NA,1,0,NA
"1436",1018,1,"BIT_36",1,NA,1,0,NA
"1437",1018,1,"BIT_37",1,NA,0,0,NA
"1438",1018,1,"BIT_38",1,NA,1,0,NA
"1439",1018,1,"BIT_39",1,NA,1,0,NA
"1440",1018,1,"BIT_40",1,NA,0,0,NA
"1441",1019,1,"ACT_1",1,NA,1,1,NA
"1442",1019,1,"ACT_2",1,NA,1,1,NA
"1443",1019,1,"ACT_3",1,NA,1,1,NA
"1444",1019,1,"ACT_4",1,NA,1,1,NA
"1445",1019,1,"ACT_5",1,NA,1,1,NA
"1446",1019,1,"ACT_6",1,NA,1,1,NA
"1447",1019,1,"ACT_7",1,NA,0,1,NA
"1448",1019,1,"ACT_8",1,NA,1,1,NA
"1449",1019,1,"ACT_9",1,NA,1,1,NA
"1450",1019,1,"ACT_10",1,NA,1,1,NA
"1451",1019,1,"ACT_11",1,NA,1,1,NA
"1452",1019,1,"ACT_12",1,NA,1,1,NA
"1453",1019,1,"ACT_13",1,NA,0,1,NA
"1454",1019,1,"ACT_14",1,NA,0,1,NA
"1455",1019,1,"ACT_15",1,NA,0,1,NA
"1456",1019,1,"ACT_16",1,NA,1,1,NA
"1457",1019,1,"ACT_17",1,NA,1,1,NA
"1458",1019,1,"ACT_18",1,NA,1,1,NA
"1459",1019,1,"ACT_19",1,NA,0,1,NA
"1460",1019,1,"ACT_20",1,NA,0,1,NA
"1461",1019,1,"AIT_21",1,NA,1,1,NA
"1462",1019,1,"AIT_22",1,NA,1,1,NA
"1463",1019,1,"AIT_23",1,NA,1,1,NA
"1464",1019,1,"AIT_24",1,NA,1,1,NA
"1465",1019,1,"AIT_25",1,NA,0,1,NA
"1466",1019,1,"AIT_26",1,NA,0,1,NA
"1467",1019,1,"AIT_27",1,NA,1,1,NA
"1468",1019,1,"AIT_28",1,NA,0,1,NA
"1469",1019,1,"AIT_29",1,NA,0,1,NA
"1470",1019,1,"AIT_30",1,NA,1,1,NA
"1471",1019,1,"AIT_31",1,NA,0,1,NA
"1472",1019,1,"AIT_32",1,NA,0,1,NA
"1473",1019,1,"AIT_33",1,NA,1,1,NA
"1474",1019,1,"AIT_34",1,NA,0,1,NA
"1475",1019,1,"AIT_35",1,NA,0,1,NA
"1476",1019,1,"AIT_36",1,NA,0,1,NA
"1477",1019,1,"AIT_37",1,NA,0,1,NA
"1478",1019,1,"AIT_38",1,NA,0,1,NA
"1479",1019,1,"AIT_39",1,NA,0,1,NA
"1480",1019,1,"AIT_40",1,NA,0,1,NA
"1481",1019,1,"BCT_1",1,NA,0,0,NA
"1482",1019,1,"BCT_2",1,NA,1,0,NA
"1483",1019,1,"BCT_3",1,NA,1,0,NA
"1484",1019,1,"BCT_4",1,NA,1,0,NA
"1485",1019,1,"BCT_5",1,NA,1,0,NA
"1486",1019,1,"BCT_6",1,NA,1,0,NA
"1487",1019,1,"BCT_7",1,NA,1,0,NA
"1488",1019,1,"BCT_8",1,NA,0,0,NA
"1489",1019,1,"BCT_9",1,NA,1,0,NA
"1490",1019,1,"BCT_10",1,NA,1,0,NA
"1491",1019,1,"BCT_11",1,NA,0,0,NA
"1492",1019,1,"BCT_12",1,NA,0,0,NA
"1493",1019,1,"BCT_13",1,NA,1,0,NA
"1494",1019,1,"BCT_14",1,NA,0,0,NA
"1495",1019,1,"BCT_15",1,NA,0,0,NA
"1496",1019,1,"BCT_16",1,NA,1,0,NA
"1497",1019,1,"BCT_17",1,NA,1,0,NA
"1498",1019,1,"BCT_18",1,NA,1,0,NA
"1499",1019,1,"BCT_19",1,NA,1,0,NA
"1500",1019,1,"BCT_20",1,NA,1,0,NA
"1501",1019,1,"BIT_21",1,NA,1,0,NA
"1502",1019,1,"BIT_22",1,NA,0,0,NA
"1503",1019,1,"BIT_23",1,NA,0,0,NA
"1504",1019,1,"BIT_24",1,NA,0,0,NA
"1505",1019,1,"BIT_25",1,NA,1,0,NA
"1506",1019,1,"BIT_26",1,NA,1,0,NA
"1507",1019,1,"BIT_27",1,NA,1,0,NA
"1508",1019,1,"BIT_28",1,NA,0,0,NA
"1509",1019,1,"BIT_29",1,NA,0,0,NA
"1510",1019,1,"BIT_30",1,NA,0,0,NA
"1511",1019,1,"BIT_31",1,NA,0,0,NA
"1512",1019,1,"BIT_32",1,NA,0,0,NA
"1513",1019,1,"BIT_33",1,NA,0,0,NA
"1514",1019,1,"BIT_34",1,NA,0,0,NA
"1515",1019,1,"BIT_35",1,NA,0,0,NA
"1516",1019,1,"BIT_36",1,NA,0,0,NA
"1517",1019,1,"BIT_37",1,NA,0,0,NA
"1518",1019,1,"BIT_38",1,NA,0,0,NA
"1519",1019,1,"BIT_39",1,NA,0,0,NA
"1520",1019,1,"BIT_40",1,NA,0,0,NA
"1521",1020,1,"ACT_1",1,NA,1,1,NA
"1522",1020,1,"ACT_2",1,NA,1,1,NA
"1523",1020,1,"ACT_3",1,NA,1,1,NA
"1524",1020,1,"ACT_4",1,NA,1,1,NA
"1525",1020,1,"ACT_5",1,NA,1,1,NA
"1526",1020,1,"ACT_6",1,NA,1,1,NA
"1527",1020,1,"ACT_7",1,NA,1,1,NA
"1528",1020,1,"ACT_8",1,NA,1,1,NA
"1529",1020,1,"ACT_9",1,NA,0,1,NA
"1530",1020,1,"ACT_10",1,NA,1,1,NA
"1531",1020,1,"ACT_11",1,NA,1,1,NA
"1532",1020,1,"ACT_12",1,NA,1,1,NA
"1533",1020,1,"ACT_13",1,NA,1,1,NA
"1534",1020,1,"ACT_14",1,NA,1,1,NA
"1535",1020,1,"ACT_15",1,NA,1,1,NA
"1536",1020,1,"ACT_16",1,NA,1,1,NA
"1537",1020,1,"ACT_17",1,NA,1,1,NA
"1538",1020,1,"ACT_18",1,NA,0,1,NA
"1539",1020,1,"ACT_19",1,NA,1,1,NA
"1540",1020,1,"ACT_20",1,NA,1,1,NA
"1541",1020,1,"AIT_21",1,NA,0,1,NA
"1542",1020,1,"AIT_22",1,NA,0,1,NA
"1543",1020,1,"AIT_23",1,NA,0,1,NA
"1544",1020,1,"AIT_24",1,NA,0,1,NA
"1545",1020,1,"AIT_25",1,NA,1,1,NA
"1546",1020,1,"AIT_26",1,NA,0,1,NA
"1547",1020,1,"AIT_27",1,NA,0,1,NA
"1548",1020,1,"AIT_28",1,NA,0,1,NA
"1549",1020,1,"AIT_29",1,NA,0,1,NA
"1550",1020,1,"AIT_30",1,NA,0,1,NA
"1551",1020,1,"AIT_31",1,NA,0,1,NA
"1552",1020,1,"AIT_32",1,NA,0,1,NA
"1553",1020,1,"AIT_33",1,NA,0,1,NA
"1554",1020,1,"AIT_34",1,NA,0,1,NA
"1555",1020,1,"AIT_35",1,NA,0,1,NA
"1556",1020,1,"AIT_36",1,NA,0,1,NA
"1557",1020,1,"AIT_37",1,NA,0,1,NA
"1558",1020,1,"AIT_38",1,NA,0,1,NA
"1559",1020,1,"AIT_39",1,NA,0,1,NA
"1560",1020,1,"AIT_40",1,NA,0,1,NA
"1561",1020,1,"BCT_1",1,NA,1,0,NA
"1562",1020,1,"BCT_2",1,NA,1,0,NA
"1563",1020,1,"BCT_3",1,NA,1,0,NA
"1564",1020,1,"BCT_4",1,NA,1,0,NA
"1565",1020,1,"BCT_5",1,NA,1,0,NA
"1566",1020,1,"BCT_6",1,NA,1,0,NA
"1567",1020,1,"BCT_7",1,NA,1,0,NA
"1568",1020,1,"BCT_8",1,NA,1,0,NA
"1569",1020,1,"BCT_9",1,NA,1,0,NA
"1570",1020,1,"BCT_10",1,NA,1,0,NA
"1571",1020,1,"BCT_11",1,NA,1,0,NA
"1572",1020,1,"BCT_12",1,NA,1,0,NA
"1573",1020,1,"BCT_13",1,NA,1,0,NA
"1574",1020,1,"BCT_14",1,NA,1,0,NA
"1575",1020,1,"BCT_15",1,NA,1,0,NA
"1576",1020,1,"BCT_16",1,NA,1,0,NA
"1577",1020,1,"BCT_17",1,NA,1,0,NA
"1578",1020,1,"BCT_18",1,NA,1,0,NA
"1579",1020,1,"BCT_19",1,NA,1,0,NA
"1580",1020,1,"BCT_20",1,NA,1,0,NA
"1581",1020,1,"BIT_21",1,NA,0,0,NA
"1582",1020,1,"BIT_22",1,NA,0,0,NA
"1583",1020,1,"BIT_23",1,NA,1,0,NA
"1584",1020,1,"BIT_24",1,NA,1,0,NA
"1585",1020,1,"BIT_25",1,NA,0,0,NA
"1586",1020,1,"BIT_26",1,NA,0,0,NA
"1587",1020,1,"BIT_27",1,NA,0,0,NA
"1588",1020,1,"BIT_28",1,NA,0,0,NA
"1589",1020,1,"BIT_29",1,NA,0,0,NA
"1590",1020,1,"BIT_30",1,NA,0,0,NA
"1591",1020,1,"BIT_31",1,NA,0,0,NA
"1592",1020,1,"BIT_32",1,NA,0,0,NA
"1593",1020,1,"BIT_33",1,NA,0,0,NA
"1594",1020,1,"BIT_34",1,NA,0,0,NA
"1595",1020,1,"BIT_35",1,NA,0,0,NA
"1596",1020,1,"BIT_36",1,NA,0,0,NA
"1597",1020,1,"BIT_37",1,NA,0,0,NA
"1598",1020,1,"BIT_38",1,NA,0,0,NA
"1599",1020,1,"BIT_39",1,NA,0,0,NA
"1600",1020,1,"BIT_40",1,NA,0,0,NA
"1601",1021,1,"ACT_1",1,NA,0,1,NA
"1602",1021,1,"ACT_2",1,NA,1,1,NA
"1603",1021,1,"ACT_3",1,NA,0,1,NA
"1604",1021,1,"ACT_4",1,NA,1,1,NA
"1605",1021,1,"ACT_5",1,NA,1,1,NA
"1606",1021,1,"ACT_6",1,NA,0,1,NA
"1607",1021,1,"ACT_7",1,NA,1,1,NA
"1608",1021,1,"ACT_8",1,NA,1,1,NA
"1609",1021,1,"ACT_9",1,NA,1,1,NA
"1610",1021,1,"ACT_10",1,NA,1,1,NA
"1611",1021,1,"ACT_11",1,NA,0,1,NA
"1612",1021,1,"ACT_12",1,NA,0,1,NA
"1613",1021,1,"ACT_13",1,NA,1,1,NA
"1614",1021,1,"ACT_14",1,NA,0,1,NA
"1615",1021,1,"ACT_15",1,NA,1,1,NA
"1616",1021,1,"ACT_16",1,NA,0,1,NA
"1617",1021,1,"ACT_17",1,NA,1,1,NA
"1618",1021,1,"ACT_18",1,NA,1,1,NA
"1619",1021,1,"ACT_19",1,NA,1,1,NA
"1620",1021,1,"ACT_20",1,NA,0,1,NA
"1621",1021,1,"AIT_21",1,NA,1,1,NA
"1622",1021,1,"AIT_22",1,NA,1,1,NA
"1623",1021,1,"AIT_23",1,NA,1,1,NA
"1624",1021,1,"AIT_24",1,NA,1,1,NA
"1625",1021,1,"AIT_25",1,NA,1,1,NA
"1626",1021,1,"AIT_26",1,NA,0,1,NA
"1627",1021,1,"AIT_27",1,NA,1,1,NA
"1628",1021,1,"AIT_28",1,NA,1,1,NA
"1629",1021,1,"AIT_29",1,NA,0,1,NA
"1630",1021,1,"AIT_30",1,NA,1,1,NA
"1631",1021,1,"AIT_31",1,NA,1,1,NA
"1632",1021,1,"AIT_32",1,NA,1,1,NA
"1633",1021,1,"AIT_33",1,NA,1,1,NA
"1634",1021,1,"AIT_34",1,NA,1,1,NA
"1635",1021,1,"AIT_35",1,NA,1,1,NA
"1636",1021,1,"AIT_36",1,NA,0,1,NA
"1637",1021,1,"AIT_37",1,NA,1,1,NA
"1638",1021,1,"AIT_38",1,NA,0,1,NA
"1639",1021,1,"AIT_39",1,NA,1,1,NA
"1640",1021,1,"AIT_40",1,NA,1,1,NA
"1641",1021,1,"BCT_1",1,NA,1,0,NA
"1642",1021,1,"BCT_2",1,NA,0,0,NA
"1643",1021,1,"BCT_3",1,NA,1,0,NA
"1644",1021,1,"BCT_4",1,NA,1,0,NA
"1645",1021,1,"BCT_5",1,NA,1,0,NA
"1646",1021,1,"BCT_6",1,NA,0,0,NA
"1647",1021,1,"BCT_7",1,NA,1,0,NA
"1648",1021,1,"BCT_8",1,NA,1,0,NA
"1649",1021,1,"BCT_9",1,NA,1,0,NA
"1650",1021,1,"BCT_10",1,NA,1,0,NA
"1651",1021,1,"BCT_11",1,NA,1,0,NA
"1652",1021,1,"BCT_12",1,NA,1,0,NA
"1653",1021,1,"BCT_13",1,NA,1,0,NA
"1654",1021,1,"BCT_14",1,NA,1,0,NA
"1655",1021,1,"BCT_15",1,NA,1,0,NA
"1656",1021,1,"BCT_16",1,NA,1,0,NA
"1657",1021,1,"BCT_17",1,NA,1,0,NA
"1658",1021,1,"BCT_18",1,NA,1,0,NA
"1659",1021,1,"BCT_19",1,NA,1,0,NA
"1660",1021,1,"BCT_20",1,NA,0,0,NA
"1661",1021,1,"BIT_21",1,NA,0,0,NA
"1662",1021,1,"BIT_22",1,NA,1,0,NA
"1663",1021,1,"BIT_23",1,NA,0,0,NA
"1664",1021,1,"BIT_24",1,NA,1,0,NA
"1665",1021,1,"BIT_25",1,NA,0,0,NA
"1666",1021,1,"BIT_26",1,NA,0,0,NA
"1667",1021,1,"BIT_27",1,NA,0,0,NA
"1668",1021,1,"BIT_28",1,NA,0,0,NA
"1669",1021,1,"BIT_29",1,NA,0,0,NA
"1670",1021,1,"BIT_30",1,NA,1,0,NA
"1671",1021,1,"BIT_31",1,NA,1,0,NA
"1672",1021,1,"BIT_32",1,NA,1,0,NA
"1673",1021,1,"BIT_33",1,NA,1,0,NA
"1674",1021,1,"BIT_34",1,NA,0,0,NA
"1675",1021,1,"BIT_35",1,NA,1,0,NA
"1676",1021,1,"BIT_36",1,NA,1,0,NA
"1677",1021,1,"BIT_37",1,NA,1,0,NA
"1678",1021,1,"BIT_38",1,NA,0,0,NA
"1679",1021,1,"BIT_39",1,NA,1,0,NA
"1680",1021,1,"BIT_40",1,NA,1,0,NA
"1681",1022,1,"ACT_1",1,NA,1,1,NA
"1682",1022,1,"ACT_2",1,NA,1,1,NA
"1683",1022,1,"ACT_3",1,NA,1,1,NA
"1684",1022,1,"ACT_4",1,NA,0,1,NA
"1685",1022,1,"ACT_5",1,NA,1,1,NA
"1686",1022,1,"ACT_6",1,NA,1,1,NA
"1687",1022,1,"ACT_7",1,NA,1,1,NA
"1688",1022,1,"ACT_8",1,NA,0,1,NA
"1689",1022,1,"ACT_9",1,NA,1,1,NA
"1690",1022,1,"ACT_10",1,NA,1,1,NA
"1691",1022,1,"ACT_11",1,NA,0,1,NA
"1692",1022,1,"ACT_12",1,NA,0,1,NA
"1693",1022,1,"ACT_13",1,NA,1,1,NA
"1694",1022,1,"ACT_14",1,NA,0,1,NA
"1695",1022,1,"ACT_15",1,NA,1,1,NA
"1696",1022,1,"ACT_16",1,NA,0,1,NA
"1697",1022,1,"ACT_17",1,NA,1,1,NA
"1698",1022,1,"ACT_18",1,NA,0,1,NA
"1699",1022,1,"ACT_19",1,NA,0,1,NA
"1700",1022,1,"ACT_20",1,NA,1,1,NA
"1701",1022,1,"AIT_21",1,NA,1,1,NA
"1702",1022,1,"AIT_22",1,NA,0,1,NA
"1703",1022,1,"AIT_23",1,NA,1,1,NA
"1704",1022,1,"AIT_24",1,NA,1,1,NA
"1705",1022,1,"AIT_25",1,NA,0,1,NA
"1706",1022,1,"AIT_26",1,NA,0,1,NA
"1707",1022,1,"AIT_27",1,NA,1,1,NA
"1708",1022,1,"AIT_28",1,NA,1,1,NA
"1709",1022,1,"AIT_29",1,NA,0,1,NA
"1710",1022,1,"AIT_30",1,NA,0,1,NA
"1711",1022,1,"AIT_31",1,NA,0,1,NA
"1712",1022,1,"AIT_32",1,NA,0,1,NA
"1713",1022,1,"AIT_33",1,NA,1,1,NA
"1714",1022,1,"AIT_34",1,NA,1,1,NA
"1715",1022,1,"AIT_35",1,NA,0,1,NA
"1716",1022,1,"AIT_36",1,NA,0,1,NA
"1717",1022,1,"AIT_37",1,NA,0,1,NA
"1718",1022,1,"AIT_38",1,NA,0,1,NA
"1719",1022,1,"AIT_39",1,NA,0,1,NA
"1720",1022,1,"AIT_40",1,NA,0,1,NA
"1721",1022,1,"BCT_1",1,NA,1,0,NA
"1722",1022,1,"BCT_2",1,NA,0,0,NA
"1723",1022,1,"BCT_3",1,NA,1,0,NA
"1724",1022,1,"BCT_4",1,NA,1,0,NA
"1725",1022,1,"BCT_5",1,NA,1,0,NA
"1726",1022,1,"BCT_6",1,NA,1,0,NA
"1727",1022,1,"BCT_7",1,NA,1,0,NA
"1728",1022,1,"BCT_8",1,NA,1,0,NA
"1729",1022,1,"BCT_9",1,NA,1,0,NA
"1730",1022,1,"BCT_10",1,NA,1,0,NA
"1731",1022,1,"BCT_11",1,NA,1,0,NA
"1732",1022,1,"BCT_12",1,NA,0,0,NA
"1733",1022,1,"BCT_13",1,NA,1,0,NA
"1734",1022,1,"BCT_14",1,NA,0,0,NA
"1735",1022,1,"BCT_15",1,NA,0,0,NA
"1736",1022,1,"BCT_16",1,NA,1,0,NA
"1737",1022,1,"BCT_17",1,NA,1,0,NA
"1738",1022,1,"BCT_18",1,NA,0,0,NA
"1739",1022,1,"BCT_19",1,NA,0,0,NA
"1740",1022,1,"BCT_20",1,NA,1,0,NA
"1741",1022,1,"BIT_21",1,NA,0,0,NA
"1742",1022,1,"BIT_22",1,NA,1,0,NA
"1743",1022,1,"BIT_23",1,NA,1,0,NA
"1744",1022,1,"BIT_24",1,NA,0,0,NA
"1745",1022,1,"BIT_25",1,NA,1,0,NA
"1746",1022,1,"BIT_26",1,NA,0,0,NA
"1747",1022,1,"BIT_27",1,NA,0,0,NA
"1748",1022,1,"BIT_28",1,NA,0,0,NA
"1749",1022,1,"BIT_29",1,NA,1,0,NA
"1750",1022,1,"BIT_30",1,NA,1,0,NA
"1751",1022,1,"BIT_31",1,NA,0,0,NA
"1752",1022,1,"BIT_32",1,NA,0,0,NA
"1753",1022,1,"BIT_33",1,NA,0,0,NA
"1754",1022,1,"BIT_34",1,NA,0,0,NA
"1755",1022,1,"BIT_35",1,NA,0,0,NA
"1756",1022,1,"BIT_36",1,NA,0,0,NA
"1757",1022,1,"BIT_37",1,NA,0,0,NA
"1758",1022,1,"BIT_38",1,NA,0,0,NA
"1759",1022,1,"BIT_39",1,NA,0,0,NA
"1760",1022,1,"BIT_40",1,NA,0,0,NA
"1761",1023,1,"ACT_1",1,NA,0,1,NA
"1762",1023,1,"ACT_2",1,NA,1,1,NA
"1763",1023,1,"ACT_3",1,NA,1,1,NA
"1764",1023,1,"ACT_4",1,NA,1,1,NA
"1765",1023,1,"ACT_5",1,NA,0,1,NA
"1766",1023,1,"ACT_6",1,NA,1,1,NA
"1767",1023,1,"ACT_7",1,NA,1,1,NA
"1768",1023,1,"ACT_8",1,NA,1,1,NA
"1769",1023,1,"ACT_9",1,NA,1,1,NA
"1770",1023,1,"ACT_10",1,NA,0,1,NA
"1771",1023,1,"ACT_11",1,NA,1,1,NA
"1772",1023,1,"ACT_12",1,NA,1,1,NA
"1773",1023,1,"ACT_13",1,NA,1,1,NA
"1774",1023,1,"ACT_14",1,NA,1,1,NA
"1775",1023,1,"ACT_15",1,NA,1,1,NA
"1776",1023,1,"ACT_16",1,NA,1,1,NA
"1777",1023,1,"ACT_17",1,NA,1,1,NA
"1778",1023,1,"ACT_18",1,NA,1,1,NA
"1779",1023,1,"ACT_19",1,NA,0,1,NA
"1780",1023,1,"ACT_20",1,NA,1,1,NA
"1781",1023,1,"AIT_21",1,NA,1,1,NA
"1782",1023,1,"AIT_22",1,NA,1,1,NA
"1783",1023,1,"AIT_23",1,NA,0,1,NA
"1784",1023,1,"AIT_24",1,NA,0,1,NA
"1785",1023,1,"AIT_25",1,NA,0,1,NA
"1786",1023,1,"AIT_26",1,NA,1,1,NA
"1787",1023,1,"AIT_27",1,NA,1,1,NA
"1788",1023,1,"AIT_28",1,NA,0,1,NA
"1789",1023,1,"AIT_29",1,NA,0,1,NA
"1790",1023,1,"AIT_30",1,NA,0,1,NA
"1791",1023,1,"AIT_31",1,NA,0,1,NA
"1792",1023,1,"AIT_32",1,NA,0,1,NA
"1793",1023,1,"AIT_33",1,NA,1,1,NA
"1794",1023,1,"AIT_34",1,NA,1,1,NA
"1795",1023,1,"AIT_35",1,NA,0,1,NA
"1796",1023,1,"AIT_36",1,NA,0,1,NA
"1797",1023,1,"AIT_37",1,NA,0,1,NA
"1798",1023,1,"AIT_38",1,NA,1,1,NA
"1799",1023,1,"AIT_39",1,NA,0,1,NA
"1800",1023,1,"AIT_40",1,NA,0,1,NA
"1801",1023,1,"BCT_1",1,NA,1,0,NA
"1802",1023,1,"BCT_2",1,NA,1,0,NA
"1803",1023,1,"BCT_3",1,NA,1,0,NA
"1804",1023,1,"BCT_4",1,NA,1,0,NA
"1805",1023,1,"BCT_5",1,NA,1,0,NA
"1806",1023,1,"BCT_6",1,NA,1,0,NA
"1807",1023,1,"BCT_7",1,NA,1,0,NA
"1808",1023,1,"BCT_8",1,NA,1,0,NA
"1809",1023,1,"BCT_9",1,NA,1,0,NA
"1810",1023,1,"BCT_10",1,NA,1,0,NA
"1811",1023,1,"BCT_11",1,NA,1,0,NA
"1812",1023,1,"BCT_12",1,NA,1,0,NA
"1813",1023,1,"BCT_13",1,NA,1,0,NA
"1814",1023,1,"BCT_14",1,NA,0,0,NA
"1815",1023,1,"BCT_15",1,NA,0,0,NA
"1816",1023,1,"BCT_16",1,NA,1,0,NA
"1817",1023,1,"BCT_17",1,NA,0,0,NA
"1818",1023,1,"BCT_18",1,NA,1,0,NA
"1819",1023,1,"BCT_19",1,NA,1,0,NA
"1820",1023,1,"BCT_20",1,NA,0,0,NA
"1821",1023,1,"BIT_21",1,NA,1,0,NA
"1822",1023,1,"BIT_22",1,NA,0,0,NA
"1823",1023,1,"BIT_23",1,NA,1,0,NA
"1824",1023,1,"BIT_24",1,NA,0,0,NA
"1825",1023,1,"BIT_25",1,NA,1,0,NA
"1826",1023,1,"BIT_26",1,NA,1,0,NA
"1827",1023,1,"BIT_27",1,NA,0,0,NA
"1828",1023,1,"BIT_28",1,NA,0,0,NA
"1829",1023,1,"BIT_29",1,NA,1,0,NA
"1830",1023,1,"BIT_30",1,NA,1,0,NA
"1831",1023,1,"BIT_31",1,NA,1,0,NA
"1832",1023,1,"BIT_32",1,NA,0,0,NA
"1833",1023,1,"BIT_33",1,NA,1,0,NA
"1834",1023,1,"BIT_34",1,NA,1,0,NA
"1835",1023,1,"BIT_35",1,NA,0,0,NA
"1836",1023,1,"BIT_36",1,NA,1,0,NA
"1837",1023,1,"BIT_37",1,NA,0,0,NA
"1838",1023,1,"BIT_38",1,NA,1,0,NA
"1839",1023,1,"BIT_39",1,NA,0,0,NA
"1840",1023,1,"BIT_40",1,NA,0,0,NA
"1841",1024,1,"ACT_1",1,NA,1,1,NA
"1842",1024,1,"ACT_2",1,NA,1,1,NA
"1843",1024,1,"ACT_3",1,NA,1,1,NA
"1844",1024,1,"ACT_4",1,NA,1,1,NA
"1845",1024,1,"ACT_5",1,NA,1,1,NA
"1846",1024,1,"ACT_6",1,NA,1,1,NA
"1847",1024,1,"ACT_7",1,NA,1,1,NA
"1848",1024,1,"ACT_8",1,NA,1,1,NA
"1849",1024,1,"ACT_9",1,NA,1,1,NA
"1850",1024,1,"ACT_10",1,NA,0,1,NA
"1851",1024,1,"ACT_11",1,NA,1,1,NA
"1852",1024,1,"ACT_12",1,NA,1,1,NA
"1853",1024,1,"ACT_13",1,NA,1,1,NA
"1854",1024,1,"ACT_14",1,NA,1,1,NA
"1855",1024,1,"ACT_15",1,NA,1,1,NA
"1856",1024,1,"ACT_16",1,NA,0,1,NA
"1857",1024,1,"ACT_17",1,NA,0,1,NA
"1858",1024,1,"ACT_18",1,NA,1,1,NA
"1859",1024,1,"ACT_19",1,NA,1,1,NA
"1860",1024,1,"ACT_20",1,NA,0,1,NA
"1861",1024,1,"AIT_21",1,NA,1,1,NA
"1862",1024,1,"AIT_22",1,NA,1,1,NA
"1863",1024,1,"AIT_23",1,NA,1,1,NA
"1864",1024,1,"AIT_24",1,NA,0,1,NA
"1865",1024,1,"AIT_25",1,NA,0,1,NA
"1866",1024,1,"AIT_26",1,NA,0,1,NA
"1867",1024,1,"AIT_27",1,NA,0,1,NA
"1868",1024,1,"AIT_28",1,NA,0,1,NA
"1869",1024,1,"AIT_29",1,NA,0,1,NA
"1870",1024,1,"AIT_30",1,NA,0,1,NA
"1871",1024,1,"AIT_31",1,NA,0,1,NA
"1872",1024,1,"AIT_32",1,NA,0,1,NA
"1873",1024,1,"AIT_33",1,NA,0,1,NA
"1874",1024,1,"AIT_34",1,NA,0,1,NA
"1875",1024,1,"AIT_35",1,NA,0,1,NA
"1876",1024,1,"AIT_36",1,NA,0,1,NA
"1877",1024,1,"AIT_37",1,NA,0,1,NA
"1878",1024,1,"AIT_38",1,NA,0,1,NA
"1879",1024,1,"AIT_39",1,NA,0,1,NA
"1880",1024,1,"AIT_40",1,NA,0,1,NA
"1881",1024,1,"BCT_1",1,NA,1,0,NA
"1882",1024,1,"BCT_2",1,NA,1,0,NA
"1883",1024,1,"BCT_3",1,NA,1,0,NA
"1884",1024,1,"BCT_4",1,NA,1,0,NA
"1885",1024,1,"BCT_5",1,NA,1,0,NA
"1886",1024,1,"BCT_6",1,NA,1,0,NA
"1887",1024,1,"BCT_7",1,NA,1,0,NA
"1888",1024,1,"BCT_8",1,NA,1,0,NA
"1889",1024,1,"BCT_9",1,NA,1,0,NA
"1890",1024,1,"BCT_10",1,NA,1,0,NA
"1891",1024,1,"BCT_11",1,NA,0,0,NA
"1892",1024,1,"BCT_12",1,NA,1,0,NA
"1893",1024,1,"BCT_13",1,NA,1,0,NA
"1894",1024,1,"BCT_14",1,NA,0,0,NA
"1895",1024,1,"BCT_15",1,NA,1,0,NA
"1896",1024,1,"BCT_16",1,NA,0,0,NA
"1897",1024,1,"BCT_17",1,NA,1,0,NA
"1898",1024,1,"BCT_18",1,NA,1,0,NA
"1899",1024,1,"BCT_19",1,NA,1,0,NA
"1900",1024,1,"BCT_20",1,NA,0,0,NA
"1901",1024,1,"BIT_21",1,NA,0,0,NA
"1902",1024,1,"BIT_22",1,NA,1,0,NA
"1903",1024,1,"BIT_23",1,NA,0,0,NA
"1904",1024,1,"BIT_24",1,NA,0,0,NA
"1905",1024,1,"BIT_25",1,NA,1,0,NA
"1906",1024,1,"BIT_26",1,NA,0,0,NA
"1907",1024,1,"BIT_27",1,NA,0,0,NA
"1908",1024,1,"BIT_28",1,NA,0,0,NA
"1909",1024,1,"BIT_29",1,NA,0,0,NA
"1910",1024,1,"BIT_30",1,NA,1,0,NA
"1911",1024,1,"BIT_31",1,NA,0,0,NA
"1912",1024,1,"BIT_32",1,NA,0,0,NA
"1913",1024,1,"BIT_33",1,NA,0,0,NA
"1914",1024,1,"BIT_34",1,NA,0,0,NA
"1915",1024,1,"BIT_35",1,NA,0,0,NA
"1916",1024,1,"BIT_36",1,NA,0,0,NA
"1917",1024,1,"BIT_37",1,NA,0,0,NA
"1918",1024,1,"BIT_38",1,NA,0,0,NA
"1919",1024,1,"BIT_39",1,NA,0,0,NA
"1920",1024,1,"BIT_40",1,NA,0,0,NA
"1921",1025,1,"ACT_1",1,NA,1,1,NA
"1922",1025,1,"ACT_2",1,NA,1,1,NA
"1923",1025,1,"ACT_3",1,NA,1,1,NA
"1924",1025,1,"ACT_4",1,NA,1,1,NA
"1925",1025,1,"ACT_5",1,NA,1,1,NA
"1926",1025,1,"ACT_6",1,NA,1,1,NA
"1927",1025,1,"ACT_7",1,NA,1,1,NA
"1928",1025,1,"ACT_8",1,NA,1,1,NA
"1929",1025,1,"ACT_9",1,NA,1,1,NA
"1930",1025,1,"ACT_10",1,NA,1,1,NA
"1931",1025,1,"ACT_11",1,NA,1,1,NA
"1932",1025,1,"ACT_12",1,NA,1,1,NA
"1933",1025,1,"ACT_13",1,NA,1,1,NA
"1934",1025,1,"ACT_14",1,NA,1,1,NA
"1935",1025,1,"ACT_15",1,NA,1,1,NA
"1936",1025,1,"ACT_16",1,NA,1,1,NA
"1937",1025,1,"ACT_17",1,NA,1,1,NA
"1938",1025,1,"ACT_18",1,NA,1,1,NA
"1939",1025,1,"ACT_19",1,NA,1,1,NA
"1940",1025,1,"ACT_20",1,NA,1,1,NA
"1941",1025,1,"AIT_21",1,NA,1,1,NA
"1942",1025,1,"AIT_22",1,NA,0,1,NA
"1943",1025,1,"AIT_23",1,NA,0,1,NA
"1944",1025,1,"AIT_24",1,NA,1,1,NA
"1945",1025,1,"AIT_25",1,NA,0,1,NA
"1946",1025,1,"AIT_26",1,NA,0,1,NA
"1947",1025,1,"AIT_27",1,NA,0,1,NA
"1948",1025,1,"AIT_28",1,NA,0,1,NA
"1949",1025,1,"AIT_29",1,NA,0,1,NA
"1950",1025,1,"AIT_30",1,NA,0,1,NA
"1951",1025,1,"AIT_31",1,NA,0,1,NA
"1952",1025,1,"AIT_32",1,NA,0,1,NA
"1953",1025,1,"AIT_33",1,NA,0,1,NA
"1954",1025,1,"AIT_34",1,NA,0,1,NA
"1955",1025,1,"AIT_35",1,NA,0,1,NA
"1956",1025,1,"AIT_36",1,NA,0,1,NA
"1957",1025,1,"AIT_37",1,NA,0,1,NA
"1958",1025,1,"AIT_38",1,NA,0,1,NA
"1959",1025,1,"AIT_39",1,NA,0,1,NA
"1960",1025,1,"AIT_40",1,NA,0,1,NA
"1961",1025,1,"BCT_1",1,NA,1,0,NA
"1962",1025,1,"BCT_2",1,NA,1,0,NA
"1963",1025,1,"BCT_3",1,NA,1,0,NA
"1964",1025,1,"BCT_4",1,NA,1,0,NA
"1965",1025,1,"BCT_5",1,NA,1,0,NA
"1966",1025,1,"BCT_6",1,NA,1,0,NA
"1967",1025,1,"BCT_7",1,NA,1,0,NA
"1968",1025,1,"BCT_8",1,NA,1,0,NA
"1969",1025,1,"BCT_9",1,NA,1,0,NA
"1970",1025,1,"BCT_10",1,NA,1,0,NA
"1971",1025,1,"BCT_11",1,NA,0,0,NA
"1972",1025,1,"BCT_12",1,NA,1,0,NA
"1973",1025,1,"BCT_13",1,NA,1,0,NA
"1974",1025,1,"BCT_14",1,NA,0,0,NA
"1975",1025,1,"BCT_15",1,NA,1,0,NA
"1976",1025,1,"BCT_16",1,NA,1,0,NA
"1977",1025,1,"BCT_17",1,NA,0,0,NA
"1978",1025,1,"BCT_18",1,NA,1,0,NA
"1979",1025,1,"BCT_19",1,NA,1,0,NA
"1980",1025,1,"BCT_20",1,NA,0,0,NA
"1981",1025,1,"BIT_21",1,NA,1,0,NA
"1982",1025,1,"BIT_22",1,NA,1,0,NA
"1983",1025,1,"BIT_23",1,NA,0,0,NA
"1984",1025,1,"BIT_24",1,NA,0,0,NA
"1985",1025,1,"BIT_25",1,NA,0,0,NA
"1986",1025,1,"BIT_26",1,NA,1,0,NA
"1987",1025,1,"BIT_27",1,NA,0,0,NA
"1988",1025,1,"BIT_28",1,NA,0,0,NA
"1989",1025,1,"BIT_29",1,NA,0,0,NA
"1990",1025,1,"BIT_30",1,NA,0,0,NA
"1991",1025,1,"BIT_31",1,NA,0,0,NA
"1992",1025,1,"BIT_32",1,NA,0,0,NA
"1993",1025,1,"BIT_33",1,NA,0,0,NA
"1994",1025,1,"BIT_34",1,NA,0,0,NA
"1995",1025,1,"BIT_35",1,NA,0,0,NA
"1996",1025,1,"BIT_36",1,NA,0,0,NA
"1997",1025,1,"BIT_37",1,NA,0,0,NA
"1998",1025,1,"BIT_38",1,NA,0,0,NA
"1999",1025,1,"BIT_39",1,NA,0,0,NA
"2000",1025,1,"BIT_40",1,NA,0,0,NA
"2001",1026,1,"ACT_1",1,NA,1,1,NA
"2002",1026,1,"ACT_2",1,NA,1,1,NA
"2003",1026,1,"ACT_3",1,NA,1,1,NA
"2004",1026,1,"ACT_4",1,NA,1,1,NA
"2005",1026,1,"ACT_5",1,NA,1,1,NA
"2006",1026,1,"ACT_6",1,NA,1,1,NA
"2007",1026,1,"ACT_7",1,NA,1,1,NA
"2008",1026,1,"ACT_8",1,NA,1,1,NA
"2009",1026,1,"ACT_9",1,NA,1,1,NA
"2010",1026,1,"ACT_10",1,NA,1,1,NA
"2011",1026,1,"ACT_11",1,NA,1,1,NA
"2012",1026,1,"ACT_12",1,NA,1,1,NA
"2013",1026,1,"ACT_13",1,NA,1,1,NA
"2014",1026,1,"ACT_14",1,NA,1,1,NA
"2015",1026,1,"ACT_15",1,NA,1,1,NA
"2016",1026,1,"ACT_16",1,NA,1,1,NA
"2017",1026,1,"ACT_17",1,NA,1,1,NA
"2018",1026,1,"ACT_18",1,NA,1,1,NA
"2019",1026,1,"ACT_19",1,NA,0,1,NA
"2020",1026,1,"ACT_20",1,NA,1,1,NA
"2021",1026,1,"AIT_21",1,NA,1,1,NA
"2022",1026,1,"AIT_22",1,NA,0,1,NA
"2023",1026,1,"AIT_23",1,NA,0,1,NA
"2024",1026,1,"AIT_24",1,NA,0,1,NA
"2025",1026,1,"AIT_25",1,NA,1,1,NA
"2026",1026,1,"AIT_26",1,NA,1,1,NA
"2027",1026,1,"AIT_27",1,NA,1,1,NA
"2028",1026,1,"AIT_28",1,NA,0,1,NA
"2029",1026,1,"AIT_29",1,NA,0,1,NA
"2030",1026,1,"AIT_30",1,NA,1,1,NA
"2031",1026,1,"AIT_31",1,NA,0,1,NA
"2032",1026,1,"AIT_32",1,NA,0,1,NA
"2033",1026,1,"AIT_33",1,NA,0,1,NA
"2034",1026,1,"AIT_34",1,NA,0,1,NA
"2035",1026,1,"AIT_35",1,NA,0,1,NA
"2036",1026,1,"AIT_36",1,NA,0,1,NA
"2037",1026,1,"AIT_37",1,NA,0,1,NA
"2038",1026,1,"AIT_38",1,NA,0,1,NA
"2039",1026,1,"AIT_39",1,NA,0,1,NA
"2040",1026,1,"AIT_40",1,NA,0,1,NA
"2041",1026,1,"BCT_1",1,NA,1,0,NA
"2042",1026,1,"BCT_2",1,NA,1,0,NA
"2043",1026,1,"BCT_3",1,NA,1,0,NA
"2044",1026,1,"BCT_4",1,NA,1,0,NA
"2045",1026,1,"BCT_5",1,NA,1,0,NA
"2046",1026,1,"BCT_6",1,NA,1,0,NA
"2047",1026,1,"BCT_7",1,NA,1,0,NA
"2048",1026,1,"BCT_8",1,NA,0,0,NA
"2049",1026,1,"BCT_9",1,NA,1,0,NA
"2050",1026,1,"BCT_10",1,NA,1,0,NA
"2051",1026,1,"BCT_11",1,NA,1,0,NA
"2052",1026,1,"BCT_12",1,NA,0,0,NA
"2053",1026,1,"BCT_13",1,NA,1,0,NA
"2054",1026,1,"BCT_14",1,NA,0,0,NA
"2055",1026,1,"BCT_15",1,NA,1,0,NA
"2056",1026,1,"BCT_16",1,NA,0,0,NA
"2057",1026,1,"BCT_17",1,NA,0,0,NA
"2058",1026,1,"BCT_18",1,NA,0,0,NA
"2059",1026,1,"BCT_19",1,NA,1,0,NA
"2060",1026,1,"BCT_20",1,NA,1,0,NA
"2061",1026,1,"BIT_21",1,NA,0,0,NA
"2062",1026,1,"BIT_22",1,NA,0,0,NA
"2063",1026,1,"BIT_23",1,NA,1,0,NA
"2064",1026,1,"BIT_24",1,NA,0,0,NA
"2065",1026,1,"BIT_25",1,NA,1,0,NA
"2066",1026,1,"BIT_26",1,NA,1,0,NA
"2067",1026,1,"BIT_27",1,NA,1,0,NA
"2068",1026,1,"BIT_28",1,NA,0,0,NA
"2069",1026,1,"BIT_29",1,NA,1,0,NA
"2070",1026,1,"BIT_30",1,NA,0,0,NA
"2071",1026,1,"BIT_31",1,NA,0,0,NA
"2072",1026,1,"BIT_32",1,NA,0,0,NA
"2073",1026,1,"BIT_33",1,NA,0,0,NA
"2074",1026,1,"BIT_34",1,NA,0,0,NA
"2075",1026,1,"BIT_35",1,NA,0,0,NA
"2076",1026,1,"BIT_36",1,NA,0,0,NA
"2077",1026,1,"BIT_37",1,NA,0,0,NA
"2078",1026,1,"BIT_38",1,NA,0,0,NA
"2079",1026,1,"BIT_39",1,NA,0,0,NA
"2080",1026,1,"BIT_40",1,NA,0,0,NA
"2081",1027,1,"ACT_1",1,NA,1,1,NA
"2082",1027,1,"ACT_2",1,NA,1,1,NA
"2083",1027,1,"ACT_3",1,NA,1,1,NA
"2084",1027,1,"ACT_4",1,NA,1,1,NA
"2085",1027,1,"ACT_5",1,NA,1,1,NA
"2086",1027,1,"ACT_6",1,NA,1,1,NA
"2087",1027,1,"ACT_7",1,NA,1,1,NA
"2088",1027,1,"ACT_8",1,NA,1,1,NA
"2089",1027,1,"ACT_9",1,NA,1,1,NA
"2090",1027,1,"ACT_10",1,NA,1,1,NA
"2091",1027,1,"ACT_11",1,NA,0,1,NA
"2092",1027,1,"ACT_12",1,NA,1,1,NA
"2093",1027,1,"ACT_13",1,NA,1,1,NA
"2094",1027,1,"ACT_14",1,NA,1,1,NA
"2095",1027,1,"ACT_15",1,NA,0,1,NA
"2096",1027,1,"ACT_16",1,NA,0,1,NA
"2097",1027,1,"ACT_17",1,NA,1,1,NA
"2098",1027,1,"ACT_18",1,NA,1,1,NA
"2099",1027,1,"ACT_19",1,NA,1,1,NA
"2100",1027,1,"ACT_20",1,NA,0,1,NA
"2101",1027,1,"AIT_21",1,NA,0,1,NA
"2102",1027,1,"AIT_22",1,NA,0,1,NA
"2103",1027,1,"AIT_23",1,NA,0,1,NA
"2104",1027,1,"AIT_24",1,NA,0,1,NA
"2105",1027,1,"AIT_25",1,NA,0,1,NA
"2106",1027,1,"AIT_26",1,NA,0,1,NA
"2107",1027,1,"AIT_27",1,NA,0,1,NA
"2108",1027,1,"AIT_28",1,NA,0,1,NA
"2109",1027,1,"AIT_29",1,NA,0,1,NA
"2110",1027,1,"AIT_30",1,NA,0,1,NA
"2111",1027,1,"AIT_31",1,NA,0,1,NA
"2112",1027,1,"AIT_32",1,NA,0,1,NA
"2113",1027,1,"AIT_33",1,NA,0,1,NA
"2114",1027,1,"AIT_34",1,NA,0,1,NA
"2115",1027,1,"AIT_35",1,NA,0,1,NA
"2116",1027,1,"AIT_36",1,NA,0,1,NA
"2117",1027,1,"AIT_37",1,NA,0,1,NA
"2118",1027,1,"AIT_38",1,NA,0,1,NA
"2119",1027,1,"AIT_39",1,NA,0,1,NA
"2120",1027,1,"AIT_40",1,NA,0,1,NA
"2121",1027,1,"BCT_1",1,NA,1,0,NA
"2122",1027,1,"BCT_2",1,NA,1,0,NA
"2123",1027,1,"BCT_3",1,NA,1,0,NA
"2124",1027,1,"BCT_4",1,NA,1,0,NA
"2125",1027,1,"BCT_5",1,NA,1,0,NA
"2126",1027,1,"BCT_6",1,NA,1,0,NA
"2127",1027,1,"BCT_7",1,NA,0,0,NA
"2128",1027,1,"BCT_8",1,NA,1,0,NA
"2129",1027,1,"BCT_9",1,NA,1,0,NA
"2130",1027,1,"BCT_10",1,NA,1,0,NA
"2131",1027,1,"BCT_11",1,NA,1,0,NA
"2132",1027,1,"BCT_12",1,NA,1,0,NA
"2133",1027,1,"BCT_13",1,NA,0,0,NA
"2134",1027,1,"BCT_14",1,NA,0,0,NA
"2135",1027,1,"BCT_15",1,NA,0,0,NA
"2136",1027,1,"BCT_16",1,NA,0,0,NA
"2137",1027,1,"BCT_17",1,NA,0,0,NA
"2138",1027,1,"BCT_18",1,NA,1,0,NA
"2139",1027,1,"BCT_19",1,NA,0,0,NA
"2140",1027,1,"BCT_20",1,NA,0,0,NA
"2141",1027,1,"BIT_21",1,NA,0,0,NA
"2142",1027,1,"BIT_22",1,NA,0,0,NA
"2143",1027,1,"BIT_23",1,NA,0,0,NA
"2144",1027,1,"BIT_24",1,NA,0,0,NA
"2145",1027,1,"BIT_25",1,NA,0,0,NA
"2146",1027,1,"BIT_26",1,NA,0,0,NA
"2147",1027,1,"BIT_27",1,NA,0,0,NA
"2148",1027,1,"BIT_28",1,NA,0,0,NA
"2149",1027,1,"BIT_29",1,NA,0,0,NA
"2150",1027,1,"BIT_30",1,NA,0,0,NA
"2151",1027,1,"BIT_31",1,NA,0,0,NA
"2152",1027,1,"BIT_32",1,NA,0,0,NA
"2153",1027,1,"BIT_33",1,NA,0,0,NA
"2154",1027,1,"BIT_34",1,NA,0,0,NA
"2155",1027,1,"BIT_35",1,NA,0,0,NA
"2156",1027,1,"BIT_36",1,NA,0,0,NA
"2157",1027,1,"BIT_37",1,NA,0,0,NA
"2158",1027,1,"BIT_38",1,NA,0,0,NA
"2159",1027,1,"BIT_39",1,NA,0,0,NA
"2160",1027,1,"BIT_40",1,NA,0,0,NA
"2161",1028,1,"ACT_1",1,NA,1,1,NA
"2162",1028,1,"ACT_2",1,NA,1,1,NA
"2163",1028,1,"ACT_3",1,NA,1,1,NA
"2164",1028,1,"ACT_4",1,NA,1,1,NA
"2165",1028,1,"ACT_5",1,NA,1,1,NA
"2166",1028,1,"ACT_6",1,NA,1,1,NA
"2167",1028,1,"ACT_7",1,NA,1,1,NA
"2168",1028,1,"ACT_8",1,NA,1,1,NA
"2169",1028,1,"ACT_9",1,NA,1,1,NA
"2170",1028,1,"ACT_10",1,NA,1,1,NA
"2171",1028,1,"ACT_11",1,NA,1,1,NA
"2172",1028,1,"ACT_12",1,NA,0,1,NA
"2173",1028,1,"ACT_13",1,NA,1,1,NA
"2174",1028,1,"ACT_14",1,NA,0,1,NA
"2175",1028,1,"ACT_15",1,NA,0,1,NA
"2176",1028,1,"ACT_16",1,NA,1,1,NA
"2177",1028,1,"ACT_17",1,NA,0,1,NA
"2178",1028,1,"ACT_18",1,NA,0,1,NA
"2179",1028,1,"ACT_19",1,NA,0,1,NA
"2180",1028,1,"ACT_20",1,NA,0,1,NA
"2181",1028,1,"AIT_21",1,NA,1,1,NA
"2182",1028,1,"AIT_22",1,NA,1,1,NA
"2183",1028,1,"AIT_23",1,NA,1,1,NA
"2184",1028,1,"AIT_24",1,NA,1,1,NA
"2185",1028,1,"AIT_25",1,NA,1,1,NA
"2186",1028,1,"AIT_26",1,NA,1,1,NA
"2187",1028,1,"AIT_27",1,NA,0,1,NA
"2188",1028,1,"AIT_28",1,NA,1,1,NA
"2189",1028,1,"AIT_29",1,NA,1,1,NA
"2190",1028,1,"AIT_30",1,NA,1,1,NA
"2191",1028,1,"AIT_31",1,NA,0,1,NA
"2192",1028,1,"AIT_32",1,NA,0,1,NA
"2193",1028,1,"AIT_33",1,NA,0,1,NA
"2194",1028,1,"AIT_34",1,NA,0,1,NA
"2195",1028,1,"AIT_35",1,NA,0,1,NA
"2196",1028,1,"AIT_36",1,NA,0,1,NA
"2197",1028,1,"AIT_37",1,NA,0,1,NA
"2198",1028,1,"AIT_38",1,NA,0,1,NA
"2199",1028,1,"AIT_39",1,NA,0,1,NA
"2200",1028,1,"AIT_40",1,NA,0,1,NA
"2201",1028,1,"BCT_1",1,NA,1,0,NA
"2202",1028,1,"BCT_2",1,NA,1,0,NA
"2203",1028,1,"BCT_3",1,NA,1,0,NA
"2204",1028,1,"BCT_4",1,NA,1,0,NA
"2205",1028,1,"BCT_5",1,NA,1,0,NA
"2206",1028,1,"BCT_6",1,NA,1,0,NA
"2207",1028,1,"BCT_7",1,NA,1,0,NA
"2208",1028,1,"BCT_8",1,NA,0,0,NA
"2209",1028,1,"BCT_9",1,NA,1,0,NA
"2210",1028,1,"BCT_10",1,NA,1,0,NA
"2211",1028,1,"BCT_11",1,NA,1,0,NA
"2212",1028,1,"BCT_12",1,NA,0,0,NA
"2213",1028,1,"BCT_13",1,NA,1,0,NA
"2214",1028,1,"BCT_14",1,NA,0,0,NA
"2215",1028,1,"BCT_15",1,NA,0,0,NA
"2216",1028,1,"BCT_16",1,NA,0,0,NA
"2217",1028,1,"BCT_17",1,NA,1,0,NA
"2218",1028,1,"BCT_18",1,NA,1,0,NA
"2219",1028,1,"BCT_19",1,NA,0,0,NA
"2220",1028,1,"BCT_20",1,NA,0,0,NA
"2221",1028,1,"BIT_21",1,NA,1,0,NA
"2222",1028,1,"BIT_22",1,NA,1,0,NA
"2223",1028,1,"BIT_23",1,NA,0,0,NA
"2224",1028,1,"BIT_24",1,NA,0,0,NA
"2225",1028,1,"BIT_25",1,NA,0,0,NA
"2226",1028,1,"BIT_26",1,NA,1,0,NA
"2227",1028,1,"BIT_27",1,NA,0,0,NA
"2228",1028,1,"BIT_28",1,NA,1,0,NA
"2229",1028,1,"BIT_29",1,NA,0,0,NA
"2230",1028,1,"BIT_30",1,NA,0,0,NA
"2231",1028,1,"BIT_31",1,NA,1,0,NA
"2232",1028,1,"BIT_32",1,NA,0,0,NA
"2233",1028,1,"BIT_33",1,NA,1,0,NA
"2234",1028,1,"BIT_34",1,NA,0,0,NA
"2235",1028,1,"BIT_35",1,NA,0,0,NA
"2236",1028,1,"BIT_36",1,NA,0,0,NA
"2237",1028,1,"BIT_37",1,NA,0,0,NA
"2238",1028,1,"BIT_38",1,NA,0,0,NA
"2239",1028,1,"BIT_39",1,NA,0,0,NA
"2240",1028,1,"BIT_40",1,NA,0,0,NA
"2241",1029,1,"ACT_1",1,NA,1,1,NA
"2242",1029,1,"ACT_2",1,NA,1,1,NA
"2243",1029,1,"ACT_3",1,NA,1,1,NA
"2244",1029,1,"ACT_4",1,NA,1,1,NA
"2245",1029,1,"ACT_5",1,NA,1,1,NA
"2246",1029,1,"ACT_6",1,NA,1,1,NA
"2247",1029,1,"ACT_7",1,NA,1,1,NA
"2248",1029,1,"ACT_8",1,NA,1,1,NA
"2249",1029,1,"ACT_9",1,NA,1,1,NA
"2250",1029,1,"ACT_10",1,NA,1,1,NA
"2251",1029,1,"ACT_11",1,NA,1,1,NA
"2252",1029,1,"ACT_12",1,NA,1,1,NA
"2253",1029,1,"ACT_13",1,NA,1,1,NA
"2254",1029,1,"ACT_14",1,NA,1,1,NA
"2255",1029,1,"ACT_15",1,NA,1,1,NA
"2256",1029,1,"ACT_16",1,NA,1,1,NA
"2257",1029,1,"ACT_17",1,NA,1,1,NA
"2258",1029,1,"ACT_18",1,NA,1,1,NA
"2259",1029,1,"ACT_19",1,NA,1,1,NA
"2260",1029,1,"ACT_20",1,NA,1,1,NA
"2261",1029,1,"AIT_21",1,NA,0,1,NA
"2262",1029,1,"AIT_22",1,NA,0,1,NA
"2263",1029,1,"AIT_23",1,NA,0,1,NA
"2264",1029,1,"AIT_24",1,NA,0,1,NA
"2265",1029,1,"AIT_25",1,NA,0,1,NA
"2266",1029,1,"AIT_26",1,NA,0,1,NA
"2267",1029,1,"AIT_27",1,NA,0,1,NA
"2268",1029,1,"AIT_28",1,NA,0,1,NA
"2269",1029,1,"AIT_29",1,NA,0,1,NA
"2270",1029,1,"AIT_30",1,NA,0,1,NA
"2271",1029,1,"AIT_31",1,NA,0,1,NA
"2272",1029,1,"AIT_32",1,NA,0,1,NA
"2273",1029,1,"AIT_33",1,NA,0,1,NA
"2274",1029,1,"AIT_34",1,NA,0,1,NA
"2275",1029,1,"AIT_35",1,NA,0,1,NA
"2276",1029,1,"AIT_36",1,NA,0,1,NA
"2277",1029,1,"AIT_37",1,NA,0,1,NA
"2278",1029,1,"AIT_38",1,NA,0,1,NA
"2279",1029,1,"AIT_39",1,NA,0,1,NA
"2280",1029,1,"AIT_40",1,NA,0,1,NA
"2281",1029,1,"BCT_1",1,NA,1,0,NA
"2282",1029,1,"BCT_2",1,NA,1,0,NA
"2283",1029,1,"BCT_3",1,NA,1,0,NA
"2284",1029,1,"BCT_4",1,NA,1,0,NA
"2285",1029,1,"BCT_5",1,NA,1,0,NA
"2286",1029,1,"BCT_6",1,NA,0,0,NA
"2287",1029,1,"BCT_7",1,NA,1,0,NA
"2288",1029,1,"BCT_8",1,NA,1,0,NA
"2289",1029,1,"BCT_9",1,NA,1,0,NA
"2290",1029,1,"BCT_10",1,NA,1,0,NA
"2291",1029,1,"BCT_11",1,NA,1,0,NA
"2292",1029,1,"BCT_12",1,NA,1,0,NA
"2293",1029,1,"BCT_13",1,NA,1,0,NA
"2294",1029,1,"BCT_14",1,NA,1,0,NA
"2295",1029,1,"BCT_15",1,NA,1,0,NA
"2296",1029,1,"BCT_16",1,NA,1,0,NA
"2297",1029,1,"BCT_17",1,NA,1,0,NA
"2298",1029,1,"BCT_18",1,NA,0,0,NA
"2299",1029,1,"BCT_19",1,NA,1,0,NA
"2300",1029,1,"BCT_20",1,NA,1,0,NA
"2301",1029,1,"BIT_21",1,NA,0,0,NA
"2302",1029,1,"BIT_22",1,NA,0,0,NA
"2303",1029,1,"BIT_23",1,NA,0,0,NA
"2304",1029,1,"BIT_24",1,NA,0,0,NA
"2305",1029,1,"BIT_25",1,NA,0,0,NA
"2306",1029,1,"BIT_26",1,NA,0,0,NA
"2307",1029,1,"BIT_27",1,NA,0,0,NA
"2308",1029,1,"BIT_28",1,NA,0,0,NA
"2309",1029,1,"BIT_29",1,NA,0,0,NA
"2310",1029,1,"BIT_30",1,NA,0,0,NA
"2311",1029,1,"BIT_31",1,NA,0,0,NA
"2312",1029,1,"BIT_32",1,NA,0,0,NA
"2313",1029,1,"BIT_33",1,NA,0,0,NA
"2314",1029,1,"BIT_34",1,NA,0,0,NA
"2315",1029,1,"BIT_35",1,NA,0,0,NA
"2316",1029,1,"BIT_36",1,NA,0,0,NA
"2317",1029,1,"BIT_37",1,NA,0,0,NA
"2318",1029,1,"BIT_38",1,NA,0,0,NA
"2319",1029,1,"BIT_39",1,NA,0,0,NA
"2320",1029,1,"BIT_40",1,NA,0,0,NA
"2321",1030,1,"ACT_1",1,NA,1,1,NA
"2322",1030,1,"ACT_2",1,NA,1,1,NA
"2323",1030,1,"ACT_3",1,NA,1,1,NA
"2324",1030,1,"ACT_4",1,NA,0,1,NA
"2325",1030,1,"ACT_5",1,NA,1,1,NA
"2326",1030,1,"ACT_6",1,NA,1,1,NA
"2327",1030,1,"ACT_7",1,NA,1,1,NA
"2328",1030,1,"ACT_8",1,NA,1,1,NA
"2329",1030,1,"ACT_9",1,NA,1,1,NA
"2330",1030,1,"ACT_10",1,NA,1,1,NA
"2331",1030,1,"ACT_11",1,NA,1,1,NA
"2332",1030,1,"ACT_12",1,NA,1,1,NA
"2333",1030,1,"ACT_13",1,NA,1,1,NA
"2334",1030,1,"ACT_14",1,NA,0,1,NA
"2335",1030,1,"ACT_15",1,NA,1,1,NA
"2336",1030,1,"ACT_16",1,NA,1,1,NA
"2337",1030,1,"ACT_17",1,NA,0,1,NA
"2338",1030,1,"ACT_18",1,NA,1,1,NA
"2339",1030,1,"ACT_19",1,NA,1,1,NA
"2340",1030,1,"ACT_20",1,NA,1,1,NA
"2341",1030,1,"AIT_21",1,NA,0,1,NA
"2342",1030,1,"AIT_22",1,NA,0,1,NA
"2343",1030,1,"AIT_23",1,NA,1,1,NA
"2344",1030,1,"AIT_24",1,NA,1,1,NA
"2345",1030,1,"AIT_25",1,NA,1,1,NA
"2346",1030,1,"AIT_26",1,NA,1,1,NA
"2347",1030,1,"AIT_27",1,NA,0,1,NA
"2348",1030,1,"AIT_28",1,NA,0,1,NA
"2349",1030,1,"AIT_29",1,NA,1,1,NA
"2350",1030,1,"AIT_30",1,NA,1,1,NA
"2351",1030,1,"AIT_31",1,NA,0,1,NA
"2352",1030,1,"AIT_32",1,NA,0,1,NA
"2353",1030,1,"AIT_33",1,NA,0,1,NA
"2354",1030,1,"AIT_34",1,NA,0,1,NA
"2355",1030,1,"AIT_35",1,NA,0,1,NA
"2356",1030,1,"AIT_36",1,NA,1,1,NA
"2357",1030,1,"AIT_37",1,NA,0,1,NA
"2358",1030,1,"AIT_38",1,NA,0,1,NA
"2359",1030,1,"AIT_39",1,NA,0,1,NA
"2360",1030,1,"AIT_40",1,NA,1,1,NA
"2361",1030,1,"BCT_1",1,NA,1,0,NA
"2362",1030,1,"BCT_2",1,NA,1,0,NA
"2363",1030,1,"BCT_3",1,NA,1,0,NA
"2364",1030,1,"BCT_4",1,NA,1,0,NA
"2365",1030,1,"BCT_5",1,NA,1,0,NA
"2366",1030,1,"BCT_6",1,NA,0,0,NA
"2367",1030,1,"BCT_7",1,NA,1,0,NA
"2368",1030,1,"BCT_8",1,NA,0,0,NA
"2369",1030,1,"BCT_9",1,NA,0,0,NA
"2370",1030,1,"BCT_10",1,NA,0,0,NA
"2371",1030,1,"BCT_11",1,NA,1,0,NA
"2372",1030,1,"BCT_12",1,NA,1,0,NA
"2373",1030,1,"BCT_13",1,NA,1,0,NA
"2374",1030,1,"BCT_14",1,NA,0,0,NA
"2375",1030,1,"BCT_15",1,NA,0,0,NA
"2376",1030,1,"BCT_16",1,NA,1,0,NA
"2377",1030,1,"BCT_17",1,NA,0,0,NA
"2378",1030,1,"BCT_18",1,NA,1,0,NA
"2379",1030,1,"BCT_19",1,NA,0,0,NA
"2380",1030,1,"BCT_20",1,NA,1,0,NA
"2381",1030,1,"BIT_21",1,NA,0,0,NA
"2382",1030,1,"BIT_22",1,NA,1,0,NA
"2383",1030,1,"BIT_23",1,NA,1,0,NA
"2384",1030,1,"BIT_24",1,NA,0,0,NA
"2385",1030,1,"BIT_25",1,NA,1,0,NA
"2386",1030,1,"BIT_26",1,NA,1,0,NA
"2387",1030,1,"BIT_27",1,NA,1,0,NA
"2388",1030,1,"BIT_28",1,NA,0,0,NA
"2389",1030,1,"BIT_29",1,NA,1,0,NA
"2390",1030,1,"BIT_30",1,NA,0,0,NA
"2391",1030,1,"BIT_31",1,NA,0,0,NA
"2392",1030,1,"BIT_32",1,NA,1,0,NA
"2393",1030,1,"BIT_33",1,NA,0,0,NA
"2394",1030,1,"BIT_34",1,NA,1,0,NA
"2395",1030,1,"BIT_35",1,NA,0,0,NA
"2396",1030,1,"BIT_36",1,NA,0,0,NA
"2397",1030,1,"BIT_37",1,NA,0,0,NA
"2398",1030,1,"BIT_38",1,NA,0,0,NA
"2399",1030,1,"BIT_39",1,NA,0,0,NA
"2400",1030,1,"BIT_40",1,NA,0,0,NA
"2401",1031,1,"ACT_1",1,NA,1,1,NA
"2402",1031,1,"ACT_2",1,NA,1,1,NA
"2403",1031,1,"ACT_3",1,NA,1,1,NA
"2404",1031,1,"ACT_4",1,NA,0,1,NA
"2405",1031,1,"ACT_5",1,NA,0,1,NA
"2406",1031,1,"ACT_6",1,NA,0,1,NA
"2407",1031,1,"ACT_7",1,NA,0,1,NA
"2408",1031,1,"ACT_8",1,NA,1,1,NA
"2409",1031,1,"ACT_9",1,NA,0,1,NA
"2410",1031,1,"ACT_10",1,NA,1,1,NA
"2411",1031,1,"ACT_11",1,NA,0,1,NA
"2412",1031,1,"ACT_12",1,NA,0,1,NA
"2413",1031,1,"ACT_13",1,NA,1,1,NA
"2414",1031,1,"ACT_14",1,NA,1,1,NA
"2415",1031,1,"ACT_15",1,NA,0,1,NA
"2416",1031,1,"ACT_16",1,NA,0,1,NA
"2417",1031,1,"ACT_17",1,NA,0,1,NA
"2418",1031,1,"ACT_18",1,NA,0,1,NA
"2419",1031,1,"ACT_19",1,NA,0,1,NA
"2420",1031,1,"ACT_20",1,NA,0,1,NA
"2421",1031,1,"AIT_21",1,NA,1,1,NA
"2422",1031,1,"AIT_22",1,NA,1,1,NA
"2423",1031,1,"AIT_23",1,NA,1,1,NA
"2424",1031,1,"AIT_24",1,NA,1,1,NA
"2425",1031,1,"AIT_25",1,NA,0,1,NA
"2426",1031,1,"AIT_26",1,NA,1,1,NA
"2427",1031,1,"AIT_27",1,NA,0,1,NA
"2428",1031,1,"AIT_28",1,NA,0,1,NA
"2429",1031,1,"AIT_29",1,NA,0,1,NA
"2430",1031,1,"AIT_30",1,NA,0,1,NA
"2431",1031,1,"AIT_31",1,NA,0,1,NA
"2432",1031,1,"AIT_32",1,NA,0,1,NA
"2433",1031,1,"AIT_33",1,NA,1,1,NA
"2434",1031,1,"AIT_34",1,NA,0,1,NA
"2435",1031,1,"AIT_35",1,NA,0,1,NA
"2436",1031,1,"AIT_36",1,NA,0,1,NA
"2437",1031,1,"AIT_37",1,NA,0,1,NA
"2438",1031,1,"AIT_38",1,NA,0,1,NA
"2439",1031,1,"AIT_39",1,NA,0,1,NA
"2440",1031,1,"AIT_40",1,NA,0,1,NA
"2441",1031,1,"BCT_1",1,NA,1,0,NA
"2442",1031,1,"BCT_2",1,NA,0,0,NA
"2443",1031,1,"BCT_3",1,NA,1,0,NA
"2444",1031,1,"BCT_4",1,NA,1,0,NA
"2445",1031,1,"BCT_5",1,NA,1,0,NA
"2446",1031,1,"BCT_6",1,NA,1,0,NA
"2447",1031,1,"BCT_7",1,NA,0,0,NA
"2448",1031,1,"BCT_8",1,NA,1,0,NA
"2449",1031,1,"BCT_9",1,NA,0,0,NA
"2450",1031,1,"BCT_10",1,NA,1,0,NA
"2451",1031,1,"BCT_11",1,NA,0,0,NA
"2452",1031,1,"BCT_12",1,NA,0,0,NA
"2453",1031,1,"BCT_13",1,NA,0,0,NA
"2454",1031,1,"BCT_14",1,NA,0,0,NA
"2455",1031,1,"BCT_15",1,NA,0,0,NA
"2456",1031,1,"BCT_16",1,NA,1,0,NA
"2457",1031,1,"BCT_17",1,NA,0,0,NA
"2458",1031,1,"BCT_18",1,NA,1,0,NA
"2459",1031,1,"BCT_19",1,NA,1,0,NA
"2460",1031,1,"BCT_20",1,NA,1,0,NA
"2461",1031,1,"BIT_21",1,NA,0,0,NA
"2462",1031,1,"BIT_22",1,NA,1,0,NA
"2463",1031,1,"BIT_23",1,NA,0,0,NA
"2464",1031,1,"BIT_24",1,NA,0,0,NA
"2465",1031,1,"BIT_25",1,NA,1,0,NA
"2466",1031,1,"BIT_26",1,NA,0,0,NA
"2467",1031,1,"BIT_27",1,NA,0,0,NA
"2468",1031,1,"BIT_28",1,NA,0,0,NA
"2469",1031,1,"BIT_29",1,NA,1,0,NA
"2470",1031,1,"BIT_30",1,NA,0,0,NA
"2471",1031,1,"BIT_31",1,NA,0,0,NA
"2472",1031,1,"BIT_32",1,NA,0,0,NA
"2473",1031,1,"BIT_33",1,NA,0,0,NA
"2474",1031,1,"BIT_34",1,NA,0,0,NA
"2475",1031,1,"BIT_35",1,NA,0,0,NA
"2476",1031,1,"BIT_36",1,NA,0,0,NA
"2477",1031,1,"BIT_37",1,NA,0,0,NA
"2478",1031,1,"BIT_38",1,NA,0,0,NA
"2479",1031,1,"BIT_39",1,NA,0,0,NA
"2480",1031,1,"BIT_40",1,NA,0,0,NA
"2481",1032,1,"ACT_1",1,NA,1,1,NA
"2482",1032,1,"ACT_2",1,NA,1,1,NA
"2483",1032,1,"ACT_3",1,NA,1,1,NA
"2484",1032,1,"ACT_4",1,NA,1,1,NA
"2485",1032,1,"ACT_5",1,NA,1,1,NA
"2486",1032,1,"ACT_6",1,NA,1,1,NA
"2487",1032,1,"ACT_7",1,NA,1,1,NA
"2488",1032,1,"ACT_8",1,NA,1,1,NA
"2489",1032,1,"ACT_9",1,NA,1,1,NA
"2490",1032,1,"ACT_10",1,NA,1,1,NA
"2491",1032,1,"ACT_11",1,NA,1,1,NA
"2492",1032,1,"ACT_12",1,NA,1,1,NA
"2493",1032,1,"ACT_13",1,NA,0,1,NA
"2494",1032,1,"ACT_14",1,NA,1,1,NA
"2495",1032,1,"ACT_15",1,NA,1,1,NA
"2496",1032,1,"ACT_16",1,NA,1,1,NA
"2497",1032,1,"ACT_17",1,NA,1,1,NA
"2498",1032,1,"ACT_18",1,NA,0,1,NA
"2499",1032,1,"ACT_19",1,NA,1,1,NA
"2500",1032,1,"ACT_20",1,NA,0,1,NA
"2501",1032,1,"AIT_21",1,NA,0,1,NA
"2502",1032,1,"AIT_22",1,NA,1,1,NA
"2503",1032,1,"AIT_23",1,NA,0,1,NA
"2504",1032,1,"AIT_24",1,NA,1,1,NA
"2505",1032,1,"AIT_25",1,NA,0,1,NA
"2506",1032,1,"AIT_26",1,NA,0,1,NA
"2507",1032,1,"AIT_27",1,NA,1,1,NA
"2508",1032,1,"AIT_28",1,NA,1,1,NA
"2509",1032,1,"AIT_29",1,NA,0,1,NA
"2510",1032,1,"AIT_30",1,NA,1,1,NA
"2511",1032,1,"AIT_31",1,NA,0,1,NA
"2512",1032,1,"AIT_32",1,NA,0,1,NA
"2513",1032,1,"AIT_33",1,NA,0,1,NA
"2514",1032,1,"AIT_34",1,NA,0,1,NA
"2515",1032,1,"AIT_35",1,NA,0,1,NA
"2516",1032,1,"AIT_36",1,NA,0,1,NA
"2517",1032,1,"AIT_37",1,NA,0,1,NA
"2518",1032,1,"AIT_38",1,NA,0,1,NA
"2519",1032,1,"AIT_39",1,NA,0,1,NA
"2520",1032,1,"AIT_40",1,NA,0,1,NA
"2521",1032,1,"BCT_1",1,NA,1,0,NA
"2522",1032,1,"BCT_2",1,NA,1,0,NA
"2523",1032,1,"BCT_3",1,NA,1,0,NA
"2524",1032,1,"BCT_4",1,NA,1,0,NA
"2525",1032,1,"BCT_5",1,NA,0,0,NA
"2526",1032,1,"BCT_6",1,NA,0,0,NA
"2527",1032,1,"BCT_7",1,NA,1,0,NA
"2528",1032,1,"BCT_8",1,NA,0,0,NA
"2529",1032,1,"BCT_9",1,NA,1,0,NA
"2530",1032,1,"BCT_10",1,NA,1,0,NA
"2531",1032,1,"BCT_11",1,NA,1,0,NA
"2532",1032,1,"BCT_12",1,NA,1,0,NA
"2533",1032,1,"BCT_13",1,NA,1,0,NA
"2534",1032,1,"BCT_14",1,NA,1,0,NA
"2535",1032,1,"BCT_15",1,NA,1,0,NA
"2536",1032,1,"BCT_16",1,NA,0,0,NA
"2537",1032,1,"BCT_17",1,NA,0,0,NA
"2538",1032,1,"BCT_18",1,NA,1,0,NA
"2539",1032,1,"BCT_19",1,NA,0,0,NA
"2540",1032,1,"BCT_20",1,NA,1,0,NA
"2541",1032,1,"BIT_21",1,NA,1,0,NA
"2542",1032,1,"BIT_22",1,NA,1,0,NA
"2543",1032,1,"BIT_23",1,NA,1,0,NA
"2544",1032,1,"BIT_24",1,NA,0,0,NA
"2545",1032,1,"BIT_25",1,NA,1,0,NA
"2546",1032,1,"BIT_26",1,NA,0,0,NA
"2547",1032,1,"BIT_27",1,NA,1,0,NA
"2548",1032,1,"BIT_28",1,NA,0,0,NA
"2549",1032,1,"BIT_29",1,NA,0,0,NA
"2550",1032,1,"BIT_30",1,NA,0,0,NA
"2551",1032,1,"BIT_31",1,NA,0,0,NA
"2552",1032,1,"BIT_32",1,NA,0,0,NA
"2553",1032,1,"BIT_33",1,NA,1,0,NA
"2554",1032,1,"BIT_34",1,NA,0,0,NA
"2555",1032,1,"BIT_35",1,NA,0,0,NA
"2556",1032,1,"BIT_36",1,NA,0,0,NA
"2557",1032,1,"BIT_37",1,NA,0,0,NA
"2558",1032,1,"BIT_38",1,NA,0,0,NA
"2559",1032,1,"BIT_39",1,NA,0,0,NA
"2560",1032,1,"BIT_40",1,NA,0,0,NA
"2561",1033,1,"ACT_1",1,NA,1,1,NA
"2562",1033,1,"ACT_2",1,NA,1,1,NA
"2563",1033,1,"ACT_3",1,NA,1,1,NA
"2564",1033,1,"ACT_4",1,NA,1,1,NA
"2565",1033,1,"ACT_5",1,NA,1,1,NA
"2566",1033,1,"ACT_6",1,NA,0,1,NA
"2567",1033,1,"ACT_7",1,NA,1,1,NA
"2568",1033,1,"ACT_8",1,NA,1,1,NA
"2569",1033,1,"ACT_9",1,NA,0,1,NA
"2570",1033,1,"ACT_10",1,NA,1,1,NA
"2571",1033,1,"ACT_11",1,NA,1,1,NA
"2572",1033,1,"ACT_12",1,NA,1,1,NA
"2573",1033,1,"ACT_13",1,NA,1,1,NA
"2574",1033,1,"ACT_14",1,NA,1,1,NA
"2575",1033,1,"ACT_15",1,NA,0,1,NA
"2576",1033,1,"ACT_16",1,NA,1,1,NA
"2577",1033,1,"ACT_17",1,NA,0,1,NA
"2578",1033,1,"ACT_18",1,NA,1,1,NA
"2579",1033,1,"ACT_19",1,NA,0,1,NA
"2580",1033,1,"ACT_20",1,NA,0,1,NA
"2581",1033,1,"AIT_21",1,NA,0,1,NA
"2582",1033,1,"AIT_22",1,NA,1,1,NA
"2583",1033,1,"AIT_23",1,NA,0,1,NA
"2584",1033,1,"AIT_24",1,NA,1,1,NA
"2585",1033,1,"AIT_25",1,NA,0,1,NA
"2586",1033,1,"AIT_26",1,NA,1,1,NA
"2587",1033,1,"AIT_27",1,NA,0,1,NA
"2588",1033,1,"AIT_28",1,NA,1,1,NA
"2589",1033,1,"AIT_29",1,NA,0,1,NA
"2590",1033,1,"AIT_30",1,NA,1,1,NA
"2591",1033,1,"AIT_31",1,NA,0,1,NA
"2592",1033,1,"AIT_32",1,NA,0,1,NA
"2593",1033,1,"AIT_33",1,NA,0,1,NA
"2594",1033,1,"AIT_34",1,NA,0,1,NA
"2595",1033,1,"AIT_35",1,NA,0,1,NA
"2596",1033,1,"AIT_36",1,NA,0,1,NA
"2597",1033,1,"AIT_37",1,NA,0,1,NA
"2598",1033,1,"AIT_38",1,NA,0,1,NA
"2599",1033,1,"AIT_39",1,NA,0,1,NA
"2600",1033,1,"AIT_40",1,NA,0,1,NA
"2601",1033,1,"BCT_1",1,NA,1,0,NA
"2602",1033,1,"BCT_2",1,NA,1,0,NA
"2603",1033,1,"BCT_3",1,NA,1,0,NA
"2604",1033,1,"BCT_4",1,NA,1,0,NA
"2605",1033,1,"BCT_5",1,NA,0,0,NA
"2606",1033,1,"BCT_6",1,NA,0,0,NA
"2607",1033,1,"BCT_7",1,NA,1,0,NA
"2608",1033,1,"BCT_8",1,NA,0,0,NA
"2609",1033,1,"BCT_9",1,NA,0,0,NA
"2610",1033,1,"BCT_10",1,NA,1,0,NA
"2611",1033,1,"BCT_11",1,NA,1,0,NA
"2612",1033,1,"BCT_12",1,NA,1,0,NA
"2613",1033,1,"BCT_13",1,NA,1,0,NA
"2614",1033,1,"BCT_14",1,NA,0,0,NA
"2615",1033,1,"BCT_15",1,NA,1,0,NA
"2616",1033,1,"BCT_16",1,NA,0,0,NA
"2617",1033,1,"BCT_17",1,NA,0,0,NA
"2618",1033,1,"BCT_18",1,NA,1,0,NA
"2619",1033,1,"BCT_19",1,NA,1,0,NA
"2620",1033,1,"BCT_20",1,NA,0,0,NA
"2621",1033,1,"BIT_21",1,NA,1,0,NA
"2622",1033,1,"BIT_22",1,NA,1,0,NA
"2623",1033,1,"BIT_23",1,NA,1,0,NA
"2624",1033,1,"BIT_24",1,NA,0,0,NA
"2625",1033,1,"BIT_25",1,NA,0,0,NA
"2626",1033,1,"BIT_26",1,NA,1,0,NA
"2627",1033,1,"BIT_27",1,NA,1,0,NA
"2628",1033,1,"BIT_28",1,NA,0,0,NA
"2629",1033,1,"BIT_29",1,NA,0,0,NA
"2630",1033,1,"BIT_30",1,NA,1,0,NA
"2631",1033,1,"BIT_31",1,NA,0,0,NA
"2632",1033,1,"BIT_32",1,NA,0,0,NA
"2633",1033,1,"BIT_33",1,NA,1,0,NA
"2634",1033,1,"BIT_34",1,NA,0,0,NA
"2635",1033,1,"BIT_35",1,NA,0,0,NA
"2636",1033,1,"BIT_36",1,NA,0,0,NA
"2637",1033,1,"BIT_37",1,NA,0,0,NA
"2638",1033,1,"BIT_38",1,NA,0,0,NA
"2639",1033,1,"BIT_39",1,NA,0,0,NA
"2640",1033,1,"BIT_40",1,NA,0,0,NA
"2641",1034,1,"ACT_1",1,NA,1,1,NA
"2642",1034,1,"ACT_2",1,NA,0,1,NA
"2643",1034,1,"ACT_3",1,NA,0,1,NA
"2644",1034,1,"ACT_4",1,NA,0,1,NA
"2645",1034,1,"ACT_5",1,NA,0,1,NA
"2646",1034,1,"ACT_6",1,NA,1,1,NA
"2647",1034,1,"ACT_7",1,NA,1,1,NA
"2648",1034,1,"ACT_8",1,NA,1,1,NA
"2649",1034,1,"ACT_9",1,NA,0,1,NA
"2650",1034,1,"ACT_10",1,NA,1,1,NA
"2651",1034,1,"ACT_11",1,NA,1,1,NA
"2652",1034,1,"ACT_12",1,NA,0,1,NA
"2653",1034,1,"ACT_13",1,NA,0,1,NA
"2654",1034,1,"ACT_14",1,NA,0,1,NA
"2655",1034,1,"ACT_15",1,NA,0,1,NA
"2656",1034,1,"ACT_16",1,NA,0,1,NA
"2657",1034,1,"ACT_17",1,NA,0,1,NA
"2658",1034,1,"ACT_18",1,NA,0,1,NA
"2659",1034,1,"ACT_19",1,NA,0,1,NA
"2660",1034,1,"ACT_20",1,NA,0,1,NA
"2661",1034,1,"AIT_21",1,NA,1,1,NA
"2662",1034,1,"AIT_22",1,NA,1,1,NA
"2663",1034,1,"AIT_23",1,NA,0,1,NA
"2664",1034,1,"AIT_24",1,NA,0,1,NA
"2665",1034,1,"AIT_25",1,NA,0,1,NA
"2666",1034,1,"AIT_26",1,NA,0,1,NA
"2667",1034,1,"AIT_27",1,NA,1,1,NA
"2668",1034,1,"AIT_28",1,NA,0,1,NA
"2669",1034,1,"AIT_29",1,NA,0,1,NA
"2670",1034,1,"AIT_30",1,NA,0,1,NA
"2671",1034,1,"AIT_31",1,NA,0,1,NA
"2672",1034,1,"AIT_32",1,NA,0,1,NA
"2673",1034,1,"AIT_33",1,NA,1,1,NA
"2674",1034,1,"AIT_34",1,NA,0,1,NA
"2675",1034,1,"AIT_35",1,NA,0,1,NA
"2676",1034,1,"AIT_36",1,NA,0,1,NA
"2677",1034,1,"AIT_37",1,NA,0,1,NA
"2678",1034,1,"AIT_38",1,NA,0,1,NA
"2679",1034,1,"AIT_39",1,NA,0,1,NA
"2680",1034,1,"AIT_40",1,NA,0,1,NA
"2681",1034,1,"BCT_1",1,NA,0,0,NA
"2682",1034,1,"BCT_2",1,NA,1,0,NA
"2683",1034,1,"BCT_3",1,NA,0,0,NA
"2684",1034,1,"BCT_4",1,NA,1,0,NA
"2685",1034,1,"BCT_5",1,NA,1,0,NA
"2686",1034,1,"BCT_6",1,NA,1,0,NA
"2687",1034,1,"BCT_7",1,NA,1,0,NA
"2688",1034,1,"BCT_8",1,NA,0,0,NA
"2689",1034,1,"BCT_9",1,NA,0,0,NA
"2690",1034,1,"BCT_10",1,NA,1,0,NA
"2691",1034,1,"BCT_11",1,NA,0,0,NA
"2692",1034,1,"BCT_12",1,NA,0,0,NA
"2693",1034,1,"BCT_13",1,NA,0,0,NA
"2694",1034,1,"BCT_14",1,NA,0,0,NA
"2695",1034,1,"BCT_15",1,NA,0,0,NA
"2696",1034,1,"BCT_16",1,NA,0,0,NA
"2697",1034,1,"BCT_17",1,NA,1,0,NA
"2698",1034,1,"BCT_18",1,NA,0,0,NA
"2699",1034,1,"BCT_19",1,NA,0,0,NA
"2700",1034,1,"BCT_20",1,NA,0,0,NA
"2701",1034,1,"BIT_21",1,NA,0,0,NA
"2702",1034,1,"BIT_22",1,NA,0,0,NA
"2703",1034,1,"BIT_23",1,NA,0,0,NA
"2704",1034,1,"BIT_24",1,NA,0,0,NA
"2705",1034,1,"BIT_25",1,NA,0,0,NA
"2706",1034,1,"BIT_26",1,NA,0,0,NA
"2707",1034,1,"BIT_27",1,NA,0,0,NA
"2708",1034,1,"BIT_28",1,NA,0,0,NA
"2709",1034,1,"BIT_29",1,NA,0,0,NA
"2710",1034,1,"BIT_30",1,NA,0,0,NA
"2711",1034,1,"BIT_31",1,NA,0,0,NA
"2712",1034,1,"BIT_32",1,NA,0,0,NA
"2713",1034,1,"BIT_33",1,NA,0,0,NA
"2714",1034,1,"BIT_34",1,NA,0,0,NA
"2715",1034,1,"BIT_35",1,NA,0,0,NA
"2716",1034,1,"BIT_36",1,NA,0,0,NA
"2717",1034,1,"BIT_37",1,NA,0,0,NA
"2718",1034,1,"BIT_38",1,NA,0,0,NA
"2719",1034,1,"BIT_39",1,NA,0,0,NA
"2720",1034,1,"BIT_40",1,NA,0,0,NA
"2721",1035,1,"ACT_1",1,NA,1,1,NA
"2722",1035,1,"ACT_2",1,NA,1,1,NA
"2723",1035,1,"ACT_3",1,NA,1,1,NA
"2724",1035,1,"ACT_4",1,NA,0,1,NA
"2725",1035,1,"ACT_5",1,NA,1,1,NA
"2726",1035,1,"ACT_6",1,NA,0,1,NA
"2727",1035,1,"ACT_7",1,NA,1,1,NA
"2728",1035,1,"ACT_8",1,NA,0,1,NA
"2729",1035,1,"ACT_9",1,NA,1,1,NA
"2730",1035,1,"ACT_10",1,NA,0,1,NA
"2731",1035,1,"ACT_11",1,NA,1,1,NA
"2732",1035,1,"ACT_12",1,NA,1,1,NA
"2733",1035,1,"ACT_13",1,NA,0,1,NA
"2734",1035,1,"ACT_14",1,NA,0,1,NA
"2735",1035,1,"ACT_15",1,NA,0,1,NA
"2736",1035,1,"ACT_16",1,NA,0,1,NA
"2737",1035,1,"ACT_17",1,NA,0,1,NA
"2738",1035,1,"ACT_18",1,NA,0,1,NA
"2739",1035,1,"ACT_19",1,NA,1,1,NA
"2740",1035,1,"ACT_20",1,NA,0,1,NA
"2741",1035,1,"AIT_21",1,NA,0,1,NA
"2742",1035,1,"AIT_22",1,NA,1,1,NA
"2743",1035,1,"AIT_23",1,NA,0,1,NA
"2744",1035,1,"AIT_24",1,NA,1,1,NA
"2745",1035,1,"AIT_25",1,NA,0,1,NA
"2746",1035,1,"AIT_26",1,NA,0,1,NA
"2747",1035,1,"AIT_27",1,NA,0,1,NA
"2748",1035,1,"AIT_28",1,NA,1,1,NA
"2749",1035,1,"AIT_29",1,NA,1,1,NA
"2750",1035,1,"AIT_30",1,NA,1,1,NA
"2751",1035,1,"AIT_31",1,NA,0,1,NA
"2752",1035,1,"AIT_32",1,NA,0,1,NA
"2753",1035,1,"AIT_33",1,NA,0,1,NA
"2754",1035,1,"AIT_34",1,NA,1,1,NA
"2755",1035,1,"AIT_35",1,NA,0,1,NA
"2756",1035,1,"AIT_36",1,NA,0,1,NA
"2757",1035,1,"AIT_37",1,NA,0,1,NA
"2758",1035,1,"AIT_38",1,NA,0,1,NA
"2759",1035,1,"AIT_39",1,NA,0,1,NA
"2760",1035,1,"AIT_40",1,NA,0,1,NA
"2761",1035,1,"BCT_1",1,NA,1,0,NA
"2762",1035,1,"BCT_2",1,NA,1,0,NA
"2763",1035,1,"BCT_3",1,NA,1,0,NA
"2764",1035,1,"BCT_4",1,NA,1,0,NA
"2765",1035,1,"BCT_5",1,NA,1,0,NA
"2766",1035,1,"BCT_6",1,NA,1,0,NA
"2767",1035,1,"BCT_7",1,NA,1,0,NA
"2768",1035,1,"BCT_8",1,NA,0,0,NA
"2769",1035,1,"BCT_9",1,NA,1,0,NA
"2770",1035,1,"BCT_10",1,NA,0,0,NA
"2771",1035,1,"BCT_11",1,NA,0,0,NA
"2772",1035,1,"BCT_12",1,NA,1,0,NA
"2773",1035,1,"BCT_13",1,NA,0,0,NA
"2774",1035,1,"BCT_14",1,NA,1,0,NA
"2775",1035,1,"BCT_15",1,NA,1,0,NA
"2776",1035,1,"BCT_16",1,NA,0,0,NA
"2777",1035,1,"BCT_17",1,NA,0,0,NA
"2778",1035,1,"BCT_18",1,NA,0,0,NA
"2779",1035,1,"BCT_19",1,NA,0,0,NA
"2780",1035,1,"BCT_20",1,NA,1,0,NA
"2781",1035,1,"BIT_21",1,NA,0,0,NA
"2782",1035,1,"BIT_22",1,NA,0,0,NA
"2783",1035,1,"BIT_23",1,NA,0,0,NA
"2784",1035,1,"BIT_24",1,NA,0,0,NA
"2785",1035,1,"BIT_25",1,NA,0,0,NA
"2786",1035,1,"BIT_26",1,NA,1,0,NA
"2787",1035,1,"BIT_27",1,NA,0,0,NA
"2788",1035,1,"BIT_28",1,NA,1,0,NA
"2789",1035,1,"BIT_29",1,NA,1,0,NA
"2790",1035,1,"BIT_30",1,NA,0,0,NA
"2791",1035,1,"BIT_31",1,NA,0,0,NA
"2792",1035,1,"BIT_32",1,NA,1,0,NA
"2793",1035,1,"BIT_33",1,NA,0,0,NA
"2794",1035,1,"BIT_34",1,NA,0,0,NA
"2795",1035,1,"BIT_35",1,NA,0,0,NA
"2796",1035,1,"BIT_36",1,NA,0,0,NA
"2797",1035,1,"BIT_37",1,NA,0,0,NA
"2798",1035,1,"BIT_38",1,NA,0,0,NA
"2799",1035,1,"BIT_39",1,NA,0,0,NA
"2800",1035,1,"BIT_40",1,NA,0,0,NA
"2801",1036,1,"ACT_1",1,NA,1,1,NA
"2802",1036,1,"ACT_2",1,NA,1,1,NA
"2803",1036,1,"ACT_3",1,NA,1,1,NA
"2804",1036,1,"ACT_4",1,NA,1,1,NA
"2805",1036,1,"ACT_5",1,NA,1,1,NA
"2806",1036,1,"ACT_6",1,NA,1,1,NA
"2807",1036,1,"ACT_7",1,NA,1,1,NA
"2808",1036,1,"ACT_8",1,NA,0,1,NA
"2809",1036,1,"ACT_9",1,NA,0,1,NA
"2810",1036,1,"ACT_10",1,NA,1,1,NA
"2811",1036,1,"ACT_11",1,NA,0,1,NA
"2812",1036,1,"ACT_12",1,NA,1,1,NA
"2813",1036,1,"ACT_13",1,NA,0,1,NA
"2814",1036,1,"ACT_14",1,NA,0,1,NA
"2815",1036,1,"ACT_15",1,NA,1,1,NA
"2816",1036,1,"ACT_16",1,NA,1,1,NA
"2817",1036,1,"ACT_17",1,NA,0,1,NA
"2818",1036,1,"ACT_18",1,NA,1,1,NA
"2819",1036,1,"ACT_19",1,NA,1,1,NA
"2820",1036,1,"ACT_20",1,NA,0,1,NA
"2821",1036,1,"AIT_21",1,NA,0,1,NA
"2822",1036,1,"AIT_22",1,NA,0,1,NA
"2823",1036,1,"AIT_23",1,NA,0,1,NA
"2824",1036,1,"AIT_24",1,NA,0,1,NA
"2825",1036,1,"AIT_25",1,NA,0,1,NA
"2826",1036,1,"AIT_26",1,NA,0,1,NA
"2827",1036,1,"AIT_27",1,NA,0,1,NA
"2828",1036,1,"AIT_28",1,NA,0,1,NA
"2829",1036,1,"AIT_29",1,NA,0,1,NA
"2830",1036,1,"AIT_30",1,NA,0,1,NA
"2831",1036,1,"AIT_31",1,NA,0,1,NA
"2832",1036,1,"AIT_32",1,NA,0,1,NA
"2833",1036,1,"AIT_33",1,NA,0,1,NA
"2834",1036,1,"AIT_34",1,NA,0,1,NA
"2835",1036,1,"AIT_35",1,NA,0,1,NA
"2836",1036,1,"AIT_36",1,NA,0,1,NA
"2837",1036,1,"AIT_37",1,NA,0,1,NA
"2838",1036,1,"AIT_38",1,NA,0,1,NA
"2839",1036,1,"AIT_39",1,NA,0,1,NA
"2840",1036,1,"AIT_40",1,NA,0,1,NA
"2841",1036,1,"BCT_1",1,NA,1,0,NA
"2842",1036,1,"BCT_2",1,NA,1,0,NA
"2843",1036,1,"BCT_3",1,NA,1,0,NA
"2844",1036,1,"BCT_4",1,NA,1,0,NA
"2845",1036,1,"BCT_5",1,NA,0,0,NA
"2846",1036,1,"BCT_6",1,NA,1,0,NA
"2847",1036,1,"BCT_7",1,NA,1,0,NA
"2848",1036,1,"BCT_8",1,NA,1,0,NA
"2849",1036,1,"BCT_9",1,NA,1,0,NA
"2850",1036,1,"BCT_10",1,NA,1,0,NA
"2851",1036,1,"BCT_11",1,NA,1,0,NA
"2852",1036,1,"BCT_12",1,NA,0,0,NA
"2853",1036,1,"BCT_13",1,NA,0,0,NA
"2854",1036,1,"BCT_14",1,NA,0,0,NA
"2855",1036,1,"BCT_15",1,NA,0,0,NA
"2856",1036,1,"BCT_16",1,NA,1,0,NA
"2857",1036,1,"BCT_17",1,NA,1,0,NA
"2858",1036,1,"BCT_18",1,NA,0,0,NA
"2859",1036,1,"BCT_19",1,NA,1,0,NA
"2860",1036,1,"BCT_20",1,NA,1,0,NA
"2861",1036,1,"BIT_21",1,NA,1,0,NA
"2862",1036,1,"BIT_22",1,NA,0,0,NA
"2863",1036,1,"BIT_23",1,NA,1,0,NA
"2864",1036,1,"BIT_24",1,NA,1,0,NA
"2865",1036,1,"BIT_25",1,NA,0,0,NA
"2866",1036,1,"BIT_26",1,NA,0,0,NA
"2867",1036,1,"BIT_27",1,NA,0,0,NA
"2868",1036,1,"BIT_28",1,NA,0,0,NA
"2869",1036,1,"BIT_29",1,NA,0,0,NA
"2870",1036,1,"BIT_30",1,NA,0,0,NA
"2871",1036,1,"BIT_31",1,NA,0,0,NA
"2872",1036,1,"BIT_32",1,NA,0,0,NA
"2873",1036,1,"BIT_33",1,NA,1,0,NA
"2874",1036,1,"BIT_34",1,NA,0,0,NA
"2875",1036,1,"BIT_35",1,NA,0,0,NA
"2876",1036,1,"BIT_36",1,NA,0,0,NA
"2877",1036,1,"BIT_37",1,NA,0,0,NA
"2878",1036,1,"BIT_38",1,NA,0,0,NA
"2879",1036,1,"BIT_39",1,NA,0,0,NA
"2880",1036,1,"BIT_40",1,NA,0,0,NA
"2881",1037,1,"ACT_1",1,NA,1,0,NA
"2882",1037,1,"ACT_2",1,NA,1,0,NA
"2883",1037,1,"ACT_3",1,NA,1,0,NA
"2884",1037,1,"ACT_4",1,NA,0,0,NA
"2885",1037,1,"ACT_5",1,NA,0,0,NA
"2886",1037,1,"ACT_6",1,NA,1,0,NA
"2887",1037,1,"ACT_7",1,NA,1,0,NA
"2888",1037,1,"ACT_8",1,NA,1,0,NA
"2889",1037,1,"ACT_9",1,NA,1,0,NA
"2890",1037,1,"ACT_10",1,NA,0,0,NA
"2891",1037,1,"ACT_11",1,NA,1,0,NA
"2892",1037,1,"ACT_12",1,NA,0,0,NA
"2893",1037,1,"ACT_13",1,NA,1,0,NA
"2894",1037,1,"ACT_14",1,NA,0,0,NA
"2895",1037,1,"ACT_15",1,NA,0,0,NA
"2896",1037,1,"ACT_16",1,NA,0,0,NA
"2897",1037,1,"ACT_17",1,NA,0,0,NA
"2898",1037,1,"ACT_18",1,NA,0,0,NA
"2899",1037,1,"ACT_19",1,NA,0,0,NA
"2900",1037,1,"ACT_20",1,NA,0,0,NA
"2901",1037,1,"AIT_21",1,NA,0,0,NA
"2902",1037,1,"AIT_22",1,NA,1,0,NA
"2903",1037,1,"AIT_23",1,NA,1,0,NA
"2904",1037,1,"AIT_24",1,NA,0,0,NA
