"","subject","statement_identifier","presentation_identifier","within_identifier","between_identifier","rt","response","repeated","trial"
"1",2307,1,1,1,1,NA,1,0,0
"2",2307,2,1,1,1,NA,0,1,1
"3",2307,3,1,1,1,NA,0,0,2
"4",2307,4,1,1,1,NA,0,0,3
"5",2307,5,1,1,1,NA,1,1,4
"6",2307,6,1,1,1,NA,1,1,5
"7",2307,7,1,1,1,NA,0,0,6
"8",2307,8,1,1,1,NA,0,1,7
"9",2307,9,1,1,1,NA,1,1,8
"10",2307,10,1,1,1,NA,0,1,9
"11",2307,11,1,1,1,NA,0,0,10
"12",2307,12,1,1,1,NA,1,1,11
"13",2307,13,1,1,1,NA,0,0,12
"14",2307,14,1,1,1,NA,0,0,13
"15",2307,15,1,1,1,NA,0,1,14
"16",2307,16,1,1,1,NA,0,1,15
"17",2307,17,1,1,1,NA,1,1,16
"18",2307,18,1,1,1,NA,0,0,17
"19",2307,19,1,1,1,NA,0,0,18
"20",2307,20,1,1,1,NA,1,1,19
"21",2307,21,1,1,1,NA,0,0,20
"22",2307,22,1,1,1,NA,0,0,21
"23",2307,23,1,1,1,NA,0,0,22
"24",2307,24,1,1,1,NA,0,1,23
"25",2307,25,1,1,1,NA,0,1,24
"26",2307,26,1,1,1,NA,0,0,25
"27",2307,27,1,1,1,NA,0,1,26
"28",2307,28,1,1,1,NA,0,0,27
"29",2307,29,1,1,1,NA,1,0,28
"30",2307,30,1,1,1,NA,0,0,29
"31",2307,31,1,1,1,NA,0,0,30
"32",2307,32,1,1,1,NA,1,1,31
"33",2307,33,1,1,1,NA,1,1,32
"34",2307,34,1,1,1,NA,0,1,33
"35",2307,35,1,1,1,NA,0,0,34
"36",2307,36,1,1,1,NA,0,0,35
"37",2307,37,1,1,1,NA,0,1,36
"38",2307,38,1,1,1,NA,0,0,37
"39",2307,39,1,1,1,NA,0,1,38
"40",2307,40,1,1,1,NA,0,1,39
"41",2306,14,1,1,1,NA,1,1,0
"42",2306,2,1,1,1,NA,0,1,1
"43",2306,35,1,1,1,NA,0,0,2
"44",2306,29,1,1,1,NA,0,0,3
"45",2306,32,1,1,1,NA,0,0,4
"46",2306,26,1,1,1,NA,1,0,5
"47",2306,23,1,1,1,NA,0,0,6
"48",2306,24,1,1,1,NA,0,0,7
"49",2306,11,1,1,1,NA,0,0,8
"50",2306,12,1,1,1,NA,0,1,9
"51",2306,25,1,1,1,NA,1,1,10
"52",2306,15,1,1,1,NA,0,0,11
"53",2306,22,1,1,1,NA,1,1,12
"54",2306,16,1,1,1,NA,1,1,13
"55",2306,28,1,1,1,NA,1,1,14
"56",2306,8,1,1,1,NA,0,1,15
"57",2306,40,1,1,1,NA,0,0,16
"58",2306,10,1,1,1,NA,0,0,17
"59",2306,9,1,1,1,NA,1,1,18
"60",2306,1,1,1,1,NA,1,1,19
"61",2306,39,1,1,1,NA,1,1,20
"62",2306,19,1,1,1,NA,1,1,21
"63",2306,13,1,1,1,NA,0,1,22
"64",2306,5,1,1,1,NA,0,0,23
"65",2306,36,1,1,1,NA,0,0,24
"66",2306,27,1,1,1,NA,0,0,25
"67",2306,6,1,1,1,NA,0,0,26
"68",2306,34,1,1,1,NA,0,0,27
"69",2306,33,1,1,1,NA,0,0,28
"70",2306,20,1,1,1,NA,0,0,29
"71",2306,3,1,1,1,NA,0,0,30
"72",2306,30,1,1,1,NA,0,0,31
"73",2306,17,1,1,1,NA,1,1,32
"74",2306,21,1,1,1,NA,0,0,33
"75",2306,37,1,1,1,NA,1,1,34
"76",2306,18,1,1,1,NA,1,1,35
"77",2306,4,1,1,1,NA,1,1,36
"78",2306,7,1,1,1,NA,1,1,37
"79",2306,31,1,1,1,NA,1,1,38
"80",2306,38,1,1,1,NA,0,1,39
"81",2304,40,1,1,1,NA,1,0,0
"82",2304,33,1,1,1,NA,1,1,1
"83",2304,16,1,1,1,NA,0,0,2
"84",2304,39,1,1,1,NA,0,1,3
"85",2304,37,1,1,1,NA,1,0,4
"86",2304,6,1,1,1,NA,0,1,5
"87",2304,13,1,1,1,NA,1,1,6
"88",2304,26,1,1,1,NA,0,1,7
"89",2304,22,1,1,1,NA,0,1,8
"90",2304,29,1,1,1,NA,0,1,9
"91",2304,8,1,1,1,NA,1,0,10
"92",2304,4,1,1,1,NA,1,1,11
"93",2304,15,1,1,1,NA,0,1,12
"94",2304,9,1,1,1,NA,0,0,13
"95",2304,21,1,1,1,NA,0,0,14
"96",2304,34,1,1,1,NA,1,0,15
"97",2304,36,1,1,1,NA,0,0,16
"98",2304,18,1,1,1,NA,1,0,17
"99",2304,2,1,1,1,NA,1,0,18
"100",2304,25,1,1,1,NA,1,0,19
"101",2304,31,1,1,1,NA,1,1,20
"102",2304,24,1,1,1,NA,0,1,21
"103",2304,27,1,1,1,NA,0,0,22
"104",2304,19,1,1,1,NA,1,1,23
"105",2304,7,1,1,1,NA,0,1,24
"106",2304,20,1,1,1,NA,1,0,25
"107",2304,28,1,1,1,NA,0,1,26
"108",2304,32,1,1,1,NA,1,0,27
"109",2304,1,1,1,1,NA,1,1,28
"110",2304,38,1,1,1,NA,1,1,29
"111",2304,11,1,1,1,NA,1,1,30
"112",2304,12,1,1,1,NA,1,0,31
"113",2304,30,1,1,1,NA,0,1,32
"114",2304,23,1,1,1,NA,1,0,33
"115",2304,14,1,1,1,NA,1,0,34
"116",2304,5,1,1,1,NA,1,0,35
"117",2304,10,1,1,1,NA,1,1,36
"118",2304,35,1,1,1,NA,1,0,37
"119",2304,17,1,1,1,NA,1,1,38
"120",2304,3,1,1,1,NA,1,0,39
"121",2303,10,1,1,1,NA,0,1,0
"122",2303,17,1,1,1,NA,0,1,1
"123",2303,23,1,1,1,NA,1,0,2
"124",2303,5,1,1,1,NA,1,0,3
"125",2303,20,1,1,1,NA,0,0,4
"126",2303,14,1,1,1,NA,0,1,5
"127",2303,34,1,1,1,NA,1,0,6
"128",2303,6,1,1,1,NA,0,1,7
"129",2303,33,1,1,1,NA,1,0,8
"130",2303,7,1,1,1,NA,0,0,9
"131",2303,22,1,1,1,NA,0,0,10
"132",2303,13,1,1,1,NA,1,0,11
"133",2303,37,1,1,1,NA,0,1,12
"134",2303,27,1,1,1,NA,0,0,13
"135",2303,18,1,1,1,NA,1,1,14
"136",2303,1,1,1,1,NA,0,0,15
"137",2303,3,1,1,1,NA,0,1,16
"138",2303,8,1,1,1,NA,1,1,17
"139",2303,38,1,1,1,NA,0,0,18
"140",2303,15,1,1,1,NA,1,1,19
"141",2303,32,1,1,1,NA,0,1,20
"142",2303,31,1,1,1,NA,0,0,21
"143",2303,30,1,1,1,NA,1,0,22
"144",2303,35,1,1,1,NA,0,1,23
"145",2303,29,1,1,1,NA,0,1,24
"146",2303,36,1,1,1,NA,1,1,25
"147",2303,28,1,1,1,NA,0,0,26
"148",2303,39,1,1,1,NA,1,1,27
"149",2303,9,1,1,1,NA,0,0,28
"150",2303,2,1,1,1,NA,0,1,29
"151",2303,21,1,1,1,NA,1,0,30
"152",2303,40,1,1,1,NA,0,1,31
"153",2303,24,1,1,1,NA,0,0,32
"154",2303,16,1,1,1,NA,1,0,33
"155",2303,25,1,1,1,NA,1,1,34
"156",2303,11,1,1,1,NA,1,0,35
"157",2303,4,1,1,1,NA,1,1,36
"158",2303,19,1,1,1,NA,0,1,37
"159",2303,26,1,1,1,NA,1,0,38
"160",2303,12,1,1,1,NA,0,1,39
"161",2302,39,1,1,1,NA,0,0,0
"162",2302,34,1,1,1,NA,1,1,1
"163",2302,27,1,1,1,NA,0,1,2
"164",2302,35,1,1,1,NA,0,1,3
"165",2302,12,1,1,1,NA,1,0,4
"166",2302,18,1,1,1,NA,0,0,5
"167",2302,7,1,1,1,NA,1,0,6
"168",2302,14,1,1,1,NA,1,1,7
"169",2302,26,1,1,1,NA,1,0,8
"170",2302,9,1,1,1,NA,1,0,9
"171",2302,29,1,1,1,NA,0,1,10
"172",2302,20,1,1,1,NA,1,1,11
"173",2302,8,1,1,1,NA,1,0,12
"174",2302,1,1,1,1,NA,1,0,13
"175",2302,15,1,1,1,NA,1,1,14
"176",2302,16,1,1,1,NA,1,0,15
"177",2302,33,1,1,1,NA,0,0,16
"178",2302,40,1,1,1,NA,1,0,17
"179",2302,10,1,1,1,NA,0,0,18
"180",2302,13,1,1,1,NA,0,0,19
"181",2302,11,1,1,1,NA,1,0,20
"182",2302,5,1,1,1,NA,1,1,21
"183",2302,25,1,1,1,NA,0,1,22
"184",2302,30,1,1,1,NA,1,1,23
"185",2302,6,1,1,1,NA,0,0,24
"186",2302,3,1,1,1,NA,0,0,25
"187",2302,24,1,1,1,NA,1,0,26
"188",2302,22,1,1,1,NA,0,0,27
"189",2302,17,1,1,1,NA,0,0,28
"190",2302,28,1,1,1,NA,0,1,29
"191",2302,2,1,1,1,NA,1,1,30
"192",2302,31,1,1,1,NA,1,1,31
"193",2302,38,1,1,1,NA,1,1,32
"194",2302,32,1,1,1,NA,0,1,33
"195",2302,23,1,1,1,NA,0,1,34
"196",2302,21,1,1,1,NA,0,1,35
"197",2302,36,1,1,1,NA,0,0,36
"198",2302,4,1,1,1,NA,0,1,37
"199",2302,19,1,1,1,NA,0,1,38
"200",2302,37,1,1,1,NA,0,1,39
"201",2301,26,1,1,1,NA,1,1,0
"202",2301,36,1,1,1,NA,1,1,1
"203",2301,32,1,1,1,NA,0,1,2
"204",2301,7,1,1,1,NA,0,0,3
"205",2301,35,1,1,1,NA,1,0,4
"206",2301,22,1,1,1,NA,1,1,5
"207",2301,34,1,1,1,NA,1,1,6
"208",2301,12,1,1,1,NA,0,0,7
"209",2301,23,1,1,1,NA,1,1,8
"210",2301,28,1,1,1,NA,0,0,9
"211",2301,18,1,1,1,NA,1,0,10
"212",2301,20,1,1,1,NA,1,0,11
"213",2301,6,1,1,1,NA,1,0,12
"214",2301,5,1,1,1,NA,1,0,13
"215",2301,31,1,1,1,NA,1,0,14
"216",2301,17,1,1,1,NA,1,0,15
"217",2301,25,1,1,1,NA,1,0,16
"218",2301,8,1,1,1,NA,1,0,17
"219",2301,37,1,1,1,NA,0,1,18
"220",2301,16,1,1,1,NA,1,0,19
"221",2301,3,1,1,1,NA,1,0,20
"222",2301,1,1,1,1,NA,0,1,21
"223",2301,19,1,1,1,NA,1,1,22
"224",2301,9,1,1,1,NA,0,1,23
"225",2301,33,1,1,1,NA,1,1,24
"226",2301,38,1,1,1,NA,1,1,25
"227",2301,13,1,1,1,NA,1,0,26
"228",2301,11,1,1,1,NA,1,1,27
"229",2301,40,1,1,1,NA,1,1,28
"230",2301,29,1,1,1,NA,0,0,29
"231",2301,27,1,1,1,NA,1,1,30
"232",2301,2,1,1,1,NA,1,1,31
"233",2301,14,1,1,1,NA,1,1,32
"234",2301,21,1,1,1,NA,0,1,33
"235",2301,24,1,1,1,NA,1,0,34
"236",2301,4,1,1,1,NA,1,0,35
"237",2301,10,1,1,1,NA,1,0,36
"238",2301,39,1,1,1,NA,1,1,37
"239",2301,30,1,1,1,NA,1,0,38
"240",2301,15,1,1,1,NA,1,1,39
"241",2299,16,1,1,1,NA,1,0,0
"242",2299,36,1,1,1,NA,0,1,1
"243",2299,35,1,1,1,NA,1,1,2
"244",2299,21,1,1,1,NA,0,1,3
"245",2299,25,1,1,1,NA,1,0,4
"246",2299,7,1,1,1,NA,1,1,5
"247",2299,28,1,1,1,NA,0,1,6
"248",2299,12,1,1,1,NA,1,0,7
"249",2299,24,1,1,1,NA,1,0,8
"250",2299,29,1,1,1,NA,0,0,9
"251",2299,4,1,1,1,NA,0,0,10
"252",2299,17,1,1,1,NA,0,0,11
"253",2299,14,1,1,1,NA,1,0,12
"254",2299,3,1,1,1,NA,1,0,13
"255",2299,33,1,1,1,NA,1,1,14
"256",2299,15,1,1,1,NA,1,1,15
"257",2299,31,1,1,1,NA,0,0,16
"258",2299,27,1,1,1,NA,0,1,17
"259",2299,19,1,1,1,NA,1,0,18
"260",2299,22,1,1,1,NA,0,0,19
"261",2299,34,1,1,1,NA,0,0,20
"262",2299,10,1,1,1,NA,0,0,21
"263",2299,9,1,1,1,NA,1,1,22
"264",2299,40,1,1,1,NA,1,0,23
"265",2299,13,1,1,1,NA,1,1,24
"266",2299,23,1,1,1,NA,1,1,25
"267",2299,1,1,1,1,NA,0,0,26
"268",2299,20,1,1,1,NA,0,0,27
"269",2299,37,1,1,1,NA,0,1,28
"270",2299,2,1,1,1,NA,0,1,29
"271",2299,8,1,1,1,NA,0,1,30
"272",2299,11,1,1,1,NA,1,1,31
"273",2299,39,1,1,1,NA,0,1,32
"274",2299,18,1,1,1,NA,0,0,33
"275",2299,5,1,1,1,NA,0,0,34
"276",2299,30,1,1,1,NA,1,0,35
"277",2299,6,1,1,1,NA,0,1,36
"278",2299,32,1,1,1,NA,1,1,37
"279",2299,38,1,1,1,NA,1,1,38
"280",2299,26,1,1,1,NA,0,1,39
"281",2298,13,1,1,1,NA,0,1,0
"282",2298,15,1,1,1,NA,0,1,1
"283",2298,37,1,1,1,NA,0,1,2
"284",2298,2,1,1,1,NA,0,0,3
"285",2298,36,1,1,1,NA,0,0,4
"286",2298,34,1,1,1,NA,0,1,5
"287",2298,33,1,1,1,NA,1,1,6
"288",2298,38,1,1,1,NA,0,0,7
"289",2298,24,1,1,1,NA,0,1,8
"290",2298,22,1,1,1,NA,0,0,9
"291",2298,16,1,1,1,NA,1,0,10
"292",2298,18,1,1,1,NA,0,1,11
"293",2298,26,1,1,1,NA,0,1,12
"294",2298,20,1,1,1,NA,1,0,13
"295",2298,12,1,1,1,NA,1,0,14
"296",2298,9,1,1,1,NA,1,0,15
"297",2298,10,1,1,1,NA,0,0,16
"298",2298,7,1,1,1,NA,0,1,17
"299",2298,31,1,1,1,NA,0,1,18
"300",2298,8,1,1,1,NA,0,1,19
"301",2298,14,1,1,1,NA,1,1,20
"302",2298,27,1,1,1,NA,0,0,21
"303",2298,28,1,1,1,NA,0,0,22
"304",2298,11,1,1,1,NA,0,0,23
"305",2298,4,1,1,1,NA,1,1,24
"306",2298,21,1,1,1,NA,0,0,25
"307",2298,39,1,1,1,NA,1,1,26
"308",2298,25,1,1,1,NA,1,0,27
"309",2298,6,1,1,1,NA,1,0,28
"310",2298,5,1,1,1,NA,0,1,29
"311",2298,19,1,1,1,NA,0,0,30
"312",2298,35,1,1,1,NA,0,0,31
"313",2298,3,1,1,1,NA,1,0,32
"314",2298,29,1,1,1,NA,1,1,33
"315",2298,30,1,1,1,NA,0,1,34
"316",2298,1,1,1,1,NA,1,0,35
"317",2298,40,1,1,1,NA,1,1,36
"318",2298,17,1,1,1,NA,0,1,37
"319",2298,32,1,1,1,NA,1,1,38
"320",2298,23,1,1,1,NA,0,0,39
"321",2297,13,1,1,1,NA,1,1,0
"322",2297,35,1,1,1,NA,1,1,1
"323",2297,28,1,1,1,NA,0,1,2
"324",2297,21,1,1,1,NA,0,1,3
"325",2297,32,1,1,1,NA,0,1,4
"326",2297,34,1,1,1,NA,1,0,5
"327",2297,12,1,1,1,NA,1,1,6
"328",2297,38,1,1,1,NA,1,1,7
"329",2297,30,1,1,1,NA,1,0,8
"330",2297,19,1,1,1,NA,0,1,9
"331",2297,31,1,1,1,NA,0,1,10
"332",2297,5,1,1,1,NA,0,0,11
"333",2297,10,1,1,1,NA,1,1,12
"334",2297,20,1,1,1,NA,1,0,13
"335",2297,25,1,1,1,NA,0,0,14
"336",2297,14,1,1,1,NA,0,0,15
"337",2297,36,1,1,1,NA,0,0,16
"338",2297,24,1,1,1,NA,0,0,17
"339",2297,3,1,1,1,NA,0,0,18
"340",2297,29,1,1,1,NA,0,1,19
"341",2297,22,1,1,1,NA,1,0,20
"342",2297,15,1,1,1,NA,1,0,21
"343",2297,6,1,1,1,NA,1,1,22
"344",2297,4,1,1,1,NA,1,1,23
"345",2297,18,1,1,1,NA,0,1,24
"346",2297,7,1,1,1,NA,0,0,25
"347",2297,37,1,1,1,NA,0,0,26
"348",2297,17,1,1,1,NA,0,0,27
"349",2297,40,1,1,1,NA,0,1,28
"350",2297,26,1,1,1,NA,0,0,29
"351",2297,16,1,1,1,NA,0,1,30
"352",2297,8,1,1,1,NA,1,0,31
"353",2297,33,1,1,1,NA,1,0,32
"354",2297,2,1,1,1,NA,0,1,33
"355",2297,11,1,1,1,NA,0,1,34
"356",2297,1,1,1,1,NA,0,1,35
"357",2297,23,1,1,1,NA,0,0,36
"358",2297,27,1,1,1,NA,1,1,37
"359",2297,9,1,1,1,NA,1,0,38
"360",2297,39,1,1,1,NA,1,0,39
"361",2296,1,1,1,1,NA,0,1,0
"362",2296,7,1,1,1,NA,0,0,1
"363",2296,16,1,1,1,NA,1,0,2
"364",2296,4,1,1,1,NA,1,1,3
"365",2296,31,1,1,1,NA,0,0,4
"366",2296,3,1,1,1,NA,0,0,5
"367",2296,6,1,1,1,NA,1,1,6
"368",2296,38,1,1,1,NA,1,0,7
"369",2296,39,1,1,1,NA,0,1,8
"370",2296,20,1,1,1,NA,1,1,9
"371",2296,24,1,1,1,NA,1,0,10
"372",2296,22,1,1,1,NA,1,1,11
"373",2296,36,1,1,1,NA,1,0,12
"374",2296,17,1,1,1,NA,1,1,13
"375",2296,11,1,1,1,NA,0,1,14
"376",2296,23,1,1,1,NA,0,0,15
"377",2296,12,1,1,1,NA,1,1,16
"378",2296,33,1,1,1,NA,1,0,17
"379",2296,30,1,1,1,NA,1,1,18
"380",2296,26,1,1,1,NA,0,1,19
"381",2296,40,1,1,1,NA,1,1,20
"382",2296,14,1,1,1,NA,0,1,21
"383",2296,8,1,1,1,NA,1,1,22
"384",2296,29,1,1,1,NA,0,0,23
"385",2296,35,1,1,1,NA,1,1,24
"386",2296,34,1,1,1,NA,1,1,25
"387",2296,5,1,1,1,NA,0,1,26
"388",2296,21,1,1,1,NA,1,0,27
"389",2296,19,1,1,1,NA,1,1,28
"390",2296,25,1,1,1,NA,0,0,29
"391",2296,28,1,1,1,NA,0,0,30
"392",2296,9,1,1,1,NA,1,0,31
"393",2296,15,1,1,1,NA,1,0,32
"394",2296,10,1,1,1,NA,1,0,33
"395",2296,18,1,1,1,NA,1,1,34
"396",2296,13,1,1,1,NA,0,1,35
"397",2296,37,1,1,1,NA,1,0,36
"398",2296,2,1,1,1,NA,0,0,37
"399",2296,27,1,1,1,NA,1,0,38
"400",2296,32,1,1,1,NA,1,0,39
"401",2294,34,1,1,1,NA,1,0,0
"402",2294,40,1,1,1,NA,1,1,1
"403",2294,6,1,1,1,NA,0,1,2
"404",2294,22,1,1,1,NA,0,0,3
"405",2294,36,1,1,1,NA,1,0,4
"406",2294,9,1,1,1,NA,1,1,5
"407",2294,14,1,1,1,NA,1,0,6
"408",2294,28,1,1,1,NA,0,0,7
"409",2294,21,1,1,1,NA,0,1,8
"410",2294,1,1,1,1,NA,1,0,9
"411",2294,18,1,1,1,NA,1,1,10
"412",2294,26,1,1,1,NA,0,1,11
"413",2294,13,1,1,1,NA,0,0,12
"414",2294,8,1,1,1,NA,0,0,13
"415",2294,10,1,1,1,NA,0,0,14
"416",2294,15,1,1,1,NA,0,1,15
"417",2294,5,1,1,1,NA,0,1,16
"418",2294,17,1,1,1,NA,0,1,17
"419",2294,2,1,1,1,NA,1,0,18
"420",2294,24,1,1,1,NA,1,0,19
"421",2294,32,1,1,1,NA,1,1,20
"422",2294,31,1,1,1,NA,1,1,21
"423",2294,20,1,1,1,NA,1,1,22
"424",2294,35,1,1,1,NA,0,1,23
"425",2294,3,1,1,1,NA,1,0,24
"426",2294,37,1,1,1,NA,1,1,25
"427",2294,4,1,1,1,NA,1,0,26
"428",2294,39,1,1,1,NA,1,0,27
"429",2294,27,1,1,1,NA,0,0,28
"430",2294,19,1,1,1,NA,1,0,29
"431",2294,11,1,1,1,NA,1,0,30
"432",2294,29,1,1,1,NA,1,0,31
"433",2294,16,1,1,1,NA,1,0,32
"434",2294,23,1,1,1,NA,1,1,33
"435",2294,33,1,1,1,NA,1,1,34
"436",2294,12,1,1,1,NA,1,1,35
"437",2294,25,1,1,1,NA,0,1,36
"438",2294,7,1,1,1,NA,1,1,37
"439",2294,38,1,1,1,NA,1,1,38
"440",2294,30,1,1,1,NA,1,0,39
"441",2293,9,1,1,1,NA,0,0,0
"442",2293,35,1,1,1,NA,1,1,1
"443",2293,5,1,1,1,NA,1,0,2
"444",2293,33,1,1,1,NA,0,0,3
"445",2293,38,1,1,1,NA,1,0,4
"446",2293,20,1,1,1,NA,1,1,5
"447",2293,8,1,1,1,NA,0,0,6
"448",2293,25,1,1,1,NA,1,1,7
"449",2293,29,1,1,1,NA,1,1,8
"450",2293,11,1,1,1,NA,1,0,9
"451",2293,22,1,1,1,NA,0,0,10
"452",2293,6,1,1,1,NA,1,1,11
"453",2293,24,1,1,1,NA,1,0,12
"454",2293,31,1,1,1,NA,0,0,13
"455",2293,2,1,1,1,NA,1,1,14
"456",2293,16,1,1,1,NA,0,1,15
"457",2293,10,1,1,1,NA,0,1,16
"458",2293,7,1,1,1,NA,0,1,17
"459",2293,26,1,1,1,NA,1,0,18
"460",2293,1,1,1,1,NA,1,0,19
"461",2293,13,1,1,1,NA,1,0,20
"462",2293,18,1,1,1,NA,1,1,21
"463",2293,14,1,1,1,NA,1,1,22
"464",2293,40,1,1,1,NA,1,1,23
"465",2293,36,1,1,1,NA,0,1,24
"466",2293,17,1,1,1,NA,1,1,25
"467",2293,15,1,1,1,NA,0,0,26
"468",2293,12,1,1,1,NA,1,0,27
"469",2293,19,1,1,1,NA,0,1,28
"470",2293,34,1,1,1,NA,1,0,29
"471",2293,28,1,1,1,NA,0,0,30
"472",2293,37,1,1,1,NA,1,0,31
"473",2293,4,1,1,1,NA,1,0,32
"474",2293,39,1,1,1,NA,1,1,33
"475",2293,23,1,1,1,NA,0,1,34
"476",2293,3,1,1,1,NA,0,1,35
"477",2293,30,1,1,1,NA,0,0,36
"478",2293,32,1,1,1,NA,0,1,37
"479",2293,21,1,1,1,NA,0,0,38
"480",2293,27,1,1,1,NA,0,1,39
"481",2292,2,1,1,1,NA,0,0,0
"482",2292,40,1,1,1,NA,0,0,1
"483",2292,37,1,1,1,NA,1,1,2
"484",2292,16,1,1,1,NA,1,1,3
"485",2292,15,1,1,1,NA,1,0,4
"486",2292,6,1,1,1,NA,1,0,5
"487",2292,33,1,1,1,NA,0,1,6
"488",2292,28,1,1,1,NA,1,1,7
"489",2292,10,1,1,1,NA,1,1,8
"490",2292,11,1,1,1,NA,0,0,9
"491",2292,35,1,1,1,NA,1,0,10
"492",2292,30,1,1,1,NA,0,1,11
"493",2292,23,1,1,1,NA,0,1,12
"494",2292,21,1,1,1,NA,1,0,13
"495",2292,1,1,1,1,NA,0,0,14
"496",2292,31,1,1,1,NA,0,1,15
"497",2292,26,1,1,1,NA,1,1,16
"498",2292,4,1,1,1,NA,0,0,17
"499",2292,36,1,1,1,NA,0,0,18
"500",2292,39,1,1,1,NA,1,0,19
"501",2292,18,1,1,1,NA,1,1,20
"502",2292,12,1,1,1,NA,1,0,21
"503",2292,14,1,1,1,NA,0,0,22
"504",2292,3,1,1,1,NA,1,1,23
"505",2292,5,1,1,1,NA,0,0,24
"506",2292,7,1,1,1,NA,1,1,25
"507",2292,24,1,1,1,NA,1,1,26
"508",2292,27,1,1,1,NA,1,0,27
"509",2292,20,1,1,1,NA,1,1,28
"510",2292,38,1,1,1,NA,1,1,29
"511",2292,13,1,1,1,NA,0,0,30
"512",2292,32,1,1,1,NA,0,0,31
"513",2292,19,1,1,1,NA,1,0,32
"514",2292,17,1,1,1,NA,1,1,33
"515",2292,29,1,1,1,NA,1,1,34
"516",2292,34,1,1,1,NA,0,1,35
"517",2292,8,1,1,1,NA,0,0,36
"518",2292,25,1,1,1,NA,0,1,37
"519",2292,9,1,1,1,NA,1,0,38
"520",2292,22,1,1,1,NA,1,1,39
"521",2291,16,1,1,1,NA,0,0,0
"522",2291,35,1,1,1,NA,1,1,1
"523",2291,21,1,1,1,NA,1,0,2
"524",2291,22,1,1,1,NA,1,1,3
"525",2291,4,1,1,1,NA,0,1,4
"526",2291,20,1,1,1,NA,1,1,5
"527",2291,8,1,1,1,NA,0,0,6
"528",2291,32,1,1,1,NA,1,1,7
"529",2291,26,1,1,1,NA,0,1,8
"530",2291,6,1,1,1,NA,1,1,9
"531",2291,10,1,1,1,NA,1,1,10
"532",2291,30,1,1,1,NA,0,0,11
"533",2291,37,1,1,1,NA,1,1,12
"534",2291,2,1,1,1,NA,1,1,13
"535",2291,18,1,1,1,NA,0,1,14
"536",2291,39,1,1,1,NA,1,0,15
"537",2291,19,1,1,1,NA,1,1,16
"538",2291,40,1,1,1,NA,1,1,17
"539",2291,15,1,1,1,NA,0,0,18
"540",2291,1,1,1,1,NA,0,1,19
"541",2291,36,1,1,1,NA,1,0,20
"542",2291,29,1,1,1,NA,1,1,21
"543",2291,27,1,1,1,NA,1,0,22
"544",2291,17,1,1,1,NA,0,0,23
"545",2291,24,1,1,1,NA,0,0,24
"546",2291,9,1,1,1,NA,0,1,25
"547",2291,3,1,1,1,NA,1,0,26
"548",2291,33,1,1,1,NA,1,1,27
"549",2291,31,1,1,1,NA,1,1,28
"550",2291,14,1,1,1,NA,1,0,29
"551",2291,23,1,1,1,NA,0,0,30
"552",2291,38,1,1,1,NA,0,0,31
"553",2291,25,1,1,1,NA,0,1,32
"554",2291,34,1,1,1,NA,1,1,33
"555",2291,11,1,1,1,NA,1,0,34
"556",2291,12,1,1,1,NA,1,0,35
"557",2291,28,1,1,1,NA,0,0,36
"558",2291,5,1,1,1,NA,1,0,37
"559",2291,7,1,1,1,NA,1,0,38
"560",2291,13,1,1,1,NA,1,0,39
"561",2290,29,1,1,1,NA,1,0,0
"562",2290,32,1,1,1,NA,0,1,1
"563",2290,36,1,1,1,NA,1,1,2
"564",2290,22,1,1,1,NA,1,0,3
"565",2290,34,1,1,1,NA,1,1,4
"566",2290,7,1,1,1,NA,0,1,5
"567",2290,6,1,1,1,NA,0,0,6
"568",2290,18,1,1,1,NA,0,1,7
"569",2290,39,1,1,1,NA,1,0,8
"570",2290,30,1,1,1,NA,0,1,9
"571",2290,16,1,1,1,NA,1,0,10
"572",2290,23,1,1,1,NA,1,1,11
"573",2290,28,1,1,1,NA,1,0,12
"574",2290,3,1,1,1,NA,0,1,13
"575",2290,20,1,1,1,NA,1,1,14
"576",2290,17,1,1,1,NA,1,0,15
"577",2290,27,1,1,1,NA,1,1,16
"578",2290,40,1,1,1,NA,0,1,17
"579",2290,19,1,1,1,NA,1,1,18
"580",2290,8,1,1,1,NA,1,0,19
"581",2290,9,1,1,1,NA,1,1,20
"582",2290,38,1,1,1,NA,0,0,21
"583",2290,1,1,1,1,NA,1,1,22
"584",2290,10,1,1,1,NA,1,0,23
"585",2290,14,1,1,1,NA,1,1,24
"586",2290,21,1,1,1,NA,0,1,25
"587",2290,25,1,1,1,NA,0,0,26
"588",2290,13,1,1,1,NA,0,0,27
"589",2290,33,1,1,1,NA,0,0,28
"590",2290,15,1,1,1,NA,0,1,29
"591",2290,31,1,1,1,NA,1,0,30
"592",2290,2,1,1,1,NA,1,0,31
"593",2290,26,1,1,1,NA,0,0,32
"594",2290,4,1,1,1,NA,1,1,33
"595",2290,12,1,1,1,NA,1,1,34
"596",2290,37,1,1,1,NA,1,0,35
"597",2290,11,1,1,1,NA,1,0,36
"598",2290,5,1,1,1,NA,1,0,37
"599",2290,35,1,1,1,NA,1,1,38
"600",2290,24,1,1,1,NA,0,0,39
"601",2289,38,1,1,1,NA,0,0,0
"602",2289,12,1,1,1,NA,1,1,1
"603",2289,9,1,1,1,NA,0,0,2
"604",2289,23,1,1,1,NA,0,0,3
"605",2289,24,1,1,1,NA,1,1,4
"606",2289,20,1,1,1,NA,1,1,5
"607",2289,36,1,1,1,NA,0,0,6
"608",2289,29,1,1,1,NA,0,0,7
"609",2289,39,1,1,1,NA,0,0,8
"610",2289,27,1,1,1,NA,1,1,9
"611",2289,16,1,1,1,NA,0,0,10
"612",2289,33,1,1,1,NA,1,1,11
"613",2289,11,1,1,1,NA,1,1,12
"614",2289,17,1,1,1,NA,1,1,13
"615",2289,21,1,1,1,NA,0,0,14
"616",2289,4,1,1,1,NA,1,1,15
"617",2289,19,1,1,1,NA,0,0,16
"618",2289,18,1,1,1,NA,0,1,17
"619",2289,14,1,1,1,NA,0,0,18
"620",2289,32,1,1,1,NA,0,0,19
"621",2289,35,1,1,1,NA,1,1,20
"622",2289,2,1,1,1,NA,1,1,21
"623",2289,8,1,1,1,NA,0,1,22
"624",2289,10,1,1,1,NA,0,0,23
"625",2289,40,1,1,1,NA,0,0,24
"626",2289,7,1,1,1,NA,0,0,25
"627",2289,28,1,1,1,NA,1,1,26
"628",2289,37,1,1,1,NA,0,0,27
"629",2289,1,1,1,1,NA,1,1,28
"630",2289,22,1,1,1,NA,1,1,29
"631",2289,30,1,1,1,NA,0,0,30
"632",2289,3,1,1,1,NA,0,0,31
"633",2289,26,1,1,1,NA,1,1,32
"634",2289,13,1,1,1,NA,1,1,33
"635",2289,34,1,1,1,NA,1,1,34
"636",2289,15,1,1,1,NA,1,1,35
"637",2289,31,1,1,1,NA,0,0,36
"638",2289,25,1,1,1,NA,0,0,37
"639",2289,6,1,1,1,NA,1,1,38
"640",2289,5,1,1,1,NA,0,0,39
"641",2288,28,1,1,1,NA,0,1,0
"642",2288,22,1,1,1,NA,0,0,1
"643",2288,4,1,1,1,NA,0,0,2
"644",2288,35,1,1,1,NA,1,1,3
"645",2288,7,1,1,1,NA,0,0,4
"646",2288,8,1,1,1,NA,1,1,5
"647",2288,36,1,1,1,NA,1,0,6
"648",2288,30,1,1,1,NA,1,0,7
"649",2288,16,1,1,1,NA,0,0,8
"650",2288,40,1,1,1,NA,1,0,9
"651",2288,34,1,1,1,NA,1,1,10
"652",2288,32,1,1,1,NA,1,1,11
"653",2288,12,1,1,1,NA,1,1,12
"654",2288,9,1,1,1,NA,0,1,13
"655",2288,18,1,1,1,NA,1,1,14
"656",2288,11,1,1,1,NA,0,0,15
"657",2288,37,1,1,1,NA,1,1,16
"658",2288,6,1,1,1,NA,1,1,17
"659",2288,2,1,1,1,NA,1,0,18
"660",2288,24,1,1,1,NA,0,0,19
"661",2288,26,1,1,1,NA,0,0,20
"662",2288,10,1,1,1,NA,0,0,21
"663",2288,14,1,1,1,NA,1,0,22
"664",2288,13,1,1,1,NA,1,0,23
"665",2288,19,1,1,1,NA,0,1,24
"666",2288,38,1,1,1,NA,1,1,25
"667",2288,23,1,1,1,NA,0,1,26
"668",2288,21,1,1,1,NA,0,1,27
"669",2288,17,1,1,1,NA,1,1,28
"670",2288,5,1,1,1,NA,1,1,29
"671",2288,27,1,1,1,NA,1,0,30
"672",2288,39,1,1,1,NA,1,0,31
"673",2288,1,1,1,1,NA,1,1,32
"674",2288,15,1,1,1,NA,0,1,33
"675",2288,33,1,1,1,NA,1,1,34
"676",2288,25,1,1,1,NA,1,0,35
"677",2288,3,1,1,1,NA,0,0,36
"678",2288,20,1,1,1,NA,0,0,37
"679",2288,29,1,1,1,NA,0,0,38
"680",2288,31,1,1,1,NA,1,1,39
"681",2285,38,1,1,1,NA,0,1,0
"682",2285,36,1,1,1,NA,0,1,1
"683",2285,39,1,1,1,NA,1,0,2
"684",2285,19,1,1,1,NA,1,1,3
"685",2285,14,1,1,1,NA,0,0,4
"686",2285,15,1,1,1,NA,1,0,5
"687",2285,2,1,1,1,NA,1,1,6
"688",2285,40,1,1,1,NA,0,1,7
"689",2285,7,1,1,1,NA,0,0,8
"690",2285,20,1,1,1,NA,1,0,9
"691",2285,30,1,1,1,NA,0,1,10
"692",2285,33,1,1,1,NA,1,1,11
"693",2285,21,1,1,1,NA,0,0,12
"694",2285,11,1,1,1,NA,0,0,13
"695",2285,23,1,1,1,NA,1,0,14
"696",2285,35,1,1,1,NA,1,1,15
"697",2285,8,1,1,1,NA,1,1,16
"698",2285,29,1,1,1,NA,1,1,17
"699",2285,18,1,1,1,NA,1,1,18
"700",2285,27,1,1,1,NA,1,0,19
"701",2285,12,1,1,1,NA,0,1,20
"702",2285,13,1,1,1,NA,1,1,21
"703",2285,1,1,1,1,NA,1,1,22
"704",2285,24,1,1,1,NA,1,0,23
"705",2285,9,1,1,1,NA,0,1,24
"706",2285,5,1,1,1,NA,1,0,25
"707",2285,4,1,1,1,NA,1,0,26
"708",2285,6,1,1,1,NA,1,0,27
"709",2285,3,1,1,1,NA,1,0,28
"710",2285,16,1,1,1,NA,1,0,29
"711",2285,10,1,1,1,NA,0,0,30
"712",2285,31,1,1,1,NA,1,1,31
"713",2285,22,1,1,1,NA,1,1,32
"714",2285,32,1,1,1,NA,1,0,33
"715",2285,37,1,1,1,NA,1,0,34
"716",2285,25,1,1,1,NA,1,1,35
"717",2285,26,1,1,1,NA,0,1,36
"718",2285,28,1,1,1,NA,1,0,37
"719",2285,17,1,1,1,NA,1,1,38
"720",2285,34,1,1,1,NA,1,0,39
"721",2284,20,1,1,1,NA,0,1,0
"722",2284,36,1,1,1,NA,1,0,1
"723",2284,21,1,1,1,NA,1,1,2
"724",2284,4,1,1,1,NA,0,0,3
"725",2284,22,1,1,1,NA,0,1,4
"726",2284,35,1,1,1,NA,0,0,5
"727",2284,39,1,1,1,NA,1,0,6
"728",2284,19,1,1,1,NA,1,1,7
"729",2284,1,1,1,1,NA,1,0,8
"730",2284,24,1,1,1,NA,1,0,9
"731",2284,33,1,1,1,NA,1,1,10
"732",2284,18,1,1,1,NA,0,0,11
"733",2284,25,1,1,1,NA,0,1,12
"734",2284,2,1,1,1,NA,0,1,13
"735",2284,12,1,1,1,NA,0,0,14
"736",2284,34,1,1,1,NA,1,0,15
"737",2284,7,1,1,1,NA,0,1,16
"738",2284,26,1,1,1,NA,0,1,17
"739",2284,13,1,1,1,NA,0,1,18
"740",2284,6,1,1,1,NA,0,1,19
"741",2284,31,1,1,1,NA,0,1,20
"742",2284,5,1,1,1,NA,1,0,21
"743",2284,14,1,1,1,NA,1,0,22
"744",2284,32,1,1,1,NA,0,0,23
"745",2284,38,1,1,1,NA,0,0,24
"746",2284,3,1,1,1,NA,1,1,25
"747",2284,16,1,1,1,NA,1,1,26
"748",2284,10,1,1,1,NA,0,1,27
"749",2284,17,1,1,1,NA,0,0,28
"750",2284,27,1,1,1,NA,0,1,29
"751",2284,37,1,1,1,NA,0,0,30
"752",2284,15,1,1,1,NA,0,1,31
"753",2284,11,1,1,1,NA,0,0,32
"754",2284,28,1,1,1,NA,0,0,33
"755",2284,29,1,1,1,NA,1,0,34
"756",2284,30,1,1,1,NA,0,1,35
"757",2284,8,1,1,1,NA,1,0,36
"758",2284,40,1,1,1,NA,0,0,37
"759",2284,9,1,1,1,NA,1,1,38
"760",2284,23,1,1,1,NA,0,1,39
"761",2283,10,1,1,1,NA,1,1,0
"762",2283,34,1,1,1,NA,0,0,1
"763",2283,33,1,1,1,NA,1,1,2
"764",2283,38,1,1,1,NA,0,1,3
"765",2283,15,1,1,1,NA,0,0,4
"766",2283,19,1,1,1,NA,0,0,5
"767",2283,9,1,1,1,NA,1,0,6
"768",2283,26,1,1,1,NA,1,0,7
"769",2283,40,1,1,1,NA,1,0,8
"770",2283,39,1,1,1,NA,0,0,9
"771",2283,32,1,1,1,NA,1,0,10
"772",2283,12,1,1,1,NA,1,1,11
"773",2283,35,1,1,1,NA,0,0,12
"774",2283,27,1,1,1,NA,0,0,13
"775",2283,23,1,1,1,NA,0,0,14
"776",2283,6,1,1,1,NA,1,0,15
"777",2283,13,1,1,1,NA,1,1,16
"778",2283,28,1,1,1,NA,0,1,17
"779",2283,3,1,1,1,NA,1,1,18
"780",2283,14,1,1,1,NA,0,0,19
"781",2283,21,1,1,1,NA,0,1,20
"782",2283,17,1,1,1,NA,0,1,21
"783",2283,37,1,1,1,NA,1,1,22
"784",2283,1,1,1,1,NA,1,0,23
"785",2283,25,1,1,1,NA,1,0,24
"786",2283,2,1,1,1,NA,1,0,25
"787",2283,8,1,1,1,NA,1,1,26
"788",2283,16,1,1,1,NA,0,1,27
"789",2283,4,1,1,1,NA,0,1,28
"790",2283,29,1,1,1,NA,1,1,29
"791",2283,36,1,1,1,NA,1,1,30
"792",2283,31,1,1,1,NA,0,0,31
"793",2283,7,1,1,1,NA,0,0,32
"794",2283,11,1,1,1,NA,1,1,33
"795",2283,20,1,1,1,NA,0,0,34
"796",2283,24,1,1,1,NA,0,0,35
"797",2283,18,1,1,1,NA,1,1,36
"798",2283,30,1,1,1,NA,1,1,37
"799",2283,5,1,1,1,NA,1,1,38
"800",2283,22,1,1,1,NA,0,1,39
"801",2282,31,1,1,1,NA,0,0,0
"802",2282,22,1,1,1,NA,0,1,1
"803",2282,19,1,1,1,NA,0,0,2
"804",2282,7,1,1,1,NA,1,1,3
"805",2282,2,1,1,1,NA,0,0,4
"806",2282,10,1,1,1,NA,1,1,5
"807",2282,39,1,1,1,NA,0,1,6
"808",2282,27,1,1,1,NA,1,1,7
"809",2282,8,1,1,1,NA,1,0,8
"810",2282,36,1,1,1,NA,0,1,9
"811",2282,4,1,1,1,NA,1,0,10
"812",2282,24,1,1,1,NA,0,0,11
"813",2282,29,1,1,1,NA,0,0,12
"814",2282,32,1,1,1,NA,0,1,13
"815",2282,33,1,1,1,NA,1,1,14
"816",2282,28,1,1,1,NA,0,0,15
"817",2282,6,1,1,1,NA,0,1,16
"818",2282,16,1,1,1,NA,1,0,17
"819",2282,11,1,1,1,NA,1,1,18
"820",2282,13,1,1,1,NA,0,0,19
"821",2282,40,1,1,1,NA,0,1,20
"822",2282,34,1,1,1,NA,1,0,21
"823",2282,14,1,1,1,NA,1,1,22
"824",2282,26,1,1,1,NA,1,1,23
"825",2282,18,1,1,1,NA,0,1,24
"826",2282,21,1,1,1,NA,0,1,25
"827",2282,30,1,1,1,NA,1,0,26
"828",2282,9,1,1,1,NA,1,1,27
"829",2282,3,1,1,1,NA,1,0,28
"830",2282,17,1,1,1,NA,1,0,29
"831",2282,5,1,1,1,NA,1,0,30
"832",2282,25,1,1,1,NA,0,0,31
"833",2282,37,1,1,1,NA,1,1,32
"834",2282,1,1,1,1,NA,1,1,33
"835",2282,38,1,1,1,NA,0,0,34
"836",2282,15,1,1,1,NA,0,0,35
"837",2282,20,1,1,1,NA,1,0,36
"838",2282,12,1,1,1,NA,1,1,37
"839",2282,35,1,1,1,NA,0,0,38
"840",2282,23,1,1,1,NA,0,1,39
"841",2281,7,1,1,1,NA,0,0,0
"842",2281,3,1,1,1,NA,1,1,1
"843",2281,1,1,1,1,NA,0,0,2
"844",2281,18,1,1,1,NA,0,0,3
"845",2281,23,1,1,1,NA,0,0,4
"846",2281,21,1,1,1,NA,0,0,5
"847",2281,32,1,1,1,NA,1,1,6
"848",2281,10,1,1,1,NA,0,0,7
"849",2281,38,1,1,1,NA,1,1,8
"850",2281,4,1,1,1,NA,1,1,9
"851",2281,31,1,1,1,NA,0,0,10
"852",2281,22,1,1,1,NA,1,1,11
"853",2281,35,1,1,1,NA,0,0,12
"854",2281,19,1,1,1,NA,1,1,13
"855",2281,37,1,1,1,NA,0,0,14
"856",2281,20,1,1,1,NA,1,1,15
"857",2281,5,1,1,1,NA,0,0,16
"858",2281,30,1,1,1,NA,1,1,17
"859",2281,11,1,1,1,NA,1,1,18
"860",2281,9,1,1,1,NA,0,0,19
"861",2281,29,1,1,1,NA,0,0,20
"862",2281,15,1,1,1,NA,1,1,21
"863",2281,25,1,1,1,NA,0,0,22
"864",2281,39,1,1,1,NA,0,0,23
"865",2281,27,1,1,1,NA,0,0,24
"866",2281,12,1,1,1,NA,1,1,25
"867",2281,28,1,1,1,NA,0,0,26
"868",2281,2,1,1,1,NA,0,0,27
"869",2281,14,1,1,1,NA,1,1,28
"870",2281,36,1,1,1,NA,1,1,29
"871",2281,16,1,1,1,NA,1,1,30
"872",2281,6,1,1,1,NA,1,1,31
"873",2281,34,1,1,1,NA,1,1,32
"874",2281,33,1,1,1,NA,0,0,33
"875",2281,26,1,1,1,NA,0,1,34
"876",2281,17,1,1,1,NA,0,0,35
"877",2281,13,1,1,1,NA,0,0,36
"878",2281,8,1,1,1,NA,1,1,37
"879",2281,24,1,1,1,NA,0,1,38
"880",2281,40,1,1,1,NA,1,1,39
"881",2279,15,1,1,1,NA,0,0,0
"882",2279,27,1,1,1,NA,1,0,1
"883",2279,12,1,1,1,NA,0,1,2
"884",2279,10,1,1,1,NA,0,0,3
"885",2279,28,1,1,1,NA,0,1,4
"886",2279,11,1,1,1,NA,0,0,5
"887",2279,26,1,1,1,NA,0,1,6
"888",2279,31,1,1,1,NA,1,0,7
"889",2279,14,1,1,1,NA,1,1,8
"890",2279,19,1,1,1,NA,0,1,9
"891",2279,18,1,1,1,NA,0,1,10
"892",2279,40,1,1,1,NA,1,1,11
"893",2279,37,1,1,1,NA,0,0,12
"894",2279,24,1,1,1,NA,0,0,13
"895",2279,4,1,1,1,NA,0,1,14
"896",2279,21,1,1,1,NA,0,1,15
"897",2279,33,1,1,1,NA,1,1,16
"898",2279,13,1,1,1,NA,1,0,17
"899",2279,17,1,1,1,NA,0,1,18
"900",2279,20,1,1,1,NA,0,0,19
"901",2279,36,1,1,1,NA,0,0,20
"902",2279,32,1,1,1,NA,0,0,21
"903",2279,2,1,1,1,NA,0,0,22
"904",2279,35,1,1,1,NA,0,0,23
"905",2279,30,1,1,1,NA,0,0,24
"906",2279,23,1,1,1,NA,1,1,25
"907",2279,5,1,1,1,NA,0,1,26
"908",2279,39,1,1,1,NA,0,0,27
"909",2279,6,1,1,1,NA,0,1,28
"910",2279,8,1,1,1,NA,0,1,29
"911",2279,16,1,1,1,NA,0,1,30
"912",2279,7,1,1,1,NA,0,0,31
"913",2279,3,1,1,1,NA,0,0,32
"914",2279,25,1,1,1,NA,1,0,33
"915",2279,38,1,1,1,NA,0,0,34
"916",2279,34,1,1,1,NA,0,0,35
"917",2279,1,1,1,1,NA,1,1,36
"918",2279,22,1,1,1,NA,0,1,37
"919",2279,29,1,1,1,NA,0,1,38
"920",2279,9,1,1,1,NA,0,1,39
"921",2278,37,1,1,1,NA,0,1,0
"922",2278,25,1,1,1,NA,1,1,1
"923",2278,3,1,1,1,NA,1,0,2
"924",2278,38,1,1,1,NA,1,1,3
"925",2278,19,1,1,1,NA,0,1,4
"926",2278,27,1,1,1,NA,1,0,5
"927",2278,10,1,1,1,NA,0,0,6
"928",2278,21,1,1,1,NA,0,1,7
"929",2278,2,1,1,1,NA,0,1,8
"930",2278,12,1,1,1,NA,1,0,9
"931",2278,14,1,1,1,NA,1,0,10
"932",2278,9,1,1,1,NA,0,1,11
"933",2278,7,1,1,1,NA,0,1,12
"934",2278,40,1,1,1,NA,1,1,13
"935",2278,17,1,1,1,NA,1,0,14
"936",2278,20,1,1,1,NA,1,1,15
"937",2278,23,1,1,1,NA,1,0,16
"938",2278,36,1,1,1,NA,0,0,17
"939",2278,18,1,1,1,NA,0,0,18
"940",2278,29,1,1,1,NA,1,0,19
"941",2278,11,1,1,1,NA,0,0,20
"942",2278,31,1,1,1,NA,0,1,21
"943",2278,32,1,1,1,NA,1,0,22
"944",2278,22,1,1,1,NA,1,1,23
"945",2278,5,1,1,1,NA,1,0,24
"946",2278,35,1,1,1,NA,0,1,25
"947",2278,4,1,1,1,NA,1,0,26
"948",2278,28,1,1,1,NA,0,0,27
"949",2278,16,1,1,1,NA,1,0,28
"950",2278,33,1,1,1,NA,1,0,29
"951",2278,8,1,1,1,NA,1,1,30
"952",2278,39,1,1,1,NA,0,1,31
"953",2278,15,1,1,1,NA,1,0,32
"954",2278,30,1,1,1,NA,0,1,33
"955",2278,34,1,1,1,NA,0,1,34
"956",2278,6,1,1,1,NA,0,0,35
"957",2278,26,1,1,1,NA,0,1,36
"958",2278,13,1,1,1,NA,1,1,37
"959",2278,24,1,1,1,NA,0,1,38
"960",2278,1,1,1,1,NA,0,0,39
"961",2276,26,1,1,1,NA,0,1,0
"962",2276,2,1,1,1,NA,0,0,1
"963",2276,3,1,1,1,NA,1,0,2
"964",2276,9,1,1,1,NA,0,0,3
"965",2276,31,1,1,1,NA,0,0,4
"966",2276,34,1,1,1,NA,1,1,5
"967",2276,5,1,1,1,NA,0,1,6
"968",2276,22,1,1,1,NA,0,1,7
"969",2276,10,1,1,1,NA,0,0,8
"970",2276,11,1,1,1,NA,1,1,9
"971",2276,12,1,1,1,NA,0,0,10
"972",2276,15,1,1,1,NA,0,0,11
"973",2276,20,1,1,1,NA,1,1,12
"974",2276,8,1,1,1,NA,1,0,13
"975",2276,7,1,1,1,NA,1,1,14
"976",2276,21,1,1,1,NA,0,1,15
"977",2276,18,1,1,1,NA,0,0,16
"978",2276,16,1,1,1,NA,0,1,17
"979",2276,28,1,1,1,NA,0,1,18
"980",2276,19,1,1,1,NA,1,1,19
"981",2276,17,1,1,1,NA,1,1,20
"982",2276,13,1,1,1,NA,1,1,21
"983",2276,29,1,1,1,NA,1,0,22
"984",2276,1,1,1,1,NA,1,1,23
"985",2276,39,1,1,1,NA,0,0,24
"986",2276,4,1,1,1,NA,0,0,25
"987",2276,32,1,1,1,NA,1,1,26
"988",2276,35,1,1,1,NA,0,0,27
"989",2276,24,1,1,1,NA,0,1,28
"990",2276,36,1,1,1,NA,1,0,29
"991",2276,27,1,1,1,NA,0,1,30
"992",2276,30,1,1,1,NA,0,1,31
"993",2276,6,1,1,1,NA,1,0,32
"994",2276,33,1,1,1,NA,1,0,33
"995",2276,40,1,1,1,NA,0,0,34
"996",2276,38,1,1,1,NA,1,0,35
"997",2276,25,1,1,1,NA,1,0,36
"998",2276,37,1,1,1,NA,0,1,37
"999",2276,14,1,1,1,NA,1,0,38
"1000",2276,23,1,1,1,NA,0,1,39
"1001",2275,17,1,1,1,NA,1,1,0
"1002",2275,39,1,1,1,NA,0,1,1
"1003",2275,19,1,1,1,NA,1,0,2
"1004",2275,24,1,1,1,NA,1,0,3
"1005",2275,36,1,1,1,NA,0,1,4
"1006",2275,3,1,1,1,NA,1,1,5
"1007",2275,13,1,1,1,NA,1,1,6
"1008",2275,6,1,1,1,NA,0,0,7
"1009",2275,15,1,1,1,NA,0,1,8
"1010",2275,14,1,1,1,NA,1,1,9
"1011",2275,33,1,1,1,NA,1,0,10
"1012",2275,27,1,1,1,NA,0,1,11
"1013",2275,1,1,1,1,NA,1,1,12
"1014",2275,29,1,1,1,NA,1,0,13
"1015",2275,20,1,1,1,NA,1,0,14
"1016",2275,9,1,1,1,NA,0,0,15
"1017",2275,16,1,1,1,NA,0,1,16
"1018",2275,12,1,1,1,NA,1,0,17
"1019",2275,23,1,1,1,NA,1,0,18
"1020",2275,8,1,1,1,NA,0,1,19
"1021",2275,35,1,1,1,NA,0,0,20
"1022",2275,5,1,1,1,NA,1,1,21
"1023",2275,28,1,1,1,NA,0,0,22
"1024",2275,37,1,1,1,NA,1,1,23
"1025",2275,26,1,1,1,NA,0,0,24
"1026",2275,11,1,1,1,NA,1,0,25
"1027",2275,4,1,1,1,NA,0,0,26
"1028",2275,31,1,1,1,NA,1,1,27
"1029",2275,38,1,1,1,NA,1,1,28
"1030",2275,21,1,1,1,NA,0,1,29
"1031",2275,25,1,1,1,NA,1,0,30
"1032",2275,32,1,1,1,NA,1,1,31
"1033",2275,7,1,1,1,NA,0,1,32
"1034",2275,30,1,1,1,NA,0,0,33
"1035",2275,2,1,1,1,NA,1,1,34
"1036",2275,18,1,1,1,NA,0,0,35
"1037",2275,10,1,1,1,NA,0,0,36
"1038",2275,34,1,1,1,NA,0,0,37
"1039",2275,40,1,1,1,NA,1,1,38
"1040",2275,22,1,1,1,NA,0,0,39
"1041",2274,28,1,1,1,NA,0,0,0
"1042",2274,16,1,1,1,NA,0,0,1
"1043",2274,18,1,1,1,NA,1,1,2
"1044",2274,2,1,1,1,NA,1,1,3
"1045",2274,5,1,1,1,NA,1,1,4
"1046",2274,1,1,1,1,NA,0,0,5
"1047",2274,39,1,1,1,NA,1,1,6
"1048",2274,40,1,1,1,NA,0,0,7
"1049",2274,29,1,1,1,NA,1,1,8
"1050",2274,9,1,1,1,NA,0,0,9
"1051",2274,15,1,1,1,NA,0,0,10
"1052",2274,10,1,1,1,NA,1,1,11
"1053",2274,8,1,1,1,NA,1,1,12
"1054",2274,37,1,1,1,NA,1,1,13
"1055",2274,38,1,1,1,NA,0,0,14
"1056",2274,6,1,1,1,NA,0,0,15
"1057",2274,26,1,1,1,NA,1,1,16
"1058",2274,36,1,1,1,NA,1,1,17
"1059",2274,35,1,1,1,NA,1,1,18
"1060",2274,30,1,1,1,NA,0,0,19
"1061",2274,33,1,1,1,NA,0,0,20
"1062",2274,24,1,1,1,NA,1,1,21
"1063",2274,19,1,1,1,NA,0,0,22
"1064",2274,32,1,1,1,NA,0,0,23
"1065",2274,11,1,1,1,NA,1,1,24
"1066",2274,27,1,1,1,NA,0,0,25
"1067",2274,21,1,1,1,NA,0,0,26
"1068",2274,4,1,1,1,NA,1,1,27
"1069",2274,20,1,1,1,NA,0,0,28
"1070",2274,34,1,1,1,NA,1,1,29
"1071",2274,22,1,1,1,NA,0,0,30
"1072",2274,13,1,1,1,NA,1,1,31
"1073",2274,25,1,1,1,NA,1,1,32
"1074",2274,14,1,1,1,NA,0,1,33
"1075",2274,3,1,1,1,NA,0,0,34
"1076",2274,12,1,1,1,NA,0,0,35
"1077",2274,7,1,1,1,NA,0,0,36
"1078",2274,23,1,1,1,NA,1,1,37
"1079",2274,17,1,1,1,NA,0,0,38
"1080",2274,31,1,1,1,NA,1,1,39
"1081",2273,33,1,1,1,NA,1,0,0
"1082",2273,8,1,1,1,NA,0,0,1
"1083",2273,23,1,1,1,NA,1,1,2
"1084",2273,36,1,1,1,NA,1,0,3
"1085",2273,1,1,1,1,NA,1,1,4
"1086",2273,37,1,1,1,NA,1,1,5
"1087",2273,2,1,1,1,NA,0,1,6
"1088",2273,24,1,1,1,NA,0,1,7
"1089",2273,38,1,1,1,NA,1,1,8
"1090",2273,18,1,1,1,NA,0,1,9
"1091",2273,12,1,1,1,NA,1,0,10
"1092",2273,39,1,1,1,NA,0,1,11
"1093",2273,31,1,1,1,NA,1,1,12
"1094",2273,11,1,1,1,NA,0,0,13
"1095",2273,32,1,1,1,NA,1,0,14
"1096",2273,29,1,1,1,NA,0,0,15
"1097",2273,27,1,1,1,NA,0,0,16
"1098",2273,40,1,1,1,NA,1,0,17
"1099",2273,19,1,1,1,NA,0,1,18
"1100",2273,25,1,1,1,NA,1,0,19
"1101",2273,3,1,1,1,NA,1,0,20
"1102",2273,17,1,1,1,NA,1,0,21
"1103",2273,6,1,1,1,NA,0,0,22
"1104",2273,16,1,1,1,NA,1,1,23
"1105",2273,15,1,1,1,NA,1,1,24
"1106",2273,4,1,1,1,NA,1,0,25
"1107",2273,10,1,1,1,NA,0,1,26
"1108",2273,7,1,1,1,NA,0,1,27
"1109",2273,30,1,1,1,NA,1,1,28
"1110",2273,21,1,1,1,NA,0,0,29
"1111",2273,13,1,1,1,NA,0,1,30
"1112",2273,26,1,1,1,NA,1,0,31
"1113",2273,35,1,1,1,NA,0,0,32
"1114",2273,14,1,1,1,NA,0,0,33
"1115",2273,20,1,1,1,NA,1,1,34
"1116",2273,9,1,1,1,NA,0,0,35
"1117",2273,22,1,1,1,NA,0,1,36
"1118",2273,28,1,1,1,NA,0,1,37
"1119",2273,34,1,1,1,NA,1,1,38
"1120",2273,5,1,1,1,NA,1,0,39
"1121",2271,29,1,1,1,NA,0,1,0
"1122",2271,23,1,1,1,NA,1,0,1
"1123",2271,13,1,1,1,NA,1,0,2
"1124",2271,6,1,1,1,NA,0,1,3
"1125",2271,30,1,1,1,NA,0,0,4
"1126",2271,20,1,1,1,NA,1,0,5
"1127",2271,15,1,1,1,NA,1,0,6
"1128",2271,40,1,1,1,NA,0,1,7
"1129",2271,12,1,1,1,NA,1,1,8
"1130",2271,8,1,1,1,NA,0,0,9
"1131",2271,32,1,1,1,NA,0,0,10
"1132",2271,28,1,1,1,NA,0,1,11
"1133",2271,34,1,1,1,NA,0,1,12
"1134",2271,31,1,1,1,NA,0,0,13
"1135",2271,39,1,1,1,NA,0,0,14
"1136",2271,7,1,1,1,NA,0,1,15
"1137",2271,5,1,1,1,NA,1,1,16
"1138",2271,4,1,1,1,NA,1,0,17
"1139",2271,14,1,1,1,NA,1,1,18
"1140",2271,11,1,1,1,NA,0,0,19
"1141",2271,18,1,1,1,NA,1,0,20
"1142",2271,2,1,1,1,NA,1,1,21
"1143",2271,17,1,1,1,NA,1,0,22
"1144",2271,21,1,1,1,NA,0,1,23
"1145",2271,16,1,1,1,NA,1,0,24
"1146",2271,25,1,1,1,NA,1,1,25
"1147",2271,1,1,1,1,NA,1,0,26
"1148",2271,38,1,1,1,NA,1,0,27
"1149",2271,36,1,1,1,NA,1,1,28
"1150",2271,3,1,1,1,NA,1,1,29
"1151",2271,9,1,1,1,NA,0,0,30
"1152",2271,33,1,1,1,NA,1,1,31
"1153",2271,35,1,1,1,NA,1,0,32
"1154",2271,37,1,1,1,NA,1,1,33
"1155",2271,19,1,1,1,NA,1,1,34
"1156",2271,22,1,1,1,NA,0,1,35
"1157",2271,27,1,1,1,NA,1,0,36
"1158",2271,10,1,1,1,NA,0,1,37
"1159",2271,24,1,1,1,NA,1,0,38
"1160",2271,26,1,1,1,NA,0,1,39
"1161",2270,38,1,1,1,NA,1,1,0
"1162",2270,10,1,1,1,NA,0,0,1
"1163",2270,28,1,1,1,NA,0,1,2
"1164",2270,11,1,1,1,NA,1,1,3
"1165",2270,33,1,1,1,NA,1,1,4
"1166",2270,13,1,1,1,NA,1,1,5
"1167",2270,37,1,1,1,NA,1,1,6
"1168",2270,16,1,1,1,NA,1,1,7
"1169",2270,20,1,1,1,NA,1,0,8
"1170",2270,31,1,1,1,NA,0,1,9
"1171",2270,40,1,1,1,NA,1,0,10
"1172",2270,35,1,1,1,NA,0,1,11
"1173",2270,29,1,1,1,NA,0,0,12
"1174",2270,30,1,1,1,NA,0,0,13
"1175",2270,39,1,1,1,NA,1,0,14
"1176",2270,2,1,1,1,NA,0,0,15
"1177",2270,6,1,1,1,NA,1,1,16
"1178",2270,12,1,1,1,NA,1,1,17
"1179",2270,8,1,1,1,NA,0,1,18
"1180",2270,19,1,1,1,NA,1,0,19
"1181",2270,36,1,1,1,NA,1,0,20
"1182",2270,24,1,1,1,NA,0,1,21
"1183",2270,21,1,1,1,NA,0,0,22
"1184",2270,27,1,1,1,NA,1,1,23
"1185",2270,15,1,1,1,NA,1,1,24
"1186",2270,17,1,1,1,NA,1,0,25
"1187",2270,32,1,1,1,NA,1,0,26
"1188",2270,23,1,1,1,NA,1,0,27
"1189",2270,5,1,1,1,NA,1,0,28
"1190",2270,18,1,1,1,NA,0,0,29
"1191",2270,22,1,1,1,NA,0,0,30
"1192",2270,1,1,1,1,NA,1,0,31
"1193",2270,26,1,1,1,NA,1,0,32
"1194",2270,9,1,1,1,NA,0,1,33
"1195",2270,4,1,1,1,NA,1,0,34
"1196",2270,7,1,1,1,NA,0,1,35
"1197",2270,25,1,1,1,NA,1,0,36
"1198",2270,34,1,1,1,NA,0,1,37
"1199",2270,14,1,1,1,NA,0,1,38
"1200",2270,3,1,1,1,NA,1,1,39
"1201",2269,8,1,1,1,NA,0,1,0
"1202",2269,26,1,1,1,NA,0,0,1
"1203",2269,17,1,1,1,NA,1,1,2
"1204",2269,30,1,1,1,NA,1,0,3
"1205",2269,31,1,1,1,NA,0,0,4
"1206",2269,18,1,1,1,NA,0,1,5
"1207",2269,6,1,1,1,NA,0,0,6
"1208",2269,14,1,1,1,NA,1,0,7
"1209",2269,13,1,1,1,NA,0,1,8
"1210",2269,21,1,1,1,NA,0,0,9
"1211",2269,23,1,1,1,NA,1,1,10
"1212",2269,16,1,1,1,NA,0,0,11
"1213",2269,12,1,1,1,NA,0,1,12
"1214",2269,2,1,1,1,NA,0,1,13
"1215",2269,3,1,1,1,NA,1,1,14
"1216",2269,39,1,1,1,NA,0,0,15
"1217",2269,28,1,1,1,NA,0,0,16
"1218",2269,24,1,1,1,NA,0,1,17
"1219",2269,10,1,1,1,NA,0,1,18
"1220",2269,25,1,1,1,NA,1,1,19
"1221",2269,15,1,1,1,NA,0,1,20
"1222",2269,7,1,1,1,NA,0,0,21
"1223",2269,4,1,1,1,NA,1,0,22
"1224",2269,32,1,1,1,NA,0,0,23
"1225",2269,20,1,1,1,NA,0,1,24
"1226",2269,35,1,1,1,NA,0,1,25
"1227",2269,5,1,1,1,NA,0,1,26
"1228",2269,33,1,1,1,NA,1,1,27
"1229",2269,1,1,1,1,NA,0,0,28
"1230",2269,38,1,1,1,NA,1,1,29
"1231",2269,22,1,1,1,NA,0,0,30
"1232",2269,9,1,1,1,NA,1,1,31
"1233",2269,29,1,1,1,NA,1,1,32
"1234",2269,40,1,1,1,NA,1,0,33
"1235",2269,19,1,1,1,NA,1,0,34
"1236",2269,37,1,1,1,NA,0,0,35
"1237",2269,34,1,1,1,NA,1,0,36
"1238",2269,36,1,1,1,NA,0,1,37
"1239",2269,27,1,1,1,NA,0,0,38
"1240",2269,11,1,1,1,NA,0,0,39
"1241",2268,24,1,1,1,NA,1,0,0
"1242",2268,39,1,1,1,NA,1,1,1
"1243",2268,26,1,1,1,NA,0,1,2
"1244",2268,22,1,1,1,NA,1,1,3
"1245",2268,23,1,1,1,NA,1,0,4
"1246",2268,37,1,1,1,NA,1,1,5
"1247",2268,2,1,1,1,NA,1,1,6
"1248",2268,1,1,1,1,NA,1,1,7
"1249",2268,15,1,1,1,NA,0,0,8
"1250",2268,34,1,1,1,NA,0,1,9
"1251",2268,36,1,1,1,NA,0,0,10
"1252",2268,25,1,1,1,NA,1,0,11
"1253",2268,21,1,1,1,NA,1,0,12
"1254",2268,3,1,1,1,NA,1,1,13
"1255",2268,32,1,1,1,NA,1,1,14
"1256",2268,4,1,1,1,NA,0,0,15
"1257",2268,9,1,1,1,NA,0,1,16
"1258",2268,29,1,1,1,NA,0,0,17
"1259",2268,14,1,1,1,NA,0,0,18
"1260",2268,38,1,1,1,NA,1,1,19
"1261",2268,33,1,1,1,NA,1,0,20
"1262",2268,8,1,1,1,NA,0,1,21
"1263",2268,16,1,1,1,NA,1,0,22
"1264",2268,6,1,1,1,NA,1,0,23
"1265",2268,12,1,1,1,NA,1,0,24
"1266",2268,28,1,1,1,NA,0,1,25
"1267",2268,19,1,1,1,NA,1,1,26
"1268",2268,27,1,1,1,NA,1,0,27
"1269",2268,40,1,1,1,NA,1,1,28
"1270",2268,17,1,1,1,NA,1,0,29
"1271",2268,11,1,1,1,NA,0,1,30
"1272",2268,7,1,1,1,NA,0,0,31
"1273",2268,20,1,1,1,NA,1,1,32
"1274",2268,35,1,1,1,NA,1,0,33
"1275",2268,10,1,1,1,NA,0,0,34
"1276",2268,13,1,1,1,NA,1,1,35
"1277",2268,31,1,1,1,NA,1,1,36
"1278",2268,30,1,1,1,NA,1,0,37
"1279",2268,18,1,1,1,NA,0,1,38
"1280",2268,5,1,1,1,NA,1,0,39
"1281",2267,18,1,1,1,NA,0,0,0
"1282",2267,7,1,1,1,NA,1,1,1
"1283",2267,23,1,1,1,NA,0,0,2
"1284",2267,17,1,1,1,NA,0,0,3
"1285",2267,24,1,1,1,NA,1,1,4
"1286",2267,34,1,1,1,NA,0,0,5
"1287",2267,39,1,1,1,NA,1,1,6
"1288",2267,28,1,1,1,NA,0,0,7
"1289",2267,16,1,1,1,NA,1,1,8
"1290",2267,26,1,1,1,NA,1,1,9
"1291",2267,27,1,1,1,NA,1,1,10
"1292",2267,15,1,1,1,NA,0,0,11
"1293",2267,10,1,1,1,NA,1,1,12
"1294",2267,30,1,1,1,NA,1,1,13
"1295",2267,9,1,1,1,NA,0,0,14
"1296",2267,5,1,1,1,NA,1,1,15
"1297",2267,11,1,1,1,NA,0,0,16
"1298",2267,2,1,1,1,NA,0,1,17
"1299",2267,25,1,1,1,NA,0,0,18
"1300",2267,13,1,1,1,NA,1,1,19
"1301",2267,1,1,1,1,NA,0,0,20
"1302",2267,14,1,1,1,NA,0,0,21
"1303",2267,19,1,1,1,NA,1,1,22
"1304",2267,20,1,1,1,NA,1,1,23
"1305",2267,37,1,1,1,NA,0,0,24
"1306",2267,38,1,1,1,NA,0,0,25
"1307",2267,6,1,1,1,NA,0,0,26
"1308",2267,32,1,1,1,NA,1,1,27
"1309",2267,4,1,1,1,NA,1,1,28
"1310",2267,35,1,1,1,NA,0,0,29
"1311",2267,33,1,1,1,NA,0,0,30
"1312",2267,31,1,1,1,NA,1,1,31
"1313",2267,21,1,1,1,NA,1,1,32
"1314",2267,12,1,1,1,NA,0,0,33
"1315",2267,29,1,1,1,NA,0,0,34
"1316",2267,22,1,1,1,NA,0,0,35
"1317",2267,3,1,1,1,NA,0,0,36
"1318",2267,36,1,1,1,NA,1,1,37
"1319",2267,40,1,1,1,NA,1,1,38
"1320",2267,8,1,1,1,NA,1,1,39
"1321",2266,12,1,1,1,NA,1,0,0
"1322",2266,25,1,1,1,NA,1,0,1
"1323",2266,1,1,1,1,NA,1,1,2
"1324",2266,27,1,1,1,NA,1,0,3
"1325",2266,39,1,1,1,NA,0,0,4
"1326",2266,6,1,1,1,NA,0,1,5
"1327",2266,9,1,1,1,NA,0,0,6
"1328",2266,31,1,1,1,NA,0,1,7
"1329",2266,29,1,1,1,NA,0,1,8
"1330",2266,3,1,1,1,NA,1,1,9
"1331",2266,24,1,1,1,NA,0,1,10
"1332",2266,2,1,1,1,NA,0,0,11
"1333",2266,28,1,1,1,NA,0,1,12
"1334",2266,23,1,1,1,NA,1,0,13
"1335",2266,16,1,1,1,NA,1,1,14
"1336",2266,13,1,1,1,NA,1,1,15
"1337",2266,10,1,1,1,NA,0,1,16
"1338",2266,35,1,1,1,NA,0,0,17
"1339",2266,26,1,1,1,NA,0,1,18
"1340",2266,30,1,1,1,NA,1,0,19
"1341",2266,19,1,1,1,NA,1,0,20
"1342",2266,38,1,1,1,NA,1,1,21
"1343",2266,7,1,1,1,NA,0,0,22
"1344",2266,40,1,1,1,NA,1,0,23
"1345",2266,34,1,1,1,NA,1,0,24
"1346",2266,21,1,1,1,NA,0,1,25
"1347",2266,11,1,1,1,NA,1,0,26
"1348",2266,17,1,1,1,NA,0,1,27
"1349",2266,4,1,1,1,NA,0,1,28
"1350",2266,14,1,1,1,NA,1,0,29
"1351",2266,20,1,1,1,NA,1,0,30
"1352",2266,8,1,1,1,NA,1,1,31
"1353",2266,37,1,1,1,NA,0,1,32
"1354",2266,22,1,1,1,NA,0,1,33
"1355",2266,32,1,1,1,NA,1,0,34
"1356",2266,33,1,1,1,NA,1,0,35
"1357",2266,18,1,1,1,NA,0,1,36
"1358",2266,5,1,1,1,NA,0,1,37
"1359",2266,15,1,1,1,NA,0,0,38
"1360",2266,36,1,1,1,NA,1,0,39
"1361",2264,35,1,1,1,NA,0,0,0
"1362",2264,20,1,1,1,NA,0,0,1
"1363",2264,4,1,1,1,NA,1,1,2
"1364",2264,38,1,1,1,NA,1,1,3
"1365",2264,27,1,1,1,NA,0,0,4
"1366",2264,6,1,1,1,NA,0,0,5
"1367",2264,23,1,1,1,NA,0,0,6
"1368",2264,14,1,1,1,NA,0,1,7
"1369",2264,11,1,1,1,NA,0,0,8
"1370",2264,8,1,1,1,NA,1,1,9
"1371",2264,17,1,1,1,NA,1,1,10
"1372",2264,9,1,1,1,NA,0,0,11
"1373",2264,37,1,1,1,NA,0,1,12
"1374",2264,7,1,1,1,NA,0,0,13
"1375",2264,34,1,1,1,NA,0,0,14
"1376",2264,36,1,1,1,NA,1,1,15
"1377",2264,26,1,1,1,NA,0,0,16
"1378",2264,3,1,1,1,NA,1,1,17
"1379",2264,28,1,1,1,NA,0,0,18
"1380",2264,5,1,1,1,NA,1,1,19
"1381",2264,21,1,1,1,NA,1,1,20
"1382",2264,10,1,1,1,NA,1,1,21
"1383",2264,2,1,1,1,NA,0,1,22
"1384",2264,16,1,1,1,NA,0,0,23
"1385",2264,24,1,1,1,NA,0,0,24
"1386",2264,39,1,1,1,NA,0,0,25
"1387",2264,18,1,1,1,NA,0,0,26
"1388",2264,33,1,1,1,NA,1,1,27
"1389",2264,25,1,1,1,NA,0,0,28
"1390",2264,13,1,1,1,NA,0,0,29
"1391",2264,30,1,1,1,NA,1,1,30
"1392",2264,19,1,1,1,NA,0,0,31
"1393",2264,40,1,1,1,NA,1,1,32
"1394",2264,15,1,1,1,NA,1,1,33
"1395",2264,1,1,1,1,NA,0,0,34
"1396",2264,12,1,1,1,NA,1,1,35
"1397",2264,29,1,1,1,NA,0,1,36
"1398",2264,22,1,1,1,NA,1,1,37
"1399",2264,32,1,1,1,NA,0,0,38
"1400",2264,31,1,1,1,NA,1,1,39
"1401",2263,29,1,1,1,NA,0,1,0
"1402",2263,18,1,1,1,NA,0,1,1
"1403",2263,13,1,1,1,NA,1,0,2
"1404",2263,34,1,1,1,NA,0,1,3
"1405",2263,2,1,1,1,NA,0,1,4
"1406",2263,26,1,1,1,NA,1,1,5
"1407",2263,1,1,1,1,NA,1,0,6
"1408",2263,23,1,1,1,NA,0,0,7
"1409",2263,30,1,1,1,NA,1,1,8
"1410",2263,10,1,1,1,NA,1,0,9
"1411",2263,5,1,1,1,NA,0,1,10
"1412",2263,28,1,1,1,NA,0,0,11
"1413",2263,38,1,1,1,NA,1,0,12
"1414",2263,21,1,1,1,NA,0,1,13
"1415",2263,24,1,1,1,NA,1,1,14
"1416",2263,25,1,1,1,NA,1,1,15
"1417",2263,15,1,1,1,NA,0,0,16
"1418",2263,12,1,1,1,NA,1,1,17
"1419",2263,7,1,1,1,NA,0,0,18
"1420",2263,39,1,1,1,NA,1,1,19
"1421",2263,35,1,1,1,NA,0,0,20
"1422",2263,3,1,1,1,NA,1,1,21
"1423",2263,20,1,1,1,NA,0,1,22
"1424",2263,9,1,1,1,NA,0,0,23
"1425",2263,16,1,1,1,NA,0,1,24
"1426",2263,36,1,1,1,NA,0,0,25
"1427",2263,4,1,1,1,NA,1,0,26
"1428",2263,19,1,1,1,NA,1,1,27
"1429",2263,27,1,1,1,NA,1,0,28
"1430",2263,11,1,1,1,NA,0,0,29
"1431",2263,8,1,1,1,NA,0,0,30
"1432",2263,32,1,1,1,NA,0,0,31
"1433",2263,37,1,1,1,NA,0,1,32
"1434",2263,17,1,1,1,NA,1,1,33
"1435",2263,33,1,1,1,NA,1,0,34
"1436",2263,6,1,1,1,NA,0,0,35
"1437",2263,40,1,1,1,NA,1,1,36
"1438",2263,22,1,1,1,NA,1,0,37
"1439",2263,31,1,1,1,NA,1,0,38
"1440",2263,14,1,1,1,NA,0,1,39
"1441",2262,22,1,1,1,NA,0,0,0
"1442",2262,7,1,1,1,NA,0,0,1
"1443",2262,29,1,1,1,NA,1,1,2
"1444",2262,27,1,1,1,NA,1,1,3
"1445",2262,1,1,1,1,NA,1,0,4
"1446",2262,8,1,1,1,NA,0,1,5
"1447",2262,15,1,1,1,NA,0,0,6
"1448",2262,6,1,1,1,NA,0,0,7
"1449",2262,14,1,1,1,NA,1,1,8
"1450",2262,23,1,1,1,NA,1,1,9
"1451",2262,2,1,1,1,NA,0,1,10
"1452",2262,40,1,1,1,NA,0,0,11
"1453",2262,34,1,1,1,NA,0,0,12
"1454",2262,25,1,1,1,NA,0,0,13
"1455",2262,24,1,1,1,NA,1,1,14
"1456",2262,11,1,1,1,NA,0,0,15
"1457",2262,5,1,1,1,NA,1,1,16
"1458",2262,33,1,1,1,NA,1,0,17
"1459",2262,31,1,1,1,NA,1,1,18
"1460",2262,28,1,1,1,NA,1,1,19
"1461",2262,21,1,1,1,NA,1,1,20
"1462",2262,39,1,1,1,NA,0,0,21
"1463",2262,35,1,1,1,NA,1,0,22
"1464",2262,26,1,1,1,NA,1,0,23
"1465",2262,37,1,1,1,NA,1,1,24
"1466",2262,30,1,1,1,NA,0,0,25
"1467",2262,18,1,1,1,NA,1,0,26
"1468",2262,4,1,1,1,NA,1,1,27
"1469",2262,36,1,1,1,NA,0,0,28
"1470",2262,10,1,1,1,NA,1,1,29
"1471",2262,20,1,1,1,NA,0,0,30
"1472",2262,3,1,1,1,NA,0,1,31
"1473",2262,38,1,1,1,NA,1,0,32
"1474",2262,19,1,1,1,NA,1,1,33
"1475",2262,16,1,1,1,NA,0,1,34
"1476",2262,12,1,1,1,NA,0,1,35
"1477",2262,17,1,1,1,NA,0,0,36
"1478",2262,13,1,1,1,NA,0,1,37
"1479",2262,9,1,1,1,NA,1,1,38
"1480",2262,32,1,1,1,NA,0,0,39
"1481",2261,7,1,1,1,NA,0,1,0
"1482",2261,22,1,1,1,NA,1,1,1
"1483",2261,38,1,1,1,NA,1,0,2
"1484",2261,6,1,1,1,NA,0,0,3
"1485",2261,23,1,1,1,NA,1,1,4
"1486",2261,28,1,1,1,NA,0,0,5
"1487",2261,33,1,1,1,NA,1,0,6
"1488",2261,40,1,1,1,NA,1,0,7
"1489",2261,25,1,1,1,NA,1,1,8
"1490",2261,4,1,1,1,NA,1,0,9
"1491",2261,19,1,1,1,NA,1,0,10
"1492",2261,26,1,1,1,NA,0,1,11
"1493",2261,2,1,1,1,NA,0,0,12
"1494",2261,29,1,1,1,NA,1,1,13
"1495",2261,3,1,1,1,NA,0,0,14
"1496",2261,20,1,1,1,NA,1,1,15
"1497",2261,8,1,1,1,NA,1,1,16
"1498",2261,34,1,1,1,NA,1,0,17
"1499",2261,16,1,1,1,NA,0,0,18
"1500",2261,32,1,1,1,NA,0,0,19
"1501",2261,11,1,1,1,NA,0,1,20
"1502",2261,39,1,1,1,NA,0,0,21
"1503",2261,27,1,1,1,NA,1,1,22
"1504",2261,5,1,1,1,NA,0,1,23
"1505",2261,35,1,1,1,NA,0,0,24
"1506",2261,36,1,1,1,NA,0,1,25
"1507",2261,37,1,1,1,NA,0,0,26
"1508",2261,17,1,1,1,NA,0,0,27
"1509",2261,15,1,1,1,NA,0,1,28
"1510",2261,14,1,1,1,NA,0,0,29
"1511",2261,9,1,1,1,NA,0,1,30
"1512",2261,12,1,1,1,NA,1,1,31
"1513",2261,21,1,1,1,NA,0,1,32
"1514",2261,1,1,1,1,NA,0,0,33
"1515",2261,10,1,1,1,NA,0,0,34
"1516",2261,30,1,1,1,NA,0,1,35
"1517",2261,31,1,1,1,NA,0,1,36
"1518",2261,18,1,1,1,NA,1,1,37
"1519",2261,24,1,1,1,NA,0,1,38
"1520",2261,13,1,1,1,NA,1,0,39
"1521",2259,15,1,1,1,NA,0,0,0
"1522",2259,25,1,1,1,NA,0,1,1
"1523",2259,12,1,1,1,NA,1,0,2
"1524",2259,1,1,1,1,NA,0,0,3
"1525",2259,13,1,1,1,NA,0,0,4
"1526",2259,14,1,1,1,NA,0,1,5
"1527",2259,2,1,1,1,NA,0,0,6
"1528",2259,39,1,1,1,NA,0,1,7
"1529",2259,16,1,1,1,NA,1,1,8
"1530",2259,5,1,1,1,NA,0,1,9
"1531",2259,32,1,1,1,NA,1,0,10
"1532",2259,28,1,1,1,NA,1,0,11
"1533",2259,40,1,1,1,NA,0,0,12
"1534",2259,34,1,1,1,NA,0,1,13
"1535",2259,11,1,1,1,NA,0,1,14
"1536",2259,8,1,1,1,NA,0,0,15
"1537",2259,19,1,1,1,NA,1,0,16
"1538",2259,21,1,1,1,NA,1,1,17
"1539",2259,4,1,1,1,NA,0,1,18
"1540",2259,31,1,1,1,NA,0,0,19
"1541",2259,17,1,1,1,NA,1,1,20
"1542",2259,33,1,1,1,NA,0,1,21
"1543",2259,23,1,1,1,NA,1,0,22
"1544",2259,3,1,1,1,NA,1,0,23
"1545",2259,35,1,1,1,NA,0,1,24
"1546",2259,7,1,1,1,NA,0,0,25
"1547",2259,37,1,1,1,NA,1,0,26
"1548",2259,24,1,1,1,NA,0,1,27
"1549",2259,36,1,1,1,NA,0,0,28
"1550",2259,6,1,1,1,NA,1,1,29
"1551",2259,20,1,1,1,NA,1,1,30
"1552",2259,29,1,1,1,NA,0,1,31
"1553",2259,22,1,1,1,NA,0,0,32
"1554",2259,10,1,1,1,NA,1,1,33
"1555",2259,26,1,1,1,NA,1,0,34
"1556",2259,38,1,1,1,NA,0,0,35
"1557",2259,30,1,1,1,NA,0,1,36
"1558",2259,9,1,1,1,NA,0,0,37
"1559",2259,27,1,1,1,NA,1,1,38
"1560",2259,18,1,1,1,NA,1,1,39
"1561",2258,18,1,1,1,NA,0,0,0
"1562",2258,23,1,1,1,NA,1,1,1
"1563",2258,33,1,1,1,NA,1,1,2
"1564",2258,3,1,1,1,NA,1,1,3
"1565",2258,2,1,1,1,NA,0,0,4
"1566",2258,21,1,1,1,NA,0,1,5
"1567",2258,16,1,1,1,NA,0,0,6
"1568",2258,4,1,1,1,NA,0,0,7
"1569",2258,31,1,1,1,NA,0,0,8
"1570",2258,8,1,1,1,NA,0,1,9
"1571",2258,36,1,1,1,NA,0,1,10
"1572",2258,11,1,1,1,NA,0,1,11
"1573",2258,6,1,1,1,NA,0,0,12
"1574",2258,17,1,1,1,NA,0,0,13
"1575",2258,15,1,1,1,NA,0,0,14
"1576",2258,29,1,1,1,NA,0,1,15
"1577",2258,38,1,1,1,NA,0,0,16
"1578",2258,35,1,1,1,NA,0,1,17
"1579",2258,28,1,1,1,NA,0,1,18
"1580",2258,30,1,1,1,NA,0,1,19
"1581",2258,37,1,1,1,NA,0,1,20
"1582",2258,24,1,1,1,NA,0,0,21
"1583",2258,19,1,1,1,NA,0,0,22
"1584",2258,22,1,1,1,NA,0,0,23
"1585",2258,5,1,1,1,NA,0,1,24
"1586",2258,26,1,1,1,NA,1,1,25
"1587",2258,39,1,1,1,NA,0,0,26
"1588",2258,40,1,1,1,NA,0,1,27
"1589",2258,34,1,1,1,NA,0,0,28
"1590",2258,7,1,1,1,NA,0,0,29
"1591",2258,10,1,1,1,NA,0,0,30
"1592",2258,25,1,1,1,NA,0,0,31
"1593",2258,13,1,1,1,NA,0,1,32
"1594",2258,9,1,1,1,NA,0,0,33
"1595",2258,1,1,1,1,NA,0,0,34
"1596",2258,27,1,1,1,NA,0,1,35
"1597",2258,32,1,1,1,NA,1,1,36
"1598",2258,14,1,1,1,NA,0,0,37
"1599",2258,12,1,1,1,NA,0,1,38
"1600",2258,20,1,1,1,NA,1,1,39
"1601",2257,11,1,1,1,NA,0,0,0
"1602",2257,10,1,1,1,NA,1,0,1
"1603",2257,40,1,1,1,NA,1,0,2
"1604",2257,12,1,1,1,NA,1,1,3
"1605",2257,31,1,1,1,NA,0,0,4
"1606",2257,16,1,1,1,NA,1,0,5
"1607",2257,20,1,1,1,NA,1,0,6
"1608",2257,39,1,1,1,NA,0,1,7
"1609",2257,15,1,1,1,NA,0,0,8
"1610",2257,24,1,1,1,NA,0,0,9
"1611",2257,35,1,1,1,NA,1,1,10
"1612",2257,1,1,1,1,NA,0,0,11
"1613",2257,2,1,1,1,NA,0,1,12
"1614",2257,5,1,1,1,NA,1,0,13
"1615",2257,36,1,1,1,NA,0,1,14
"1616",2257,30,1,1,1,NA,1,1,15
"1617",2257,6,1,1,1,NA,0,1,16
"1618",2257,19,1,1,1,NA,1,0,17
"1619",2257,17,1,1,1,NA,1,1,18
"1620",2257,25,1,1,1,NA,1,1,19
"1621",2257,38,1,1,1,NA,0,1,20
"1622",2257,29,1,1,1,NA,0,1,21
"1623",2257,26,1,1,1,NA,0,0,22
"1624",2257,7,1,1,1,NA,1,0,23
"1625",2257,8,1,1,1,NA,1,1,24
"1626",2257,28,1,1,1,NA,0,0,25
"1627",2257,21,1,1,1,NA,1,0,26
"1628",2257,22,1,1,1,NA,0,1,27
"1629",2257,37,1,1,1,NA,1,1,28
"1630",2257,9,1,1,1,NA,1,1,29
"1631",2257,4,1,1,1,NA,0,0,30
"1632",2257,14,1,1,1,NA,0,0,31
"1633",2257,23,1,1,1,NA,0,0,32
"1634",2257,27,1,1,1,NA,1,1,33
"1635",2257,33,1,1,1,NA,1,1,34
"1636",2257,32,1,1,1,NA,0,0,35
"1637",2257,13,1,1,1,NA,0,1,36
"1638",2257,3,1,1,1,NA,1,0,37
"1639",2257,18,1,1,1,NA,0,1,38
"1640",2257,34,1,1,1,NA,0,1,39
"1641",2256,15,1,1,1,NA,1,1,0
"1642",2256,10,1,1,1,NA,0,0,1
"1643",2256,29,1,1,1,NA,1,1,2
"1644",2256,40,1,1,1,NA,0,1,3
"1645",2256,32,1,1,1,NA,0,0,4
"1646",2256,19,1,1,1,NA,0,0,5
"1647",2256,2,1,1,1,NA,1,1,6
"1648",2256,36,1,1,1,NA,1,1,7
"1649",2256,37,1,1,1,NA,1,0,8
"1650",2256,12,1,1,1,NA,1,0,9
"1651",2256,27,1,1,1,NA,1,1,10
"1652",2256,8,1,1,1,NA,0,0,11
"1653",2256,26,1,1,1,NA,1,1,12
"1654",2256,1,1,1,1,NA,0,1,13
"1655",2256,39,1,1,1,NA,0,0,14
"1656",2256,9,1,1,1,NA,1,1,15
"1657",2256,11,1,1,1,NA,0,1,16
"1658",2256,35,1,1,1,NA,1,0,17
"1659",2256,3,1,1,1,NA,0,1,18
"1660",2256,7,1,1,1,NA,0,0,19
"1661",2256,38,1,1,1,NA,1,0,20
"1662",2256,24,1,1,1,NA,0,0,21
"1663",2256,28,1,1,1,NA,0,1,22
"1664",2256,5,1,1,1,NA,1,0,23
"1665",2256,31,1,1,1,NA,0,1,24
"1666",2256,20,1,1,1,NA,1,1,25
"1667",2256,21,1,1,1,NA,1,0,26
"1668",2256,25,1,1,1,NA,0,0,27
"1669",2256,30,1,1,1,NA,0,1,28
"1670",2256,18,1,1,1,NA,0,0,29
"1671",2256,22,1,1,1,NA,1,1,30
"1672",2256,16,1,1,1,NA,0,0,31
"1673",2256,23,1,1,1,NA,0,1,32
"1674",2256,34,1,1,1,NA,1,0,33
"1675",2256,13,1,1,1,NA,1,1,34
"1676",2256,33,1,1,1,NA,1,0,35
"1677",2256,17,1,1,1,NA,0,0,36
"1678",2256,4,1,1,1,NA,0,1,37
"1679",2256,6,1,1,1,NA,1,1,38
"1680",2256,14,1,1,1,NA,1,0,39
"1681",2254,12,1,1,1,NA,1,1,0
"1682",2254,1,1,1,1,NA,1,1,1
"1683",2254,11,1,1,1,NA,0,1,2
"1684",2254,8,1,1,1,NA,1,1,3
"1685",2254,17,1,1,1,NA,1,0,4
"1686",2254,39,1,1,1,NA,1,1,5
"1687",2254,27,1,1,1,NA,0,0,6
"1688",2254,20,1,1,1,NA,1,1,7
"1689",2254,6,1,1,1,NA,1,0,8
"1690",2254,22,1,1,1,NA,0,0,9
"1691",2254,26,1,1,1,NA,0,0,10
"1692",2254,35,1,1,1,NA,0,0,11
"1693",2254,24,1,1,1,NA,1,0,12
"1694",2254,31,1,1,1,NA,0,1,13
"1695",2254,3,1,1,1,NA,1,0,14
"1696",2254,33,1,1,1,NA,1,1,15
"1697",2254,32,1,1,1,NA,0,1,16
"1698",2254,38,1,1,1,NA,1,1,17
"1699",2254,9,1,1,1,NA,0,1,18
"1700",2254,28,1,1,1,NA,0,0,19
"1701",2254,25,1,1,1,NA,0,0,20
"1702",2254,4,1,1,1,NA,1,1,21
"1703",2254,30,1,1,1,NA,1,0,22
"1704",2254,16,1,1,1,NA,1,1,23
"1705",2254,36,1,1,1,NA,0,1,24
"1706",2254,23,1,1,1,NA,1,1,25
"1707",2254,18,1,1,1,NA,0,0,26
"1708",2254,19,1,1,1,NA,1,1,27
"1709",2254,10,1,1,1,NA,0,0,28
"1710",2254,7,1,1,1,NA,0,1,29
"1711",2254,2,1,1,1,NA,1,1,30
"1712",2254,37,1,1,1,NA,0,0,31
"1713",2254,14,1,1,1,NA,1,1,32
"1714",2254,40,1,1,1,NA,1,0,33
"1715",2254,21,1,1,1,NA,0,0,34
"1716",2254,13,1,1,1,NA,0,0,35
"1717",2254,5,1,1,1,NA,1,0,36
"1718",2254,34,1,1,1,NA,1,0,37
"1719",2254,29,1,1,1,NA,1,0,38
"1720",2254,15,1,1,1,NA,0,1,39
"1721",2251,1,1,1,1,NA,1,1,0
"1722",2251,7,1,1,1,NA,1,1,1
"1723",2251,40,1,1,1,NA,0,0,2
"1724",2251,5,1,1,1,NA,1,1,3
"1725",2251,31,1,1,1,NA,0,0,4
"1726",2251,19,1,1,1,NA,1,1,5
"1727",2251,18,1,1,1,NA,1,1,6
"1728",2251,27,1,1,1,NA,0,0,7
"1729",2251,21,1,1,1,NA,1,1,8
"1730",2251,24,1,1,1,NA,1,1,9
"1731",2251,39,1,1,1,NA,0,0,10
"1732",2251,4,1,1,1,NA,0,0,11
"1733",2251,25,1,1,1,NA,1,1,12
"1734",2251,20,1,1,1,NA,1,1,13
"1735",2251,22,1,1,1,NA,0,1,14
"1736",2251,33,1,1,1,NA,0,0,15
"1737",2251,34,1,1,1,NA,0,0,16
"1738",2251,8,1,1,1,NA,0,0,17
"1739",2251,38,1,1,1,NA,0,0,18
"1740",2251,35,1,1,1,NA,1,1,19
"1741",2251,11,1,1,1,NA,0,0,20
"1742",2251,13,1,1,1,NA,0,0,21
"1743",2251,10,1,1,1,NA,0,1,22
"1744",2251,9,1,1,1,NA,1,1,23
"1745",2251,28,1,1,1,NA,1,1,24
"1746",2251,32,1,1,1,NA,0,0,25
"1747",2251,3,1,1,1,NA,1,1,26
"1748",2251,15,1,1,1,NA,0,0,27
"1749",2251,29,1,1,1,NA,0,1,28
"1750",2251,23,1,1,1,NA,1,1,29
"1751",2251,6,1,1,1,NA,1,1,30
"1752",2251,30,1,1,1,NA,0,0,31
"1753",2251,26,1,1,1,NA,0,0,32
"1754",2251,2,1,1,1,NA,0,0,33
"1755",2251,37,1,1,1,NA,0,0,34
"1756",2251,16,1,1,1,NA,0,0,35
"1757",2251,36,1,1,1,NA,1,1,36
"1758",2251,14,1,1,1,NA,1,1,37
"1759",2251,17,1,1,1,NA,0,0,38
"1760",2251,12,1,1,1,NA,0,0,39
"1761",2250,20,1,1,1,NA,1,1,0
"1762",2250,31,1,1,1,NA,1,1,1
"1763",2250,3,1,1,1,NA,0,0,2
"1764",2250,5,1,1,1,NA,0,0,3
"1765",2250,38,1,1,1,NA,0,0,4
"1766",2250,18,1,1,1,NA,1,1,5
"1767",2250,22,1,1,1,NA,0,0,6
"1768",2250,23,1,1,1,NA,1,1,7
"1769",2250,39,1,1,1,NA,0,0,8
"1770",2250,19,1,1,1,NA,0,0,9
"1771",2250,6,1,1,1,NA,1,1,10
"1772",2250,21,1,1,1,NA,1,1,11
"1773",2250,32,1,1,1,NA,1,1,12
"1774",2250,29,1,1,1,NA,0,0,13
"1775",2250,12,1,1,1,NA,0,0,14
"1776",2250,9,1,1,1,NA,1,1,15
"1777",2250,40,1,1,1,NA,1,1,16
"1778",2250,8,1,1,1,NA,1,1,17
"1779",2250,28,1,1,1,NA,0,0,18
"1780",2250,26,1,1,1,NA,1,1,19
"1781",2250,16,1,1,1,NA,1,1,20
"1782",2250,33,1,1,1,NA,0,0,21
"1783",2250,7,1,1,1,NA,0,0,22
"1784",2250,4,1,1,1,NA,0,1,23
"1785",2250,35,1,1,1,NA,1,1,24
"1786",2250,10,1,1,1,NA,0,0,25
"1787",2250,11,1,1,1,NA,0,0,26
"1788",2250,36,1,1,1,NA,0,0,27
"1789",2250,34,1,1,1,NA,1,1,28
"1790",2250,24,1,1,1,NA,1,1,29
"1791",2250,17,1,1,1,NA,0,0,30
"1792",2250,13,1,1,1,NA,0,0,31
"1793",2250,15,1,1,1,NA,1,1,32
"1794",2250,14,1,1,1,NA,0,0,33
"1795",2250,30,1,1,1,NA,0,0,34
"1796",2250,37,1,1,1,NA,1,1,35
"1797",2250,1,1,1,1,NA,1,1,36
"1798",2250,2,1,1,1,NA,1,1,37
"1799",2250,27,1,1,1,NA,0,0,38
"1800",2250,25,1,1,1,NA,0,0,39
"1801",2249,19,1,1,1,NA,1,1,0
"1802",2249,29,1,1,1,NA,1,1,1
"1803",2249,30,1,1,1,NA,1,0,2
"1804",2249,38,1,1,1,NA,1,1,3
"1805",2249,28,1,1,1,NA,0,1,4
"1806",2249,24,1,1,1,NA,0,1,5
"1807",2249,26,1,1,1,NA,1,0,6
"1808",2249,39,1,1,1,NA,1,1,7
"1809",2249,34,1,1,1,NA,1,0,8
"1810",2249,21,1,1,1,NA,1,1,9
"1811",2249,10,1,1,1,NA,0,1,10
"1812",2249,16,1,1,1,NA,1,1,11
"1813",2249,40,1,1,1,NA,0,1,12
"1814",2249,8,1,1,1,NA,1,0,13
"1815",2249,14,1,1,1,NA,0,1,14
"1816",2249,31,1,1,1,NA,1,1,15
"1817",2249,9,1,1,1,NA,1,0,16
"1818",2249,4,1,1,1,NA,1,0,17
"1819",2249,33,1,1,1,NA,1,1,18
"1820",2249,18,1,1,1,NA,1,1,19
"1821",2249,37,1,1,1,NA,0,0,20
"1822",2249,5,1,1,1,NA,1,0,21
"1823",2249,35,1,1,1,NA,0,0,22
"1824",2249,22,1,1,1,NA,0,0,23
"1825",2249,17,1,1,1,NA,1,1,24
"1826",2249,25,1,1,1,NA,1,1,25
"1827",2249,36,1,1,1,NA,0,0,26
"1828",2249,7,1,1,1,NA,0,0,27
"1829",2249,27,1,1,1,NA,1,0,28
"1830",2249,11,1,1,1,NA,0,1,29
"1831",2249,6,1,1,1,NA,1,0,30
"1832",2249,23,1,1,1,NA,1,0,31
"1833",2249,20,1,1,1,NA,1,0,32
"1834",2249,15,1,1,1,NA,0,1,33
"1835",2249,1,1,1,1,NA,0,0,34
"1836",2249,2,1,1,1,NA,0,1,35
"1837",2249,13,1,1,1,NA,1,0,36
"1838",2249,32,1,1,1,NA,1,0,37
"1839",2249,12,1,1,1,NA,0,0,38
"1840",2249,3,1,1,1,NA,1,1,39
"1841",2248,20,1,1,1,NA,0,1,0
"1842",2248,28,1,1,1,NA,0,0,1
"1843",2248,34,1,1,1,NA,1,1,2
"1844",2248,23,1,1,1,NA,1,0,3
"1845",2248,12,1,1,1,NA,1,1,4
"1846",2248,14,1,1,1,NA,1,1,5
"1847",2248,7,1,1,1,NA,1,1,6
"1848",2248,8,1,1,1,NA,1,0,7
"1849",2248,17,1,1,1,NA,1,1,8
"1850",2248,1,1,1,1,NA,0,1,9
"1851",2248,6,1,1,1,NA,0,0,10
"1852",2248,25,1,1,1,NA,1,0,11
"1853",2248,32,1,1,1,NA,0,1,12
"1854",2248,27,1,1,1,NA,1,1,13
"1855",2248,35,1,1,1,NA,1,0,14
"1856",2248,31,1,1,1,NA,1,0,15
"1857",2248,38,1,1,1,NA,1,0,16
"1858",2248,19,1,1,1,NA,0,1,17
"1859",2248,40,1,1,1,NA,1,1,18
"1860",2248,13,1,1,1,NA,1,0,19
"1861",2248,2,1,1,1,NA,0,0,20
"1862",2248,18,1,1,1,NA,1,1,21
"1863",2248,15,1,1,1,NA,1,0,22
"1864",2248,36,1,1,1,NA,0,1,23
"1865",2248,26,1,1,1,NA,1,0,24
"1866",2248,29,1,1,1,NA,0,0,25
"1867",2248,9,1,1,1,NA,0,1,26
"1868",2248,11,1,1,1,NA,0,1,27
"1869",2248,5,1,1,1,NA,1,1,28
"1870",2248,24,1,1,1,NA,1,1,29
"1871",2248,37,1,1,1,NA,1,0,30
"1872",2248,22,1,1,1,NA,0,0,31
"1873",2248,21,1,1,1,NA,1,0,32
"1874",2248,10,1,1,1,NA,0,1,33
"1875",2248,33,1,1,1,NA,1,1,34
"1876",2248,30,1,1,1,NA,1,0,35
"1877",2248,39,1,1,1,NA,0,0,36
"1878",2248,16,1,1,1,NA,1,1,37
"1879",2248,4,1,1,1,NA,1,0,38
"1880",2248,3,1,1,1,NA,1,0,39
"1881",2246,37,1,1,1,NA,0,1,0
"1882",2246,8,1,1,1,NA,1,1,1
"1883",2246,4,1,1,1,NA,1,0,2
"1884",2246,23,1,1,1,NA,1,0,3
"1885",2246,6,1,1,1,NA,1,1,4
"1886",2246,1,1,1,1,NA,0,1,5
"1887",2246,9,1,1,1,NA,1,0,6
"1888",2246,29,1,1,1,NA,1,1,7
"1889",2246,38,1,1,1,NA,0,0,8
"1890",2246,13,1,1,1,NA,0,0,9
"1891",2246,36,1,1,1,NA,1,0,10
"1892",2246,20,1,1,1,NA,1,0,11
"1893",2246,5,1,1,1,NA,1,1,12
"1894",2246,11,1,1,1,NA,0,1,13
"1895",2246,28,1,1,1,NA,0,0,14
"1896",2246,7,1,1,1,NA,0,0,15
"1897",2246,39,1,1,1,NA,1,1,16
"1898",2246,26,1,1,1,NA,1,0,17
"1899",2246,18,1,1,1,NA,0,0,18
"1900",2246,12,1,1,1,NA,1,0,19
"1901",2246,27,1,1,1,NA,1,1,20
"1902",2246,19,1,1,1,NA,1,0,21
"1903",2246,15,1,1,1,NA,1,1,22
"1904",2246,40,1,1,1,NA,1,1,23
"1905",2246,32,1,1,1,NA,0,1,24
"1906",2246,10,1,1,1,NA,1,0,25
"1907",2246,34,1,1,1,NA,1,0,26
"1908",2246,3,1,1,1,NA,1,1,27
"1909",2246,21,1,1,1,NA,1,1,28
"1910",2246,14,1,1,1,NA,0,1,29
"1911",2246,30,1,1,1,NA,0,0,30
"1912",2246,16,1,1,1,NA,1,1,31
"1913",2246,25,1,1,1,NA,1,1,32
"1914",2246,31,1,1,1,NA,1,1,33
"1915",2246,17,1,1,1,NA,0,0,34
"1916",2246,2,1,1,1,NA,1,0,35
"1917",2246,22,1,1,1,NA,1,1,36
"1918",2246,24,1,1,1,NA,1,0,37
"1919",2246,35,1,1,1,NA,0,1,38
"1920",2246,33,1,1,1,NA,0,0,39
"1921",2245,27,1,1,1,NA,0,0,0
"1922",2245,3,1,1,1,NA,0,0,1
"1923",2245,8,1,1,1,NA,0,1,2
"1924",2245,30,1,1,1,NA,0,0,3
"1925",2245,40,1,1,1,NA,1,0,4
"1926",2245,11,1,1,1,NA,0,1,5
"1927",2245,37,1,1,1,NA,0,0,6
"1928",2245,34,1,1,1,NA,1,1,7
"1929",2245,24,1,1,1,NA,1,1,8
"1930",2245,28,1,1,1,NA,1,1,9
"1931",2245,39,1,1,1,NA,1,1,10
"1932",2245,2,1,1,1,NA,0,0,11
"1933",2245,21,1,1,1,NA,1,0,12
"1934",2245,18,1,1,1,NA,1,1,13
"1935",2245,16,1,1,1,NA,1,0,14
"1936",2245,19,1,1,1,NA,1,0,15
"1937",2245,14,1,1,1,NA,0,0,16
"1938",2245,6,1,1,1,NA,0,0,17
"1939",2245,26,1,1,1,NA,0,1,18
"1940",2245,29,1,1,1,NA,1,0,19
"1941",2245,38,1,1,1,NA,1,0,20
"1942",2245,33,1,1,1,NA,1,1,21
"1943",2245,32,1,1,1,NA,1,0,22
"1944",2245,25,1,1,1,NA,0,1,23
"1945",2245,36,1,1,1,NA,1,0,24
"1946",2245,5,1,1,1,NA,1,1,25
"1947",2245,4,1,1,1,NA,0,1,26
"1948",2245,1,1,1,1,NA,1,0,27
"1949",2245,17,1,1,1,NA,1,1,28
"1950",2245,20,1,1,1,NA,1,1,29
"1951",2245,35,1,1,1,NA,1,0,30
"1952",2245,13,1,1,1,NA,1,0,31
"1953",2245,9,1,1,1,NA,0,0,32
"1954",2245,22,1,1,1,NA,0,1,33
"1955",2245,15,1,1,1,NA,0,1,34
"1956",2245,7,1,1,1,NA,0,1,35
"1957",2245,10,1,1,1,NA,0,0,36
"1958",2245,23,1,1,1,NA,1,1,37
"1959",2245,12,1,1,1,NA,1,1,38
"1960",2245,31,1,1,1,NA,0,1,39
"1961",2244,28,1,1,1,NA,0,0,0
"1962",2244,6,1,1,1,NA,1,1,1
"1963",2244,29,1,1,1,NA,0,1,2
"1964",2244,37,1,1,1,NA,1,0,3
"1965",2244,34,1,1,1,NA,1,1,4
"1966",2244,27,1,1,1,NA,1,1,5
"1967",2244,40,1,1,1,NA,1,1,6
"1968",2244,26,1,1,1,NA,1,1,7
"1969",2244,16,1,1,1,NA,1,0,8
"1970",2244,39,1,1,1,NA,0,1,9
"1971",2244,38,1,1,1,NA,1,0,10
"1972",2244,31,1,1,1,NA,1,1,11
"1973",2244,25,1,1,1,NA,1,1,12
"1974",2244,3,1,1,1,NA,1,0,13
"1975",2244,19,1,1,1,NA,1,0,14
"1976",2244,8,1,1,1,NA,1,1,15
"1977",2244,7,1,1,1,NA,0,0,16
"1978",2244,10,1,1,1,NA,1,1,17
"1979",2244,20,1,1,1,NA,1,0,18
"1980",2244,24,1,1,1,NA,1,0,19
"1981",2244,22,1,1,1,NA,1,1,20
"1982",2244,30,1,1,1,NA,1,0,21
"1983",2244,32,1,1,1,NA,1,0,22
"1984",2244,17,1,1,1,NA,1,0,23
"1985",2244,33,1,1,1,NA,1,0,24
"1986",2244,9,1,1,1,NA,0,1,25
"1987",2244,35,1,1,1,NA,1,1,26
"1988",2244,1,1,1,1,NA,1,0,27
"1989",2244,21,1,1,1,NA,1,0,28
"1990",2244,11,1,1,1,NA,1,1,29
"1991",2244,18,1,1,1,NA,1,1,30
"1992",2244,15,1,1,1,NA,0,0,31
"1993",2244,23,1,1,1,NA,1,1,32
"1994",2244,2,1,1,1,NA,1,1,33
"1995",2244,4,1,1,1,NA,1,1,34
"1996",2244,14,1,1,1,NA,1,0,35
"1997",2244,12,1,1,1,NA,1,1,36
"1998",2244,5,1,1,1,NA,0,0,37
"1999",2244,13,1,1,1,NA,1,0,38
"2000",2244,36,1,1,1,NA,0,0,39
"2001",2242,36,1,1,1,NA,0,1,0
"2002",2242,7,1,1,1,NA,0,0,1
"2003",2242,25,1,1,1,NA,0,1,2
"2004",2242,16,1,1,1,NA,0,0,3
"2005",2242,18,1,1,1,NA,0,1,4
"2006",2242,39,1,1,1,NA,0,1,5
"2007",2242,17,1,1,1,NA,0,0,6
"2008",2242,29,1,1,1,NA,0,0,7
"2009",2242,14,1,1,1,NA,0,0,8
"2010",2242,27,1,1,1,NA,0,1,9
"2011",2242,11,1,1,1,NA,0,1,10
"2012",2242,35,1,1,1,NA,0,1,11
"2013",2242,9,1,1,1,NA,0,0,12
"2014",2242,10,1,1,1,NA,1,0,13
"2015",2242,26,1,1,1,NA,0,0,14
"2016",2242,15,1,1,1,NA,1,1,15
"2017",2242,21,1,1,1,NA,0,0,16
"2018",2242,31,1,1,1,NA,0,1,17
"2019",2242,20,1,1,1,NA,0,0,18
"2020",2242,30,1,1,1,NA,0,0,19
"2021",2242,23,1,1,1,NA,0,0,20
"2022",2242,2,1,1,1,NA,0,0,21
"2023",2242,8,1,1,1,NA,0,0,22
"2024",2242,34,1,1,1,NA,0,1,23
"2025",2242,33,1,1,1,NA,0,0,24
"2026",2242,32,1,1,1,NA,0,1,25
"2027",2242,4,1,1,1,NA,0,1,26
"2028",2242,6,1,1,1,NA,0,1,27
"2029",2242,28,1,1,1,NA,0,1,28
"2030",2242,24,1,1,1,NA,0,1,29
"2031",2242,37,1,1,1,NA,0,0,30
"2032",2242,40,1,1,1,NA,0,0,31
"2033",2242,12,1,1,1,NA,0,1,32
"2034",2242,38,1,1,1,NA,0,0,33
"2035",2242,1,1,1,1,NA,0,1,34
"2036",2242,19,1,1,1,NA,0,1,35
"2037",2242,3,1,1,1,NA,1,0,36
"2038",2242,5,1,1,1,NA,1,1,37
"2039",2242,13,1,1,1,NA,0,0,38
"2040",2242,22,1,1,1,NA,0,1,39
"2041",2240,31,1,1,1,NA,0,1,0
"2042",2240,4,1,1,1,NA,0,0,1
"2043",2240,12,1,1,1,NA,1,1,2
"2044",2240,9,1,1,1,NA,1,0,3
"2045",2240,19,1,1,1,NA,0,0,4
"2046",2240,13,1,1,1,NA,0,0,5
"2047",2240,26,1,1,1,NA,0,0,6
"2048",2240,32,1,1,1,NA,1,1,7
"2049",2240,38,1,1,1,NA,0,0,8
"2050",2240,2,1,1,1,NA,0,1,9
"2051",2240,14,1,1,1,NA,1,0,10
"2052",2240,10,1,1,1,NA,0,1,11
"2053",2240,5,1,1,1,NA,1,0,12
"2054",2240,16,1,1,1,NA,1,0,13
"2055",2240,7,1,1,1,NA,0,0,14
"2056",2240,28,1,1,1,NA,0,0,15
"2057",2240,8,1,1,1,NA,1,1,16
"2058",2240,21,1,1,1,NA,0,1,17
"2059",2240,27,1,1,1,NA,0,1,18
"2060",2240,25,1,1,1,NA,1,0,19
"2061",2240,15,1,1,1,NA,1,1,20
"2062",2240,39,1,1,1,NA,0,1,21
"2063",2240,1,1,1,1,NA,1,1,22
"2064",2240,23,1,1,1,NA,1,1,23
"2065",2240,22,1,1,1,NA,0,1,24
"2066",2240,17,1,1,1,NA,1,0,25
"2067",2240,36,1,1,1,NA,1,0,26
"2068",2240,11,1,1,1,NA,1,0,27
"2069",2240,35,1,1,1,NA,0,1,28
"2070",2240,20,1,1,1,NA,1,0,29
"2071",2240,40,1,1,1,NA,1,1,30
"2072",2240,33,1,1,1,NA,1,0,31
"2073",2240,24,1,1,1,NA,0,1,32
"2074",2240,37,1,1,1,NA,0,1,33
"2075",2240,34,1,1,1,NA,0,0,34
"2076",2240,29,1,1,1,NA,1,1,35
"2077",2240,18,1,1,1,NA,0,0,36
"2078",2240,6,1,1,1,NA,1,0,37
"2079",2240,30,1,1,1,NA,1,1,38
"2080",2240,3,1,1,1,NA,0,1,39
"2081",2239,11,1,1,1,NA,0,1,0
"2082",2239,23,1,1,1,NA,1,0,1
"2083",2239,27,1,1,1,NA,1,1,2
"2084",2239,31,1,1,1,NA,0,1,3
"2085",2239,25,1,1,1,NA,1,1,4
"2086",2239,36,1,1,1,NA,0,0,5
"2087",2239,30,1,1,1,NA,0,0,6
"2088",2239,6,1,1,1,NA,0,0,7
"2089",2239,40,1,1,1,NA,1,0,8
"2090",2239,1,1,1,1,NA,1,0,9
"2091",2239,38,1,1,1,NA,1,0,10
"2092",2239,33,1,1,1,NA,1,0,11
"2093",2239,4,1,1,1,NA,0,0,12
"2094",2239,10,1,1,1,NA,0,1,13
"2095",2239,20,1,1,1,NA,0,1,14
"2096",2239,15,1,1,1,NA,0,0,15
"2097",2239,18,1,1,1,NA,0,1,16
"2098",2239,26,1,1,1,NA,0,0,17
"2099",2239,28,1,1,1,NA,0,0,18
"2100",2239,29,1,1,1,NA,1,0,19
"2101",2239,22,1,1,1,NA,0,1,20
"2102",2239,24,1,1,1,NA,0,0,21
"2103",2239,16,1,1,1,NA,1,0,22
"2104",2239,12,1,1,1,NA,1,0,23
"2105",2239,8,1,1,1,NA,1,0,24
"2106",2239,3,1,1,1,NA,1,1,25
"2107",2239,17,1,1,1,NA,0,1,26
"2108",2239,37,1,1,1,NA,0,1,27
"2109",2239,32,1,1,1,NA,1,1,28
"2110",2239,19,1,1,1,NA,1,1,29
"2111",2239,34,1,1,1,NA,0,1,30
"2112",2239,2,1,1,1,NA,0,1,31
"2113",2239,14,1,1,1,NA,1,1,32
"2114",2239,13,1,1,1,NA,1,0,33
"2115",2239,21,1,1,1,NA,0,0,34
"2116",2239,39,1,1,1,NA,1,1,35
"2117",2239,35,1,1,1,NA,1,1,36
"2118",2239,7,1,1,1,NA,0,1,37
"2119",2239,9,1,1,1,NA,0,0,38
"2120",2239,5,1,1,1,NA,0,1,39
"2121",2237,19,1,1,1,NA,0,0,0
"2122",2237,31,1,1,1,NA,1,0,1
"2123",2237,24,1,1,1,NA,1,1,2
"2124",2237,28,1,1,1,NA,0,1,3
"2125",2237,29,1,1,1,NA,1,0,4
"2126",2237,36,1,1,1,NA,0,0,5
"2127",2237,9,1,1,1,NA,1,0,6
"2128",2237,1,1,1,1,NA,1,0,7
"2129",2237,15,1,1,1,NA,1,0,8
"2130",2237,23,1,1,1,NA,1,1,9
"2131",2237,7,1,1,1,NA,0,0,10
"2132",2237,33,1,1,1,NA,1,0,11
"2133",2237,18,1,1,1,NA,1,0,12
"2134",2237,10,1,1,1,NA,1,0,13
"2135",2237,39,1,1,1,NA,1,0,14
"2136",2237,38,1,1,1,NA,1,0,15
"2137",2237,30,1,1,1,NA,1,1,16
"2138",2237,13,1,1,1,NA,1,1,17
"2139",2237,11,1,1,1,NA,1,0,18
"2140",2237,16,1,1,1,NA,1,1,19
"2141",2237,8,1,1,1,NA,1,1,20
"2142",2237,3,1,1,1,NA,1,1,21
"2143",2237,27,1,1,1,NA,0,1,22
"2144",2237,22,1,1,1,NA,1,0,23
"2145",2237,32,1,1,1,NA,1,1,24
"2146",2237,20,1,1,1,NA,1,1,25
"2147",2237,37,1,1,1,NA,0,1,26
"2148",2237,26,1,1,1,NA,0,1,27
"2149",2237,21,1,1,1,NA,0,1,28
"2150",2237,34,1,1,1,NA,0,1,29
"2151",2237,35,1,1,1,NA,0,0,30
"2152",2237,40,1,1,1,NA,1,0,31
"2153",2237,6,1,1,1,NA,1,1,32
"2154",2237,12,1,1,1,NA,1,1,33
"2155",2237,5,1,1,1,NA,1,1,34
"2156",2237,25,1,1,1,NA,1,0,35
"2157",2237,2,1,1,1,NA,1,0,36
"2158",2237,4,1,1,1,NA,1,1,37
"2159",2237,14,1,1,1,NA,1,1,38
"2160",2237,17,1,1,1,NA,1,0,39
"2161",2236,26,1,1,1,NA,0,1,0
"2162",2236,8,1,1,1,NA,0,1,1
"2163",2236,21,1,1,1,NA,0,0,2
"2164",2236,9,1,1,1,NA,0,0,3
"2165",2236,4,1,1,1,NA,0,1,4
"2166",2236,10,1,1,1,NA,0,0,5
"2167",2236,22,1,1,1,NA,0,1,6
"2168",2236,25,1,1,1,NA,1,0,7
"2169",2236,38,1,1,1,NA,1,0,8
"2170",2236,29,1,1,1,NA,0,1,9
"2171",2236,1,1,1,1,NA,0,1,10
"2172",2236,5,1,1,1,NA,0,0,11
"2173",2236,15,1,1,1,NA,0,1,12
"2174",2236,19,1,1,1,NA,0,0,13
"2175",2236,14,1,1,1,NA,1,1,14
"2176",2236,18,1,1,1,NA,0,0,15
"2177",2236,31,1,1,1,NA,0,0,16
"2178",2236,17,1,1,1,NA,0,1,17
"2179",2236,33,1,1,1,NA,1,1,18
"2180",2236,36,1,1,1,NA,1,1,19
"2181",2236,20,1,1,1,NA,0,0,20
"2182",2236,40,1,1,1,NA,1,0,21
"2183",2236,16,1,1,1,NA,1,0,22
"2184",2236,11,1,1,1,NA,0,0,23
"2185",2236,28,1,1,1,NA,0,1,24
"2186",2236,30,1,1,1,NA,0,1,25
"2187",2236,39,1,1,1,NA,0,0,26
"2188",2236,32,1,1,1,NA,0,1,27
"2189",2236,23,1,1,1,NA,1,1,28
"2190",2236,13,1,1,1,NA,0,0,29
"2191",2236,27,1,1,1,NA,0,1,30
"2192",2236,2,1,1,1,NA,0,0,31
"2193",2236,3,1,1,1,NA,0,0,32
"2194",2236,34,1,1,1,NA,1,0,33
"2195",2236,37,1,1,1,NA,0,0,34
"2196",2236,12,1,1,1,NA,1,0,35
"2197",2236,6,1,1,1,NA,0,1,36
"2198",2236,24,1,1,1,NA,0,1,37
"2199",2236,35,1,1,1,NA,0,1,38
"2200",2236,7,1,1,1,NA,1,1,39
"2201",2235,4,1,1,1,NA,0,0,0
"2202",2235,14,1,1,1,NA,1,0,1
"2203",2235,8,1,1,1,NA,1,1,2
"2204",2235,37,1,1,1,NA,0,1,3
"2205",2235,12,1,1,1,NA,1,1,4
"2206",2235,17,1,1,1,NA,0,0,5
"2207",2235,18,1,1,1,NA,0,1,6
"2208",2235,7,1,1,1,NA,0,0,7
"2209",2235,34,1,1,1,NA,0,1,8
"2210",2235,38,1,1,1,NA,1,1,9
"2211",2235,11,1,1,1,NA,0,1,10
"2212",2235,19,1,1,1,NA,1,0,11
"2213",2235,9,1,1,1,NA,1,0,12
"2214",2235,30,1,1,1,NA,0,0,13
"2215",2235,35,1,1,1,NA,1,1,14
"2216",2235,1,1,1,1,NA,1,0,15
"2217",2235,31,1,1,1,NA,0,1,16
"2218",2235,23,1,1,1,NA,1,1,17
"2219",2235,26,1,1,1,NA,0,0,18
"2220",2235,22,1,1,1,NA,0,1,19
"2221",2235,10,1,1,1,NA,1,0,20
"2222",2235,36,1,1,1,NA,0,0,21
"2223",2235,28,1,1,1,NA,1,1,22
"2224",2235,40,1,1,1,NA,1,1,23
"2225",2235,39,1,1,1,NA,0,0,24
"2226",2235,24,1,1,1,NA,0,0,25
"2227",2235,16,1,1,1,NA,0,0,26
"2228",2235,27,1,1,1,NA,0,1,27
"2229",2235,25,1,1,1,NA,1,1,28
"2230",2235,29,1,1,1,NA,1,1,29
"2231",2235,33,1,1,1,NA,1,0,30
"2232",2235,3,1,1,1,NA,1,0,31
"2233",2235,6,1,1,1,NA,0,0,32
"2234",2235,5,1,1,1,NA,1,0,33
"2235",2235,20,1,1,1,NA,1,1,34
"2236",2235,13,1,1,1,NA,0,0,35
"2237",2235,15,1,1,1,NA,0,1,36
"2238",2235,21,1,1,1,NA,0,0,37
"2239",2235,32,1,1,1,NA,0,1,38
"2240",2235,2,1,1,1,NA,1,1,39
"2241",2234,22,1,1,1,NA,0,1,0
"2242",2234,5,1,1,1,NA,0,0,1
"2243",2234,36,1,1,1,NA,0,0,2
"2244",2234,32,1,1,1,NA,0,1,3
"2245",2234,40,1,1,1,NA,0,0,4
"2246",2234,7,1,1,1,NA,0,1,5
"2247",2234,31,1,1,1,NA,1,0,6
"2248",2234,21,1,1,1,NA,1,0,7
"2249",2234,27,1,1,1,NA,0,1,8
"2250",2234,3,1,1,1,NA,0,0,9
"2251",2234,26,1,1,1,NA,0,0,10
"2252",2234,10,1,1,1,NA,0,0,11
"2253",2234,14,1,1,1,NA,0,1,12
"2254",2234,9,1,1,1,NA,0,1,13
"2255",2234,18,1,1,1,NA,0,1,14
"2256",2234,30,1,1,1,NA,0,0,15
"2257",2234,4,1,1,1,NA,0,0,16
"2258",2234,33,1,1,1,NA,0,0,17
"2259",2234,38,1,1,1,NA,1,1,18
"2260",2234,39,1,1,1,NA,0,0,19
"2261",2234,37,1,1,1,NA,0,1,20
"2262",2234,1,1,1,1,NA,0,0,21
"2263",2234,20,1,1,1,NA,0,1,22
"2264",2234,11,1,1,1,NA,0,1,23
"2265",2234,12,1,1,1,NA,0,0,24
"2266",2234,28,1,1,1,NA,0,1,25
"2267",2234,8,1,1,1,NA,0,0,26
"2268",2234,15,1,1,1,NA,1,1,27
"2269",2234,34,1,1,1,NA,0,0,28
"2270",2234,19,1,1,1,NA,0,0,29
"2271",2234,16,1,1,1,NA,1,1,30
"2272",2234,13,1,1,1,NA,0,0,31
"2273",2234,29,1,1,1,NA,0,1,32
"2274",2234,25,1,1,1,NA,0,1,33
"2275",2234,24,1,1,1,NA,0,1,34
"2276",2234,2,1,1,1,NA,0,1,35
"2277",2234,6,1,1,1,NA,0,0,36
"2278",2234,23,1,1,1,NA,0,1,37
"2279",2234,17,1,1,1,NA,0,1,38
"2280",2234,35,1,1,1,NA,0,0,39
"2281",2233,14,1,1,1,NA,0,0,0
"2282",2233,8,1,1,1,NA,1,0,1
"2283",2233,12,1,1,1,NA,0,0,2
"2284",2233,36,1,1,1,NA,1,0,3
"2285",2233,38,1,1,1,NA,0,0,4
"2286",2233,37,1,1,1,NA,1,0,5
"2287",2233,39,1,1,1,NA,1,0,6
"2288",2233,20,1,1,1,NA,0,1,7
"2289",2233,30,1,1,1,NA,0,0,8
"2290",2233,7,1,1,1,NA,0,1,9
"2291",2233,27,1,1,1,NA,0,0,10
"2292",2233,29,1,1,1,NA,0,0,11
"2293",2233,4,1,1,1,NA,1,1,12
"2294",2233,28,1,1,1,NA,0,0,13
"2295",2233,13,1,1,1,NA,1,1,14
"2296",2233,35,1,1,1,NA,0,0,15
"2297",2233,25,1,1,1,NA,1,1,16
"2298",2233,21,1,1,1,NA,1,1,17
"2299",2233,9,1,1,1,NA,1,1,18
"2300",2233,16,1,1,1,NA,1,1,19
"2301",2233,22,1,1,1,NA,1,1,20
"2302",2233,11,1,1,1,NA,0,0,21
"2303",2233,40,1,1,1,NA,0,0,22
"2304",2233,2,1,1,1,NA,0,0,23
"2305",2233,33,1,1,1,NA,1,1,24
"2306",2233,6,1,1,1,NA,1,1,25
"2307",2233,34,1,1,1,NA,1,1,26
"2308",2233,3,1,1,1,NA,0,0,27
"2309",2233,19,1,1,1,NA,1,1,28
"2310",2233,5,1,1,1,NA,1,1,29
"2311",2233,32,1,1,1,NA,0,0,30
"2312",2233,31,1,1,1,NA,1,1,31
"2313",2233,24,1,1,1,NA,0,0,32
"2314",2233,23,1,1,1,NA,1,1,33
"2315",2233,18,1,1,1,NA,1,1,34
"2316",2233,17,1,1,1,NA,0,0,35
"2317",2233,26,1,1,1,NA,0,0,36
"2318",2233,10,1,1,1,NA,1,1,37
"2319",2233,15,1,1,1,NA,1,1,38
"2320",2233,1,1,1,1,NA,1,1,39
"2321",2232,32,1,1,1,NA,0,0,0
"2322",2232,27,1,1,1,NA,0,0,1
"2323",2232,12,1,1,1,NA,0,0,2
"2324",2232,40,1,1,1,NA,0,0,3
"2325",2232,17,1,1,1,NA,1,0,4
"2326",2232,15,1,1,1,NA,1,1,5
"2327",2232,4,1,1,1,NA,0,1,6
"2328",2232,38,1,1,1,NA,0,1,7
"2329",2232,22,1,1,1,NA,0,1,8
"2330",2232,14,1,1,1,NA,0,1,9
"2331",2232,39,1,1,1,NA,0,1,10
"2332",2232,11,1,1,1,NA,0,1,11
"2333",2232,36,1,1,1,NA,0,1,12
"2334",2232,34,1,1,1,NA,0,1,13
"2335",2232,8,1,1,1,NA,0,0,14
"2336",2232,18,1,1,1,NA,0,1,15
"2337",2232,19,1,1,1,NA,0,1,16
"2338",2232,2,1,1,1,NA,0,0,17
"2339",2232,10,1,1,1,NA,0,0,18
"2340",2232,33,1,1,1,NA,0,0,19
"2341",2232,20,1,1,1,NA,1,0,20
"2342",2232,30,1,1,1,NA,1,0,21
"2343",2232,21,1,1,1,NA,1,1,22
"2344",2232,13,1,1,1,NA,1,1,23
"2345",2232,26,1,1,1,NA,0,0,24
"2346",2232,6,1,1,1,NA,0,0,25
"2347",2232,24,1,1,1,NA,0,0,26
"2348",2232,23,1,1,1,NA,1,0,27
"2349",2232,28,1,1,1,NA,0,1,28
"2350",2232,35,1,1,1,NA,1,0,29
"2351",2232,3,1,1,1,NA,0,1,30
"2352",2232,9,1,1,1,NA,0,0,31
"2353",2232,37,1,1,1,NA,1,1,32
"2354",2232,7,1,1,1,NA,0,1,33
"2355",2232,31,1,1,1,NA,0,1,34
"2356",2232,1,1,1,1,NA,0,1,35
"2357",2232,16,1,1,1,NA,1,0,36
"2358",2232,25,1,1,1,NA,0,1,37
"2359",2232,29,1,1,1,NA,0,0,38
"2360",2232,5,1,1,1,NA,0,0,39
"2361",2231,1,1,1,1,NA,0,1,0
"2362",2231,12,1,1,1,NA,1,0,1
"2363",2231,24,1,1,1,NA,1,0,2
"2364",2231,11,1,1,1,NA,1,0,3
"2365",2231,33,1,1,1,NA,1,1,4
"2366",2231,36,1,1,1,NA,1,0,5
"2367",2231,3,1,1,1,NA,1,1,6
"2368",2231,34,1,1,1,NA,1,1,7
"2369",2231,2,1,1,1,NA,0,0,8
"2370",2231,40,1,1,1,NA,1,1,9
"2371",2231,9,1,1,1,NA,0,0,10
"2372",2231,19,1,1,1,NA,0,0,11
"2373",2231,17,1,1,1,NA,1,1,12
"2374",2231,22,1,1,1,NA,1,1,13
"2375",2231,25,1,1,1,NA,1,1,14
"2376",2231,16,1,1,1,NA,0,0,15
"2377",2231,21,1,1,1,NA,1,0,16
"2378",2231,8,1,1,1,NA,1,0,17
"2379",2231,27,1,1,1,NA,0,0,18
"2380",2231,29,1,1,1,NA,1,1,19
"2381",2231,14,1,1,1,NA,1,0,20
"2382",2231,18,1,1,1,NA,1,0,21
"2383",2231,10,1,1,1,NA,1,1,22
"2384",2231,38,1,1,1,NA,1,1,23
"2385",2231,23,1,1,1,NA,0,0,24
"2386",2231,31,1,1,1,NA,0,0,25
"2387",2231,4,1,1,1,NA,1,1,26
"2388",2231,6,1,1,1,NA,1,1,27
"2389",2231,35,1,1,1,NA,1,1,28
"2390",2231,13,1,1,1,NA,0,1,29
"2391",2231,30,1,1,1,NA,0,0,30
"2392",2231,15,1,1,1,NA,0,0,31
"2393",2231,28,1,1,1,NA,0,1,32
"2394",2231,20,1,1,1,NA,1,0,33
"2395",2231,39,1,1,1,NA,1,1,34
"2396",2231,5,1,1,1,NA,1,1,35
"2397",2231,7,1,1,1,NA,0,0,36
"2398",2231,26,1,1,1,NA,1,0,37
"2399",2231,32,1,1,1,NA,1,1,38
"2400",2231,37,1,1,1,NA,1,1,39
"2401",2230,17,1,1,1,NA,1,1,0
"2402",2230,26,1,1,1,NA,0,1,1
"2403",2230,15,1,1,1,NA,0,0,2
"2404",2230,11,1,1,1,NA,0,0,3
"2405",2230,21,1,1,1,NA,0,1,4
"2406",2230,38,1,1,1,NA,1,0,5
"2407",2230,31,1,1,1,NA,1,1,6
"2408",2230,6,1,1,1,NA,0,1,7
"2409",2230,4,1,1,1,NA,1,1,8
"2410",2230,19,1,1,1,NA,0,1,9
"2411",2230,10,1,1,1,NA,0,0,10
"2412",2230,34,1,1,1,NA,0,0,11
"2413",2230,13,1,1,1,NA,0,1,12
"2414",2230,14,1,1,1,NA,0,0,13
"2415",2230,22,1,1,1,NA,0,1,14
"2416",2230,28,1,1,1,NA,0,0,15
"2417",2230,23,1,1,1,NA,1,1,16
"2418",2230,2,1,1,1,NA,0,1,17
"2419",2230,29,1,1,1,NA,1,0,18
"2420",2230,33,1,1,1,NA,1,0,19
"2421",2230,3,1,1,1,NA,0,1,20
"2422",2230,12,1,1,1,NA,0,0,21
"2423",2230,24,1,1,1,NA,0,0,22
"2424",2230,40,1,1,1,NA,0,0,23
"2425",2230,30,1,1,1,NA,1,1,24
"2426",2230,18,1,1,1,NA,1,0,25
"2427",2230,1,1,1,1,NA,0,1,26
"2428",2230,27,1,1,1,NA,1,0,27
"2429",2230,8,1,1,1,NA,0,1,28
"2430",2230,9,1,1,1,NA,0,0,29
"2431",2230,16,1,1,1,NA,0,0,30
"2432",2230,37,1,1,1,NA,0,0,31
"2433",2230,20,1,1,1,NA,0,0,32
"2434",2230,5,1,1,1,NA,1,1,33
"2435",2230,32,1,1,1,NA,0,1,34
"2436",2230,39,1,1,1,NA,0,1,35
"2437",2230,25,1,1,1,NA,0,0,36
"2438",2230,7,1,1,1,NA,0,0,37
"2439",2230,35,1,1,1,NA,0,1,38
"2440",2230,36,1,1,1,NA,0,1,39
"2441",2229,28,1,1,1,NA,0,0,0
"2442",2229,13,1,1,1,NA,0,1,1
"2443",2229,25,1,1,1,NA,1,1,2
"2444",2229,4,1,1,1,NA,1,0,3
"2445",2229,38,1,1,1,NA,1,1,4
"2446",2229,31,1,1,1,NA,1,0,5
"2447",2229,20,1,1,1,NA,1,0,6
"2448",2229,5,1,1,1,NA,0,0,7
"2449",2229,30,1,1,1,NA,1,0,8
"2450",2229,12,1,1,1,NA,1,0,9
"2451",2229,35,1,1,1,NA,1,1,10
"2452",2229,21,1,1,1,NA,0,1,11
"2453",2229,6,1,1,1,NA,0,0,12
"2454",2229,37,1,1,1,NA,1,1,13
"2455",2229,8,1,1,1,NA,1,0,14
"2456",2229,11,1,1,1,NA,1,1,15
"2457",2229,10,1,1,1,NA,1,0,16
"2458",2229,15,1,1,1,NA,0,0,17
"2459",2229,32,1,1,1,NA,0,0,18
"2460",2229,22,1,1,1,NA,1,1,19
"2461",2229,33,1,1,1,NA,1,1,20
"2462",2229,24,1,1,1,NA,0,0,21
"2463",2229,9,1,1,1,NA,0,1,22
"2464",2229,27,1,1,1,NA,1,0,23
"2465",2229,16,1,1,1,NA,0,1,24
"2466",2229,39,1,1,1,NA,1,0,25
"2467",2229,29,1,1,1,NA,1,1,26
"2468",2229,40,1,1,1,NA,1,1,27
"2469",2229,17,1,1,1,NA,1,1,28
"2470",2229,36,1,1,1,NA,1,1,29
"2471",2229,1,1,1,1,NA,1,1,30
"2472",2229,18,1,1,1,NA,1,1,31
"2473",2229,14,1,1,1,NA,1,0,32
"2474",2229,3,1,1,1,NA,1,1,33
"2475",2229,34,1,1,1,NA,1,1,34
"2476",2229,26,1,1,1,NA,1,0,35
"2477",2229,19,1,1,1,NA,1,0,36
"2478",2229,7,1,1,1,NA,1,0,37
"2479",2229,23,1,1,1,NA,1,1,38
"2480",2229,2,1,1,1,NA,0,0,39
"2481",2228,35,1,1,1,NA,0,0,0
"2482",2228,40,1,1,1,NA,1,0,1
"2483",2228,28,1,1,1,NA,0,0,2
"2484",2228,32,1,1,1,NA,0,1,3
"2485",2228,13,1,1,1,NA,1,1,4
"2486",2228,34,1,1,1,NA,0,0,5
"2487",2228,30,1,1,1,NA,1,1,6
"2488",2228,10,1,1,1,NA,0,1,7
"2489",2228,1,1,1,1,NA,0,1,8
"2490",2228,25,1,1,1,NA,1,0,9
"2491",2228,8,1,1,1,NA,0,1,10
"2492",2228,20,1,1,1,NA,1,0,11
"2493",2228,29,1,1,1,NA,0,1,12
"2494",2228,11,1,1,1,NA,1,0,13
"2495",2228,15,1,1,1,NA,0,0,14
"2496",2228,24,1,1,1,NA,0,1,15
"2497",2228,38,1,1,1,NA,0,1,16
"2498",2228,22,1,1,1,NA,1,0,17
"2499",2228,7,1,1,1,NA,1,0,18
"2500",2228,18,1,1,1,NA,0,1,19
"2501",2228,17,1,1,1,NA,0,1,20
"2502",2228,33,1,1,1,NA,1,0,21
"2503",2228,4,1,1,1,NA,1,0,22
"2504",2228,6,1,1,1,NA,1,0,23
"2505",2228,3,1,1,1,NA,1,0,24
"2506",2228,36,1,1,1,NA,1,0,25
"2507",2228,21,1,1,1,NA,0,1,26
"2508",2228,2,1,1,1,NA,1,0,27
"2509",2228,37,1,1,1,NA,0,1,28
"2510",2228,19,1,1,1,NA,0,1,29
"2511",2228,39,1,1,1,NA,0,1,30
"2512",2228,16,1,1,1,NA,1,0,31
"2513",2228,31,1,1,1,NA,0,1,32
"2514",2228,14,1,1,1,NA,1,0,33
"2515",2228,12,1,1,1,NA,1,1,34
"2516",2228,5,1,1,1,NA,1,0,35
"2517",2228,27,1,1,1,NA,0,1,36
"2518",2228,9,1,1,1,NA,0,0,37
"2519",2228,26,1,1,1,NA,0,1,38
"2520",2228,23,1,1,1,NA,0,1,39
"2521",2227,21,1,1,1,NA,0,0,0
"2522",2227,13,1,1,1,NA,0,1,1
"2523",2227,27,1,1,1,NA,1,1,2
"2524",2227,2,1,1,1,NA,0,0,3
"2525",2227,16,1,1,1,NA,0,1,4
"2526",2227,23,1,1,1,NA,1,1,5
"2527",2227,22,1,1,1,NA,0,1,6
"2528",2227,28,1,1,1,NA,0,0,7
"2529",2227,17,1,1,1,NA,1,0,8
"2530",2227,10,1,1,1,NA,0,1,9
"2531",2227,6,1,1,1,NA,1,1,10
"2532",2227,38,1,1,1,NA,1,1,11
"2533",2227,7,1,1,1,NA,0,1,12
"2534",2227,5,1,1,1,NA,1,1,13
"2535",2227,24,1,1,1,NA,0,1,14
"2536",2227,8,1,1,1,NA,0,0,15
"2537",2227,40,1,1,1,NA,1,0,16
"2538",2227,19,1,1,1,NA,0,0,17
"2539",2227,35,1,1,1,NA,1,1,18
"2540",2227,11,1,1,1,NA,0,1,19
"2541",2227,15,1,1,1,NA,0,0,20
"2542",2227,31,1,1,1,NA,0,0,21
"2543",2227,4,1,1,1,NA,1,0,22
"2544",2227,12,1,1,1,NA,0,0,23
"2545",2227,30,1,1,1,NA,0,0,24
"2546",2227,9,1,1,1,NA,1,1,25
"2547",2227,14,1,1,1,NA,1,0,26
"2548",2227,36,1,1,1,NA,0,1,27
"2549",2227,26,1,1,1,NA,1,1,28
"2550",2227,37,1,1,1,NA,0,0,29
"2551",2227,20,1,1,1,NA,1,1,30
"2552",2227,29,1,1,1,NA,0,0,31
"2553",2227,39,1,1,1,NA,0,0,32
"2554",2227,33,1,1,1,NA,1,0,33
"2555",2227,34,1,1,1,NA,0,1,34
"2556",2227,32,1,1,1,NA,1,0,35
"2557",2227,25,1,1,1,NA,1,0,36
"2558",2227,1,1,1,1,NA,1,1,37
"2559",2227,18,1,1,1,NA,0,1,38
"2560",2227,3,1,1,1,NA,0,0,39
"2561",2226,9,1,1,1,NA,0,0,0
"2562",2226,15,1,1,1,NA,1,0,1
"2563",2226,37,1,1,1,NA,1,1,2
"2564",2226,10,1,1,1,NA,1,0,3
"2565",2226,33,1,1,1,NA,1,1,4
"2566",2226,3,1,1,1,NA,1,0,5
"2567",2226,7,1,1,1,NA,1,1,6
"2568",2226,19,1,1,1,NA,0,1,7
"2569",2226,35,1,1,1,NA,1,1,8
"2570",2226,11,1,1,1,NA,0,1,9
"2571",2226,23,1,1,1,NA,1,1,10
"2572",2226,17,1,1,1,NA,1,0,11
"2573",2226,34,1,1,1,NA,0,1,12
"2574",2226,16,1,1,1,NA,0,0,13
"2575",2226,24,1,1,1,NA,0,0,14
"2576",2226,27,1,1,1,NA,1,1,15
"2577",2226,30,1,1,1,NA,0,0,16
"2578",2226,18,1,1,1,NA,1,1,17
"2579",2226,13,1,1,1,NA,0,1,18
"2580",2226,5,1,1,1,NA,0,1,19
"2581",2226,21,1,1,1,NA,1,0,20
"2582",2226,32,1,1,1,NA,0,1,21
"2583",2226,40,1,1,1,NA,1,0,22
"2584",2226,4,1,1,1,NA,0,1,23
"2585",2226,29,1,1,1,NA,0,0,24
"2586",2226,36,1,1,1,NA,0,1,25
"2587",2226,8,1,1,1,NA,0,0,26
"2588",2226,26,1,1,1,NA,0,0,27
"2589",2226,14,1,1,1,NA,1,0,28
"2590",2226,25,1,1,1,NA,1,0,29
"2591",2226,22,1,1,1,NA,0,1,30
"2592",2226,6,1,1,1,NA,1,0,31
"2593",2226,28,1,1,1,NA,1,0,32
"2594",2226,39,1,1,1,NA,1,1,33
"2595",2226,38,1,1,1,NA,1,0,34
"2596",2226,12,1,1,1,NA,0,1,35
"2597",2226,2,1,1,1,NA,0,0,36
"2598",2226,1,1,1,1,NA,1,0,37
"2599",2226,20,1,1,1,NA,0,1,38
"2600",2226,31,1,1,1,NA,1,1,39
"2601",2225,33,1,1,1,NA,0,0,0
"2602",2225,8,1,1,1,NA,0,0,1
"2603",2225,1,1,1,1,NA,0,0,2
"2604",2225,31,1,1,1,NA,1,1,3
"2605",2225,32,1,1,1,NA,1,1,4
"2606",2225,6,1,1,1,NA,0,0,5
"2607",2225,15,1,1,1,NA,0,1,6
"2608",2225,23,1,1,1,NA,0,1,7
"2609",2225,37,1,1,1,NA,0,1,8
"2610",2225,28,1,1,1,NA,0,0,9
"2611",2225,10,1,1,1,NA,0,0,10
"2612",2225,20,1,1,1,NA,0,1,11
"2613",2225,4,1,1,1,NA,0,1,12
"2614",2225,36,1,1,1,NA,0,0,13
"2615",2225,11,1,1,1,NA,0,0,14
"2616",2225,24,1,1,1,NA,0,1,15
"2617",2225,25,1,1,1,NA,1,1,16
"2618",2225,5,1,1,1,NA,0,0,17
"2619",2225,40,1,1,1,NA,1,1,18
"2620",2225,29,1,1,1,NA,0,0,19
"2621",2225,3,1,1,1,NA,0,1,20
"2622",2225,19,1,1,1,NA,0,1,21
"2623",2225,16,1,1,1,NA,0,1,22
"2624",2225,13,1,1,1,NA,1,1,23
"2625",2225,26,1,1,1,NA,0,1,24
"2626",2225,39,1,1,1,NA,0,1,25
"2627",2225,38,1,1,1,NA,0,0,26
"2628",2225,14,1,1,1,NA,1,0,27
"2629",2225,2,1,1,1,NA,0,1,28
"2630",2225,27,1,1,1,NA,0,0,29
"2631",2225,21,1,1,1,NA,0,1,30
"2632",2225,12,1,1,1,NA,0,1,31
"2633",2225,34,1,1,1,NA,0,0,32
"2634",2225,17,1,1,1,NA,0,0,33
"2635",2225,22,1,1,1,NA,0,0,34
"2636",2225,18,1,1,1,NA,0,0,35
"2637",2225,30,1,1,1,NA,0,1,36
"2638",2225,7,1,1,1,NA,0,0,37
"2639",2225,9,1,1,1,NA,0,0,38
"2640",2225,35,1,1,1,NA,0,0,39
"2641",2224,40,1,1,1,NA,1,1,0
"2642",2224,1,1,1,1,NA,0,0,1
"2643",2224,32,1,1,1,NA,1,1,2
"2644",2224,15,1,1,1,NA,0,0,3
"2645",2224,27,1,1,1,NA,0,0,4
"2646",2224,16,1,1,1,NA,1,0,5
"2647",2224,10,1,1,1,NA,1,0,6
"2648",2224,28,1,1,1,NA,1,1,7
"2649",2224,24,1,1,1,NA,1,0,8
"2650",2224,29,1,1,1,NA,1,0,9
"2651",2224,21,1,1,1,NA,0,1,10
"2652",2224,19,1,1,1,NA,1,0,11
"2653",2224,22,1,1,1,NA,1,1,12
"2654",2224,31,1,1,1,NA,0,1,13
"2655",2224,11,1,1,1,NA,0,0,14
"2656",2224,4,1,1,1,NA,1,1,15
"2657",2224,34,1,1,1,NA,0,0,16
"2658",2224,25,1,1,1,NA,1,0,17
"2659",2224,5,1,1,1,NA,1,0,18
"2660",2224,13,1,1,1,NA,1,0,19
"2661",2224,38,1,1,1,NA,1,1,20
"2662",2224,8,1,1,1,NA,1,1,21
"2663",2224,9,1,1,1,NA,1,1,22
"2664",2224,2,1,1,1,NA,0,1,23
"2665",2224,30,1,1,1,NA,1,1,24
"2666",2224,20,1,1,1,NA,1,0,25
"2667",2224,37,1,1,1,NA,1,0,26
"2668",2224,39,1,1,1,NA,1,1,27
"2669",2224,23,1,1,1,NA,1,1,28
"2670",2224,35,1,1,1,NA,1,1,29
"2671",2224,18,1,1,1,NA,1,1,30
"2672",2224,33,1,1,1,NA,1,1,31
"2673",2224,36,1,1,1,NA,0,0,32
"2674",2224,6,1,1,1,NA,1,1,33
"2675",2224,7,1,1,1,NA,1,0,34
"2676",2224,17,1,1,1,NA,1,1,35
"2677",2224,3,1,1,1,NA,1,0,36
"2678",2224,14,1,1,1,NA,1,0,37
"2679",2224,26,1,1,1,NA,1,0,38
"2680",2224,12,1,1,1,NA,1,1,39
"2681",2223,5,1,1,1,NA,1,1,0
"2682",2223,17,1,1,1,NA,1,1,1
"2683",2223,36,1,1,1,NA,0,1,2
"2684",2223,12,1,1,1,NA,0,0,3
"2685",2223,10,1,1,1,NA,0,0,4
"2686",2223,22,1,1,1,NA,0,1,5
"2687",2223,39,1,1,1,NA,0,1,6
"2688",2223,35,1,1,1,NA,0,0,7
"2689",2223,3,1,1,1,NA,1,0,8
"2690",2223,30,1,1,1,NA,1,0,9
"2691",2223,25,1,1,1,NA,1,0,10
"2692",2223,26,1,1,1,NA,0,1,11
"2693",2223,24,1,1,1,NA,0,1,12
"2694",2223,29,1,1,1,NA,1,0,13
"2695",2223,20,1,1,1,NA,1,0,14
"2696",2223,32,1,1,1,NA,1,1,15
"2697",2223,40,1,1,1,NA,0,1,16
"2698",2223,21,1,1,1,NA,0,1,17
"2699",2223,38,1,1,1,NA,1,0,18
"2700",2223,27,1,1,1,NA,1,1,19
"2701",2223,11,1,1,1,NA,1,1,20
"2702",2223,23,1,1,1,NA,1,1,21
"2703",2223,34,1,1,1,NA,1,0,22
"2704",2223,33,1,1,1,NA,1,1,23
"2705",2223,6,1,1,1,NA,1,0,24
"2706",2223,4,1,1,1,NA,0,0,25
"2707",2223,16,1,1,1,NA,0,1,26
"2708",2223,31,1,1,1,NA,1,1,27
"2709",2223,1,1,1,1,NA,0,1,28
"2710",2223,9,1,1,1,NA,0,1,29
"2711",2223,2,1,1,1,NA,0,0,30
"2712",2223,15,1,1,1,NA,0,0,31
"2713",2223,13,1,1,1,NA,0,0,32
"2714",2223,37,1,1,1,NA,1,1,33
"2715",2223,28,1,1,1,NA,0,0,34
"2716",2223,7,1,1,1,NA,0,0,35
"2717",2223,8,1,1,1,NA,0,0,36
"2718",2223,19,1,1,1,NA,1,1,37
"2719",2223,18,1,1,1,NA,0,0,38
"2720",2223,14,1,1,1,NA,0,0,39
"2721",2222,7,1,1,1,NA,0,0,0
"2722",2222,32,1,1,1,NA,1,1,1
"2723",2222,15,1,1,1,NA,0,0,2
"2724",2222,12,1,1,1,NA,1,0,3
"2725",2222,39,1,1,1,NA,0,1,4
"2726",2222,4,1,1,1,NA,1,1,5
"2727",2222,23,1,1,1,NA,0,0,6
"2728",2222,27,1,1,1,NA,0,1,7
"2729",2222,24,1,1,1,NA,0,1,8
"2730",2222,18,1,1,1,NA,0,0,9
"2731",2222,10,1,1,1,NA,0,1,10
"2732",2222,19,1,1,1,NA,0,1,11
"2733",2222,29,1,1,1,NA,0,0,12
"2734",2222,3,1,1,1,NA,1,0,13
"2735",2222,26,1,1,1,NA,0,1,14
"2736",2222,35,1,1,1,NA,0,1,15
"2737",2222,30,1,1,1,NA,1,0,16
"2738",2222,34,1,1,1,NA,1,0,17
"2739",2222,25,1,1,1,NA,1,1,18
"2740",2222,37,1,1,1,NA,0,0,19
"2741",2222,9,1,1,1,NA,0,1,20
"2742",2222,31,1,1,1,NA,0,0,21
"2743",2222,6,1,1,1,NA,0,0,22
"2744",2222,38,1,1,1,NA,1,1,23
"2745",2222,17,1,1,1,NA,1,1,24
"2746",2222,28,1,1,1,NA,0,0,25
"2747",2222,5,1,1,1,NA,1,1,26
"2748",2222,36,1,1,1,NA,0,0,27
"2749",2222,40,1,1,1,NA,0,0,28
"2750",2222,22,1,1,1,NA,0,1,29
"2751",2222,21,1,1,1,NA,0,0,30
"2752",2222,20,1,1,1,NA,1,0,31
"2753",2222,1,1,1,1,NA,0,1,32
"2754",2222,13,1,1,1,NA,0,1,33
"2755",2222,2,1,1,1,NA,0,1,34
"2756",2222,11,1,1,1,NA,0,1,35
"2757",2222,33,1,1,1,NA,1,0,36
"2758",2222,14,1,1,1,NA,0,0,37
"2759",2222,16,1,1,1,NA,0,1,38
"2760",2222,8,1,1,1,NA,1,0,39
"2761",2221,26,1,1,1,NA,0,0,0
"2762",2221,12,1,1,1,NA,0,1,1
"2763",2221,27,1,1,1,NA,0,0,2
"2764",2221,21,1,1,1,NA,0,1,3
"2765",2221,4,1,1,1,NA,0,0,4
"2766",2221,1,1,1,1,NA,1,1,5
"2767",2221,31,1,1,1,NA,1,1,6
"2768",2221,28,1,1,1,NA,0,1,7
"2769",2221,17,1,1,1,NA,0,1,8
"2770",2221,35,1,1,1,NA,0,0,9
"2771",2221,18,1,1,1,NA,0,1,10
"2772",2221,40,1,1,1,NA,1,0,11
"2773",2221,38,1,1,1,NA,0,0,12
"2774",2221,32,1,1,1,NA,1,0,13
"2775",2221,36,1,1,1,NA,1,0,14
"2776",2221,24,1,1,1,NA,0,0,15
"2777",2221,23,1,1,1,NA,1,0,16
"2778",2221,33,1,1,1,NA,1,1,17
"2779",2221,14,1,1,1,NA,1,0,18
"2780",2221,20,1,1,1,NA,1,1,19
"2781",2221,15,1,1,1,NA,1,0,20
"2782",2221,29,1,1,1,NA,1,1,21
"2783",2221,9,1,1,1,NA,1,1,22
"2784",2221,5,1,1,1,NA,1,1,23
"2785",2221,13,1,1,1,NA,1,0,24
"2786",2221,19,1,1,1,NA,1,0,25
"2787",2221,34,1,1,1,NA,0,0,26
"2788",2221,8,1,1,1,NA,1,0,27
"2789",2221,11,1,1,1,NA,1,0,28
"2790",2221,16,1,1,1,NA,1,0,29
"2791",2221,37,1,1,1,NA,1,1,30
"2792",2221,7,1,1,1,NA,1,1,31
"2793",2221,10,1,1,1,NA,1,0,32
"2794",2221,39,1,1,1,NA,1,1,33
"2795",2221,3,1,1,1,NA,1,1,34
"2796",2221,30,1,1,1,NA,1,1,35
"2797",2221,22,1,1,1,NA,1,1,36
"2798",2221,6,1,1,1,NA,1,0,37
"2799",2221,25,1,1,1,NA,1,1,38
"2800",2221,2,1,1,1,NA,1,1,39
"2801",2220,12,1,1,1,NA,1,0,0
"2802",2220,24,1,1,1,NA,1,0,1
"2803",2220,26,1,1,1,NA,1,1,2
"2804",2220,15,1,1,1,NA,1,1,3
"2805",2220,38,1,1,1,NA,1,1,4
"2806",2220,17,1,1,1,NA,1,0,5
"2807",2220,5,1,1,1,NA,0,1,6
"2808",2220,33,1,1,1,NA,0,0,7
"2809",2220,1,1,1,1,NA,0,0,8
"2810",2220,30,1,1,1,NA,0,1,9
"2811",2220,6,1,1,1,NA,1,1,10
"2812",2220,36,1,1,1,NA,0,1,11
"2813",2220,9,1,1,1,NA,0,0,12
"2814",2220,11,1,1,1,NA,0,1,13
"2815",2220,28,1,1,1,NA,0,1,14
"2816",2220,27,1,1,1,NA,1,0,15
"2817",2220,37,1,1,1,NA,0,1,16
"2818",2220,4,1,1,1,NA,0,1,17
"2819",2220,25,1,1,1,NA,1,0,18
"2820",2220,14,1,1,1,NA,0,0,19
"2821",2220,10,1,1,1,NA,0,0,20
"2822",2220,21,1,1,1,NA,0,0,21
"2823",2220,7,1,1,1,NA,0,1,22
"2824",2220,22,1,1,1,NA,1,0,23
"2825",2220,18,1,1,1,NA,1,1,24
"2826",2220,23,1,1,1,NA,1,0,25
"2827",2220,31,1,1,1,NA,0,1,26
"2828",2220,20,1,1,1,NA,0,1,27
"2829",2220,29,1,1,1,NA,1,1,28
"2830",2220,8,1,1,1,NA,0,0,29
"2831",2220,35,1,1,1,NA,0,0,30
"2832",2220,3,1,1,1,NA,1,0,31
"2833",2220,32,1,1,1,NA,0,0,32
"2834",2220,13,1,1,1,NA,0,1,33
"2835",2220,39,1,1,1,NA,1,0,34
"2836",2220,40,1,1,1,NA,0,0,35
"2837",2220,19,1,1,1,NA,1,0,36
"2838",2220,34,1,1,1,NA,0,1,37
"2839",2220,16,1,1,1,NA,0,1,38
"2840",2220,2,1,1,1,NA,1,1,39
"2841",2219,4,1,1,1,NA,0,1,0
"2842",2219,37,1,1,1,NA,0,0,1
"2843",2219,13,1,1,1,NA,1,0,2
"2844",2219,35,1,1,1,NA,1,1,3
"2845",2219,6,1,1,1,NA,0,0,4
"2846",2219,29,1,1,1,NA,0,1,5
"2847",2219,3,1,1,1,NA,1,1,6
"2848",2219,20,1,1,1,NA,1,0,7
"2849",2219,9,1,1,1,NA,0,1,8
"2850",2219,27,1,1,1,NA,0,1,9
"2851",2219,15,1,1,1,NA,0,1,10
"2852",2219,14,1,1,1,NA,1,0,11
"2853",2219,19,1,1,1,NA,0,1,12
"2854",2219,16,1,1,1,NA,1,1,13
"2855",2219,8,1,1,1,NA,1,1,14
"2856",2219,32,1,1,1,NA,1,0,15
"2857",2219,38,1,1,1,NA,1,1,16
"2858",2219,33,1,1,1,NA,1,0,17
"2859",2219,39,1,1,1,NA,0,0,18
"2860",2219,34,1,1,1,NA,1,1,19
"2861",2219,25,1,1,1,NA,1,0,20
"2862",2219,18,1,1,1,NA,0,0,21
"2863",2219,11,1,1,1,NA,0,0,22
"2864",2219,10,1,1,1,NA,1,0,23
"2865",2219,23,1,1,1,NA,0,0,24
"2866",2219,2,1,1,1,NA,1,0,25
"2867",2219,30,1,1,1,NA,1,1,26
"2868",2219,24,1,1,1,NA,0,1,27
"2869",2219,22,1,1,1,NA,1,0,28
"2870",2219,1,1,1,1,NA,1,0,29
"2871",2219,7,1,1,1,NA,1,1,30
"2872",2219,21,1,1,1,NA,1,1,31
"2873",2219,12,1,1,1,NA,0,0,32
"2874",2219,31,1,1,1,NA,1,0,33
"2875",2219,5,1,1,1,NA,1,1,34
"2876",2219,17,1,1,1,NA,1,0,35
"2877",2219,40,1,1,1,NA,1,0,36
"2878",2219,26,1,1,1,NA,0,1,37
"2879",2219,28,1,1,1,NA,0,1,38
"2880",2219,36,1,1,1,NA,0,1,39
"2881",2218,14,1,1,1,NA,0,0,0
"2882",2218,29,1,1,1,NA,1,1,1
"2883",2218,16,1,1,1,NA,0,1,2
"2884",2218,22,1,1,1,NA,1,1,3
"2885",2218,31,1,1,1,NA,1,0,4
"2886",2218,18,1,1,1,NA,0,0,5
"2887",2218,34,1,1,1,NA,0,0,6
"2888",2218,39,1,1,1,NA,1,1,7
"2889",2218,26,1,1,1,NA,0,1,8
"2890",2218,40,1,1,1,NA,0,1,9
"2891",2218,21,1,1,1,NA,0,0,10
"2892",2218,19,1,1,1,NA,0,0,11
"2893",2218,11,1,1,1,NA,0,0,12
"2894",2218,4,1,1,1,NA,1,1,13
"2895",2218,35,1,1,1,NA,0,1,14
"2896",2218,6,1,1,1,NA,0,1,15
"2897",2218,36,1,1,1,NA,0,0,16
"2898",2218,13,1,1,1,NA,0,1,17
"2899",2218,25,1,1,1,NA,0,0,18
"2900",2218,24,1,1,1,NA,0,0,19
"2901",2218,33,1,1,1,NA,0,1,20
"2902",2218,17,1,1,1,NA,1,1,21
"2903",2218,9,1,1,1,NA,0,0,22
"2904",2218,7,1,1,1,NA,0,1,23
"2905",2218,27,1,1,1,NA,0,1,24
"2906",2218,10,1,1,1,NA,0,0,25
"2907",2218,37,1,1,1,NA,0,1,26
"2908",2218,15,1,1,1,NA,1,1,27
"2909",2218,28,1,1,1,NA,0,0,28
"2910",2218,23,1,1,1,NA,1,1,29
"2911",2218,5,1,1,1,NA,1,1,30
"2912",2218,1,1,1,1,NA,1,0,31
"2913",2218,8,1,1,1,NA,0,0,32
"2914",2218,32,1,1,1,NA,1,1,33
"2915",2218,3,1,1,1,NA,1,0,34
"2916",2218,2,1,1,1,NA,0,0,35
"2917",2218,12,1,1,1,NA,1,0,36
"2918",2218,20,1,1,1,NA,1,0,37
"2919",2218,38,1,1,1,NA,1,0,38
"2920",2218,30,1,1,1,NA,0,1,39
"2921",2217,16,1,1,1,NA,1,0,0
"2922",2217,14,1,1,1,NA,1,1,1
"2923",2217,7,1,1,1,NA,1,0,2
"2924",2217,30,1,1,1,NA,1,1,3
"2925",2217,10,1,1,1,NA,0,1,4
"2926",2217,40,1,1,1,NA,1,1,5
"2927",2217,4,1,1,1,NA,0,1,6
"2928",2217,2,1,1,1,NA,0,1,7
"2929",2217,34,1,1,1,NA,1,0,8
"2930",2217,33,1,1,1,NA,1,1,9
"2931",2217,36,1,1,1,NA,1,1,10
"2932",2217,23,1,1,1,NA,0,1,11
"2933",2217,11,1,1,1,NA,0,0,12
"2934",2217,37,1,1,1,NA,1,1,13
"2935",2217,17,1,1,1,NA,1,1,14
"2936",2217,8,1,1,1,NA,0,0,15
"2937",2217,12,1,1,1,NA,1,0,16
"2938",2217,28,1,1,1,NA,0,0,17
"2939",2217,13,1,1,1,NA,0,0,18
"2940",2217,22,1,1,1,NA,0,0,19
"2941",2217,27,1,1,1,NA,0,0,20
"2942",2217,38,1,1,1,NA,1,0,21
"2943",2217,39,1,1,1,NA,1,1,22
"2944",2217,3,1,1,1,NA,1,0,23
"2945",2217,6,1,1,1,NA,0,1,24
"2946",2217,31,1,1,1,NA,0,0,25
"2947",2217,35,1,1,1,NA,1,1,26
"2948",2217,24,1,1,1,NA,1,1,27
"2949",2217,29,1,1,1,NA,0,1,28
"2950",2217,21,1,1,1,NA,1,1,29
"2951",2217,15,1,1,1,NA,1,0,30
"2952",2217,25,1,1,1,NA,1,1,31
"2953",2217,19,1,1,1,NA,0,0,32
"2954",2217,32,1,1,1,NA,0,0,33
"2955",2217,26,1,1,1,NA,0,0,34
"2956",2217,5,1,1,1,NA,0,0,35
"2957",2217,9,1,1,1,NA,1,1,36
"2958",2217,1,1,1,1,NA,1,0,37
"2959",2217,20,1,1,1,NA,1,1,38
"2960",2217,18,1,1,1,NA,0,0,39
"2961",2216,30,1,1,1,NA,1,1,0
"2962",2216,35,1,1,1,NA,0,0,1
"2963",2216,7,1,1,1,NA,0,1,2
"2964",2216,6,1,1,1,NA,0,0,3
"2965",2216,29,1,1,1,NA,0,0,4
"2966",2216,5,1,1,1,NA,1,1,5
"2967",2216,31,1,1,1,NA,0,0,6
"2968",2216,40,1,1,1,NA,0,0,7
"2969",2216,14,1,1,1,NA,1,1,8
"2970",2216,34,1,1,1,NA,1,1,9
"2971",2216,9,1,1,1,NA,0,0,10
"2972",2216,10,1,1,1,NA,0,0,11
"2973",2216,36,1,1,1,NA,1,1,12
"2974",2216,33,1,1,1,NA,0,0,13
"2975",2216,4,1,1,1,NA,0,0,14
"2976",2216,21,1,1,1,NA,0,0,15
"2977",2216,22,1,1,1,NA,1,1,16
"2978",2216,8,1,1,1,NA,1,0,17
"2979",2216,27,1,1,1,NA,0,0,18
"2980",2216,13,1,1,1,NA,1,0,19
"2981",2216,38,1,1,1,NA,1,1,20
"2982",2216,37,1,1,1,NA,0,1,21
"2983",2216,32,1,1,1,NA,1,1,22
"2984",2216,16,1,1,1,NA,1,1,23
"2985",2216,2,1,1,1,NA,0,0,24
"2986",2216,3,1,1,1,NA,1,1,25
"2987",2216,19,1,1,1,NA,1,1,26
"2988",2216,20,1,1,1,NA,1,1,27
"2989",2216,24,1,1,1,NA,0,0,28
"2990",2216,12,1,1,1,NA,1,1,29
"2991",2216,25,1,1,1,NA,1,0,30
"2992",2216,1,1,1,1,NA,0,1,31
"2993",2216,39,1,1,1,NA,0,1,32
"2994",2216,23,1,1,1,NA,1,0,33
"2995",2216,18,1,1,1,NA,1,1,34
"2996",2216,26,1,1,1,NA,0,0,35
"2997",2216,28,1,1,1,NA,1,0,36
"2998",2216,11,1,1,1,NA,0,1,37
"2999",2216,17,1,1,1,NA,1,1,38
"3000",2216,15,1,1,1,NA,1,0,39
"3001",2215,34,1,1,1,NA,1,1,0
"3002",2215,32,1,1,1,NA,0,0,1
"3003",2215,31,1,1,1,NA,0,0,2
"3004",2215,38,1,1,1,NA,0,1,3
"3005",2215,23,1,1,1,NA,1,0,4
"3006",2215,21,1,1,1,NA,1,0,5
"3007",2215,5,1,1,1,NA,0,0,6
"3008",2215,3,1,1,1,NA,0,0,7
"3009",2215,2,1,1,1,NA,1,1,8
"3010",2215,10,1,1,1,NA,1,0,9
"3011",2215,17,1,1,1,NA,0,0,10
"3012",2215,36,1,1,1,NA,1,1,11
"3013",2215,12,1,1,1,NA,1,0,12
"3014",2215,26,1,1,1,NA,0,0,13
"3015",2215,7,1,1,1,NA,0,0,14
"3016",2215,13,1,1,1,NA,1,1,15
"3017",2215,30,1,1,1,NA,0,0,16
"3018",2215,25,1,1,1,NA,1,0,17
"3019",2215,6,1,1,1,NA,1,0,18
"3020",2215,4,1,1,1,NA,1,1,19
"3021",2215,28,1,1,1,NA,0,0,20
"3022",2215,37,1,1,1,NA,0,1,21
"3023",2215,33,1,1,1,NA,1,1,22
"3024",2215,18,1,1,1,NA,0,0,23
"3025",2215,29,1,1,1,NA,1,1,24
"3026",2215,11,1,1,1,NA,1,1,25
"3027",2215,24,1,1,1,NA,1,0,26
"3028",2215,9,1,1,1,NA,0,1,27
"3029",2215,35,1,1,1,NA,0,0,28
"3030",2215,20,1,1,1,NA,1,0,29
"3031",2215,39,1,1,1,NA,0,1,30
"3032",2215,14,1,1,1,NA,1,1,31
"3033",2215,15,1,1,1,NA,1,1,32
"3034",2215,27,1,1,1,NA,0,1,33
"3035",2215,16,1,1,1,NA,0,1,34
"3036",2215,40,1,1,1,NA,1,1,35
"3037",2215,19,1,1,1,NA,1,1,36
"3038",2215,22,1,1,1,NA,1,1,37
"3039",2215,1,1,1,1,NA,1,1,38
"3040",2215,8,1,1,1,NA,0,0,39
"3041",2214,29,1,1,1,NA,0,0,0
"3042",2214,39,1,1,1,NA,0,1,1
"3043",2214,5,1,1,1,NA,0,0,2
"3044",2214,31,1,1,1,NA,1,0,3
"3045",2214,36,1,1,1,NA,0,0,4
"3046",2214,33,1,1,1,NA,0,0,5
"3047",2214,35,1,1,1,NA,0,1,6
"3048",2214,16,1,1,1,NA,1,0,7
"3049",2214,19,1,1,1,NA,1,0,8
"3050",2214,37,1,1,1,NA,0,1,9
"3051",2214,12,1,1,1,NA,0,1,10
"3052",2214,11,1,1,1,NA,0,1,11
"3053",2214,27,1,1,1,NA,1,0,12
"3054",2214,26,1,1,1,NA,0,1,13
"3055",2214,28,1,1,1,NA,0,1,14
"3056",2214,30,1,1,1,NA,0,0,15
"3057",2214,13,1,1,1,NA,0,0,16
"3058",2214,3,1,1,1,NA,1,1,17
"3059",2214,10,1,1,1,NA,0,0,18
"3060",2214,23,1,1,1,NA,0,0,19
"3061",2214,9,1,1,1,NA,1,1,20
"3062",2214,38,1,1,1,NA,0,1,21
"3063",2214,24,1,1,1,NA,0,1,22
"3064",2214,2,1,1,1,NA,1,1,23
"3065",2214,20,1,1,1,NA,0,1,24
"3066",2214,4,1,1,1,NA,0,0,25
"3067",2214,40,1,1,1,NA,0,0,26
"3068",2214,15,1,1,1,NA,0,1,27
"3069",2214,8,1,1,1,NA,0,1,28
"3070",2214,7,1,1,1,NA,0,1,29
"3071",2214,34,1,1,1,NA,1,1,30
"3072",2214,6,1,1,1,NA,1,1,31
"3073",2214,18,1,1,1,NA,0,1,32
"3074",2214,14,1,1,1,NA,1,0,33
"3075",2214,17,1,1,1,NA,1,0,34
"3076",2214,25,1,1,1,NA,0,0,35
"3077",2214,1,1,1,1,NA,1,0,36
"3078",2214,22,1,1,1,NA,0,0,37
"3079",2214,21,1,1,1,NA,0,0,38
"3080",2214,32,1,1,1,NA,0,1,39
"3081",2213,13,1,1,1,NA,0,0,0
"3082",2213,17,1,1,1,NA,0,1,1
"3083",2213,15,1,1,1,NA,1,0,2
"3084",2213,21,1,1,1,NA,0,1,3
"3085",2213,27,1,1,1,NA,0,0,4
"3086",2213,2,1,1,1,NA,1,1,5
"3087",2213,12,1,1,1,NA,1,1,6
"3088",2213,19,1,1,1,NA,0,1,7
"3089",2213,16,1,1,1,NA,1,0,8
"3090",2213,9,1,1,1,NA,0,1,9
"3091",2213,11,1,1,1,NA,1,1,10
"3092",2213,3,1,1,1,NA,1,0,11
"3093",2213,32,1,1,1,NA,1,0,12
"3094",2213,8,1,1,1,NA,0,1,13
"3095",2213,23,1,1,1,NA,1,0,14
"3096",2213,22,1,1,1,NA,1,1,15
"3097",2213,29,1,1,1,NA,1,1,16
"3098",2213,7,1,1,1,NA,0,0,17
"3099",2213,28,1,1,1,NA,0,0,18
"3100",2213,34,1,1,1,NA,0,0,19
"3101",2213,30,1,1,1,NA,1,0,20
"3102",2213,14,1,1,1,NA,1,1,21
"3103",2213,18,1,1,1,NA,1,1,22
"3104",2213,1,1,1,1,NA,1,1,23
"3105",2213,33,1,1,1,NA,1,0,24
"3106",2213,5,1,1,1,NA,1,0,25
"3107",2213,31,1,1,1,NA,0,0,26
"3108",2213,10,1,1,1,NA,0,0,27
"3109",2213,25,1,1,1,NA,1,0,28
"3110",2213,24,1,1,1,NA,1,0,29
"3111",2213,38,1,1,1,NA,0,1,30
"3112",2213,37,1,1,1,NA,1,0,31
"3113",2213,4,1,1,1,NA,1,1,32
"3114",2213,35,1,1,1,NA,0,1,33
"3115",2213,20,1,1,1,NA,1,0,34
"3116",2213,36,1,1,1,NA,0,1,35
"3117",2213,6,1,1,1,NA,1,1,36
"3118",2213,39,1,1,1,NA,1,1,37
"3119",2213,40,1,1,1,NA,1,1,38
"3120",2213,26,1,1,1,NA,0,0,39
"3121",2211,22,1,1,1,NA,0,0,0
"3122",2211,7,1,1,1,NA,0,1,1
"3123",2211,1,1,1,1,NA,0,1,2
"3124",2211,11,1,1,1,NA,0,0,3
"3125",2211,30,1,1,1,NA,1,0,4
"3126",2211,12,1,1,1,NA,0,1,5
"3127",2211,37,1,1,1,NA,0,0,6
"3128",2211,32,1,1,1,NA,0,1,7
"3129",2211,39,1,1,1,NA,0,0,8
"3130",2211,6,1,1,1,NA,0,0,9
"3131",2211,18,1,1,1,NA,1,0,10
"3132",2211,2,1,1,1,NA,0,1,11
"3133",2211,25,1,1,1,NA,1,1,12
"3134",2211,34,1,1,1,NA,1,0,13
"3135",2211,15,1,1,1,NA,1,0,14
"3136",2211,14,1,1,1,NA,0,0,15
"3137",2211,36,1,1,1,NA,0,0,16
"3138",2211,40,1,1,1,NA,1,0,17
"3139",2211,10,1,1,1,NA,0,1,18
"3140",2211,4,1,1,1,NA,1,0,19
"3141",2211,29,1,1,1,NA,1,0,20
"3142",2211,9,1,1,1,NA,0,1,21
"3143",2211,20,1,1,1,NA,1,0,22
"3144",2211,19,1,1,1,NA,1,1,23
"3145",2211,31,1,1,1,NA,0,1,24
"3146",2211,27,1,1,1,NA,1,1,25
"3147",2211,5,1,1,1,NA,0,0,26
"3148",2211,28,1,1,1,NA,0,1,27
"3149",2211,13,1,1,1,NA,1,1,28
"3150",2211,3,1,1,1,NA,1,1,29
"3151",2211,33,1,1,1,NA,1,0,30
"3152",2211,17,1,1,1,NA,0,0,31
"3153",2211,21,1,1,1,NA,0,0,32
"3154",2211,23,1,1,1,NA,1,1,33
"3155",2211,38,1,1,1,NA,1,1,34
"3156",2211,8,1,1,1,NA,1,1,35
"3157",2211,24,1,1,1,NA,0,0,36
"3158",2211,16,1,1,1,NA,1,1,37
"3159",2211,35,1,1,1,NA,0,1,38
"3160",2211,26,1,1,1,NA,0,1,39
"3161",2210,32,1,1,1,NA,1,1,0
"3162",2210,27,1,1,1,NA,0,1,1
"3163",2210,36,1,1,1,NA,1,0,2
"3164",2210,24,1,1,1,NA,0,0,3
"3165",2210,29,1,1,1,NA,1,0,4
"3166",2210,11,1,1,1,NA,0,1,5
"3167",2210,23,1,1,1,NA,0,1,6
"3168",2210,10,1,1,1,NA,0,1,7
"3169",2210,14,1,1,1,NA,1,0,8
"3170",2210,3,1,1,1,NA,0,0,9
"3171",2210,30,1,1,1,NA,0,0,10
"3172",2210,6,1,1,1,NA,0,1,11
"3173",2210,4,1,1,1,NA,0,0,12
"3174",2210,31,1,1,1,NA,0,1,13
"3175",2210,17,1,1,1,NA,1,0,14
"3176",2210,25,1,1,1,NA,1,1,15
"3177",2210,2,1,1,1,NA,1,0,16
"3178",2210,18,1,1,1,NA,0,1,17
"3179",2210,9,1,1,1,NA,1,1,18
"3180",2210,8,1,1,1,NA,1,0,19
"3181",2210,39,1,1,1,NA,1,1,20
"3182",2210,5,1,1,1,NA,1,1,21
"3183",2210,22,1,1,1,NA,0,1,22
"3184",2210,15,1,1,1,NA,0,1,23
"3185",2210,7,1,1,1,NA,0,1,24
"3186",2210,28,1,1,1,NA,0,0,25
"3187",2210,13,1,1,1,NA,0,0,26
"3188",2210,21,1,1,1,NA,1,1,27
"3189",2210,26,1,1,1,NA,1,0,28
"3190",2210,35,1,1,1,NA,0,0,29
"3191",2210,37,1,1,1,NA,0,0,30
"3192",2210,16,1,1,1,NA,1,1,31
"3193",2210,34,1,1,1,NA,1,0,32
"3194",2210,38,1,1,1,NA,1,0,33
"3195",2210,19,1,1,1,NA,1,0,34
"3196",2210,20,1,1,1,NA,0,1,35
"3197",2210,33,1,1,1,NA,1,0,36
"3198",2210,40,1,1,1,NA,1,1,37
"3199",2210,1,1,1,1,NA,0,1,38
"3200",2210,12,1,1,1,NA,1,0,39
"3201",2209,14,1,1,1,NA,1,1,0
"3202",2209,17,1,1,1,NA,1,0,1
"3203",2209,20,1,1,1,NA,1,1,2
"3204",2209,35,1,1,1,NA,0,0,3
"3205",2209,33,1,1,1,NA,0,1,4
"3206",2209,36,1,1,1,NA,0,1,5
"3207",2209,1,1,1,1,NA,0,0,6
"3208",2209,37,1,1,1,NA,0,1,7
"3209",2209,25,1,1,1,NA,1,1,8
"3210",2209,18,1,1,1,NA,1,0,9
"3211",2209,38,1,1,1,NA,1,1,10
"3212",2209,27,1,1,1,NA,0,0,11
"3213",2209,8,1,1,1,NA,0,0,12
"3214",2209,34,1,1,1,NA,0,0,13
"3215",2209,10,1,1,1,NA,1,0,14
"3216",2209,7,1,1,1,NA,1,1,15
"3217",2209,24,1,1,1,NA,0,0,16
"3218",2209,28,1,1,1,NA,0,0,17
"3219",2209,5,1,1,1,NA,1,0,18
"3220",2209,19,1,1,1,NA,1,1,19
"3221",2209,6,1,1,1,NA,0,0,20
"3222",2209,9,1,1,1,NA,0,1,21
"3223",2209,21,1,1,1,NA,1,0,22
"3224",2209,30,1,1,1,NA,1,0,23
"3225",2209,12,1,1,1,NA,1,1,24
"3226",2209,40,1,1,1,NA,1,0,25
"3227",2209,3,1,1,1,NA,1,1,26
"3228",2209,15,1,1,1,NA,0,0,27
"3229",2209,39,1,1,1,NA,1,0,28
"3230",2209,22,1,1,1,NA,1,0,29
"3231",2209,29,1,1,1,NA,0,1,30
"3232",2209,13,1,1,1,NA,0,0,31
"3233",2209,2,1,1,1,NA,0,0,32
"3234",2209,32,1,1,1,NA,0,1,33
"3235",2209,4,1,1,1,NA,1,1,34
"3236",2209,23,1,1,1,NA,0,1,35
"3237",2209,26,1,1,1,NA,0,1,36
"3238",2209,16,1,1,1,NA,1,1,37
"3239",2209,31,1,1,1,NA,1,1,38
"3240",2209,11,1,1,1,NA,1,1,39
"3241",2208,34,1,1,1,NA,0,0,0
"3242",2208,39,1,1,1,NA,0,0,1
"3243",2208,11,1,1,1,NA,1,1,2
"3244",2208,40,1,1,1,NA,0,0,3
"3245",2208,29,1,1,1,NA,0,1,4
"3246",2208,24,1,1,1,NA,1,0,5
"3247",2208,8,1,1,1,NA,1,0,6
"3248",2208,22,1,1,1,NA,0,1,7
"3249",2208,16,1,1,1,NA,1,1,8
"3250",2208,9,1,1,1,NA,0,0,9
"3251",2208,17,1,1,1,NA,0,1,10
"3252",2208,15,1,1,1,NA,0,0,11
"3253",2208,25,1,1,1,NA,1,0,12
"3254",2208,4,1,1,1,NA,0,1,13
"3255",2208,31,1,1,1,NA,1,0,14
"3256",2208,35,1,1,1,NA,0,1,15
"3257",2208,3,1,1,1,NA,0,1,16
"3258",2208,13,1,1,1,NA,1,0,17
"3259",2208,18,1,1,1,NA,0,0,18
"3260",2208,28,1,1,1,NA,0,0,19
"3261",2208,26,1,1,1,NA,1,1,20
"3262",2208,23,1,1,1,NA,1,0,21
"3263",2208,10,1,1,1,NA,0,0,22
"3264",2208,30,1,1,1,NA,1,1,23
"3265",2208,1,1,1,1,NA,1,1,24
"3266",2208,14,1,1,1,NA,1,1,25
"3267",2208,5,1,1,1,NA,0,1,26
"3268",2208,27,1,1,1,NA,1,0,27
"3269",2208,6,1,1,1,NA,0,1,28
"3270",2208,2,1,1,1,NA,0,1,29
"3271",2208,19,1,1,1,NA,0,0,30
"3272",2208,37,1,1,1,NA,1,1,31
"3273",2208,36,1,1,1,NA,1,1,32
"3274",2208,12,1,1,1,NA,1,0,33
"3275",2208,38,1,1,1,NA,1,0,34
"3276",2208,32,1,1,1,NA,1,1,35
"3277",2208,21,1,1,1,NA,0,1,36
"3278",2208,7,1,1,1,NA,0,0,37
"3279",2208,20,1,1,1,NA,1,0,38
"3280",2208,33,1,1,1,NA,1,1,39
"3281",2207,20,1,1,1,NA,0,0,0
"3282",2207,15,1,1,1,NA,1,0,1
"3283",2207,8,1,1,1,NA,1,1,2
"3284",2207,25,1,1,1,NA,1,0,3
"3285",2207,5,1,1,1,NA,1,0,4
"3286",2207,3,1,1,1,NA,1,1,5
"3287",2207,40,1,1,1,NA,0,1,6
"3288",2207,14,1,1,1,NA,0,0,7
"3289",2207,24,1,1,1,NA,0,1,8
"3290",2207,35,1,1,1,NA,0,1,9
"3291",2207,26,1,1,1,NA,0,1,10
"3292",2207,36,1,1,1,NA,1,0,11
"3293",2207,9,1,1,1,NA,1,1,12
"3294",2207,23,1,1,1,NA,1,1,13
"3295",2207,30,1,1,1,NA,0,1,14
"3296",2207,6,1,1,1,NA,0,0,15
"3297",2207,31,1,1,1,NA,0,0,16
"3298",2207,12,1,1,1,NA,1,1,17
"3299",2207,16,1,1,1,NA,1,1,18
"3300",2207,33,1,1,1,NA,1,1,19
"3301",2207,11,1,1,1,NA,1,1,20
"3302",2207,18,1,1,1,NA,1,0,21
"3303",2207,39,1,1,1,NA,0,1,22
"3304",2207,21,1,1,1,NA,1,0,23
"3305",2207,19,1,1,1,NA,1,1,24
"3306",2207,37,1,1,1,NA,1,0,25
"3307",2207,17,1,1,1,NA,0,0,26
