"","subject","statement_identifier","presentation_identifier","within_identifier","between_identifier","rt","response","repeated","trial"
"1",2767,1,1,1,"truth_cond",NA,0,1,0
"2",2767,2,1,1,"truth_cond",NA,0,1,1
"3",2767,3,1,1,"truth_cond",NA,1,0,2
"4",2767,4,1,1,"truth_cond",NA,0,1,3
"5",2767,5,1,1,"truth_cond",NA,1,1,4
"6",2767,6,1,1,"truth_cond",NA,0,0,5
"7",2767,7,1,1,"truth_cond",NA,0,1,6
"8",2767,8,1,1,"truth_cond",NA,1,0,7
"9",2767,9,1,1,"truth_cond",NA,1,1,8
"10",2767,10,1,1,"truth_cond",NA,0,0,9
"11",2767,11,1,1,"truth_cond",NA,0,1,10
"12",2767,12,1,1,"truth_cond",NA,0,0,11
"13",2767,13,1,1,"truth_cond",NA,0,1,12
"14",2767,14,1,1,"truth_cond",NA,0,0,13
"15",2767,15,1,1,"truth_cond",NA,1,0,14
"16",2767,16,1,1,"truth_cond",NA,1,0,15
"17",2767,17,1,1,"truth_cond",NA,0,1,16
"18",2767,18,1,1,"truth_cond",NA,1,1,17
"19",2767,19,1,1,"truth_cond",NA,1,1,18
"20",2767,20,1,1,"truth_cond",NA,1,1,19
"21",2767,21,1,1,"truth_cond",NA,1,1,20
"22",2767,22,1,1,"truth_cond",NA,0,0,21
"23",2767,23,1,1,"truth_cond",NA,0,1,22
"24",2767,24,1,1,"truth_cond",NA,1,0,23
"25",2767,25,1,1,"truth_cond",NA,0,0,24
"26",2767,26,1,1,"truth_cond",NA,0,0,25
"27",2767,27,1,1,"truth_cond",NA,1,1,26
"28",2767,28,1,1,"truth_cond",NA,0,0,27
"29",2767,29,1,1,"truth_cond",NA,0,0,28
"30",2767,30,1,1,"truth_cond",NA,1,1,29
"31",2767,31,1,1,"truth_cond",NA,1,0,30
"32",2767,32,1,1,"truth_cond",NA,1,0,31
"33",2767,33,1,1,"truth_cond",NA,1,0,32
"34",2767,34,1,1,"truth_cond",NA,0,1,33
"35",2767,35,1,1,"truth_cond",NA,1,1,34
"36",2767,36,1,1,"truth_cond",NA,1,1,35
"37",2767,37,1,1,"truth_cond",NA,0,0,36
"38",2767,38,1,1,"truth_cond",NA,0,0,37
"39",2767,39,1,1,"truth_cond",NA,1,0,38
"40",2767,40,1,1,"truth_cond",NA,0,1,39
"41",2765,31,1,1,"false_cond",NA,0,1,0
"42",2765,39,1,1,"false_cond",NA,1,0,1
"43",2765,8,1,1,"false_cond",NA,1,0,2
"44",2765,12,1,1,"false_cond",NA,0,0,3
"45",2765,15,1,1,"false_cond",NA,0,0,4
"46",2765,19,1,1,"false_cond",NA,0,1,5
"47",2765,20,1,1,"false_cond",NA,0,0,6
"48",2765,7,1,1,"false_cond",NA,1,0,7
"49",2765,16,1,1,"false_cond",NA,0,0,8
"50",2765,32,1,1,"false_cond",NA,0,0,9
"51",2765,3,1,1,"false_cond",NA,1,0,10
"52",2765,6,1,1,"false_cond",NA,0,0,11
"53",2765,34,1,1,"false_cond",NA,0,1,12
"54",2765,27,1,1,"false_cond",NA,0,0,13
"55",2765,5,1,1,"false_cond",NA,1,0,14
"56",2765,40,1,1,"false_cond",NA,1,0,15
"57",2765,29,1,1,"false_cond",NA,1,1,16
"58",2765,33,1,1,"false_cond",NA,1,1,17
"59",2765,26,1,1,"false_cond",NA,1,1,18
"60",2765,35,1,1,"false_cond",NA,0,0,19
"61",2765,11,1,1,"false_cond",NA,0,1,20
"62",2765,17,1,1,"false_cond",NA,0,1,21
"63",2765,4,1,1,"false_cond",NA,0,1,22
"64",2765,13,1,1,"false_cond",NA,1,1,23
"65",2765,2,1,1,"false_cond",NA,0,1,24
"66",2765,23,1,1,"false_cond",NA,1,0,25
"67",2765,30,1,1,"false_cond",NA,0,1,26
"68",2765,18,1,1,"false_cond",NA,0,1,27
"69",2765,14,1,1,"false_cond",NA,1,0,28
"70",2765,1,1,1,"false_cond",NA,1,1,29
"71",2765,25,1,1,"false_cond",NA,0,1,30
"72",2765,36,1,1,"false_cond",NA,1,1,31
"73",2765,37,1,1,"false_cond",NA,0,1,32
"74",2765,22,1,1,"false_cond",NA,1,0,33
"75",2765,28,1,1,"false_cond",NA,0,0,34
"76",2765,38,1,1,"false_cond",NA,1,0,35
"77",2765,9,1,1,"false_cond",NA,1,1,36
"78",2765,21,1,1,"false_cond",NA,1,0,37
"79",2765,10,1,1,"false_cond",NA,0,1,38
"80",2765,24,1,1,"false_cond",NA,1,1,39
"81",2764,4,1,1,"truth_cond",NA,1,1,0
"82",2764,21,1,1,"truth_cond",NA,0,0,1
"83",2764,8,1,1,"truth_cond",NA,0,1,2
"84",2764,39,1,1,"truth_cond",NA,1,0,3
"85",2764,19,1,1,"truth_cond",NA,1,1,4
"86",2764,7,1,1,"truth_cond",NA,0,0,5
"87",2764,35,1,1,"truth_cond",NA,1,0,6
"88",2764,6,1,1,"truth_cond",NA,0,0,7
"89",2764,14,1,1,"truth_cond",NA,1,1,8
"90",2764,32,1,1,"truth_cond",NA,1,0,9
"91",2764,40,1,1,"truth_cond",NA,1,0,10
"92",2764,2,1,1,"truth_cond",NA,1,0,11
"93",2764,24,1,1,"truth_cond",NA,1,0,12
"94",2764,28,1,1,"truth_cond",NA,0,0,13
"95",2764,36,1,1,"truth_cond",NA,0,0,14
"96",2764,11,1,1,"truth_cond",NA,1,0,15
"97",2764,16,1,1,"truth_cond",NA,1,0,16
"98",2764,22,1,1,"truth_cond",NA,1,1,17
"99",2764,1,1,1,"truth_cond",NA,1,0,18
"100",2764,34,1,1,"truth_cond",NA,1,1,19
"101",2764,25,1,1,"truth_cond",NA,0,1,20
"102",2764,23,1,1,"truth_cond",NA,0,1,21
"103",2764,31,1,1,"truth_cond",NA,1,0,22
"104",2764,15,1,1,"truth_cond",NA,1,1,23
"105",2764,18,1,1,"truth_cond",NA,1,0,24
"106",2764,12,1,1,"truth_cond",NA,1,1,25
"107",2764,30,1,1,"truth_cond",NA,0,0,26
"108",2764,9,1,1,"truth_cond",NA,1,1,27
"109",2764,38,1,1,"truth_cond",NA,1,1,28
"110",2764,37,1,1,"truth_cond",NA,0,1,29
"111",2764,3,1,1,"truth_cond",NA,0,0,30
"112",2764,5,1,1,"truth_cond",NA,1,1,31
"113",2764,27,1,1,"truth_cond",NA,0,1,32
"114",2764,29,1,1,"truth_cond",NA,0,1,33
"115",2764,33,1,1,"truth_cond",NA,1,0,34
"116",2764,10,1,1,"truth_cond",NA,1,1,35
"117",2764,17,1,1,"truth_cond",NA,0,1,36
"118",2764,13,1,1,"truth_cond",NA,1,1,37
"119",2764,20,1,1,"truth_cond",NA,1,0,38
"120",2764,26,1,1,"truth_cond",NA,1,1,39
"121",2763,23,1,1,"false_cond",NA,0,1,0
"122",2763,8,1,1,"false_cond",NA,0,0,1
"123",2763,7,1,1,"false_cond",NA,1,0,2
"124",2763,40,1,1,"false_cond",NA,0,0,3
"125",2763,16,1,1,"false_cond",NA,1,1,4
"126",2763,2,1,1,"false_cond",NA,0,0,5
"127",2763,5,1,1,"false_cond",NA,0,0,6
"128",2763,24,1,1,"false_cond",NA,1,1,7
"129",2763,30,1,1,"false_cond",NA,1,0,8
"130",2763,10,1,1,"false_cond",NA,1,1,9
"131",2763,29,1,1,"false_cond",NA,1,1,10
"132",2763,28,1,1,"false_cond",NA,0,1,11
"133",2763,25,1,1,"false_cond",NA,0,1,12
"134",2763,13,1,1,"false_cond",NA,0,1,13
"135",2763,34,1,1,"false_cond",NA,0,0,14
"136",2763,12,1,1,"false_cond",NA,1,0,15
"137",2763,14,1,1,"false_cond",NA,1,1,16
"138",2763,32,1,1,"false_cond",NA,1,1,17
"139",2763,21,1,1,"false_cond",NA,1,1,18
"140",2763,26,1,1,"false_cond",NA,1,1,19
"141",2763,27,1,1,"false_cond",NA,1,1,20
"142",2763,38,1,1,"false_cond",NA,0,1,21
"143",2763,36,1,1,"false_cond",NA,1,1,22
"144",2763,33,1,1,"false_cond",NA,0,0,23
"145",2763,37,1,1,"false_cond",NA,0,1,24
"146",2763,31,1,1,"false_cond",NA,0,0,25
"147",2763,6,1,1,"false_cond",NA,0,0,26
"148",2763,18,1,1,"false_cond",NA,1,0,27
"149",2763,4,1,1,"false_cond",NA,0,0,28
"150",2763,1,1,1,"false_cond",NA,1,0,29
"151",2763,9,1,1,"false_cond",NA,1,1,30
"152",2763,3,1,1,"false_cond",NA,1,1,31
"153",2763,15,1,1,"false_cond",NA,0,0,32
"154",2763,35,1,1,"false_cond",NA,1,1,33
"155",2763,19,1,1,"false_cond",NA,1,0,34
"156",2763,22,1,1,"false_cond",NA,1,0,35
"157",2763,20,1,1,"false_cond",NA,0,1,36
"158",2763,11,1,1,"false_cond",NA,0,0,37
"159",2763,17,1,1,"false_cond",NA,1,0,38
"160",2763,39,1,1,"false_cond",NA,1,0,39
"161",2762,34,1,1,"truth_cond",NA,0,1,0
"162",2762,38,1,1,"truth_cond",NA,1,1,1
"163",2762,18,1,1,"truth_cond",NA,1,0,2
"164",2762,5,1,1,"truth_cond",NA,0,1,3
"165",2762,11,1,1,"truth_cond",NA,1,1,4
"166",2762,15,1,1,"truth_cond",NA,1,1,5
"167",2762,29,1,1,"truth_cond",NA,0,1,6
"168",2762,4,1,1,"truth_cond",NA,0,1,7
"169",2762,7,1,1,"truth_cond",NA,1,1,8
"170",2762,12,1,1,"truth_cond",NA,1,0,9
"171",2762,32,1,1,"truth_cond",NA,0,1,10
"172",2762,17,1,1,"truth_cond",NA,1,1,11
"173",2762,27,1,1,"truth_cond",NA,0,1,12
"174",2762,33,1,1,"truth_cond",NA,1,1,13
"175",2762,1,1,1,"truth_cond",NA,1,0,14
"176",2762,36,1,1,"truth_cond",NA,0,0,15
"177",2762,25,1,1,"truth_cond",NA,0,0,16
"178",2762,14,1,1,"truth_cond",NA,1,0,17
"179",2762,37,1,1,"truth_cond",NA,1,0,18
"180",2762,16,1,1,"truth_cond",NA,1,0,19
"181",2762,40,1,1,"truth_cond",NA,0,1,20
"182",2762,6,1,1,"truth_cond",NA,1,0,21
"183",2762,24,1,1,"truth_cond",NA,0,1,22
"184",2762,8,1,1,"truth_cond",NA,1,0,23
"185",2762,39,1,1,"truth_cond",NA,1,1,24
"186",2762,9,1,1,"truth_cond",NA,0,1,25
"187",2762,21,1,1,"truth_cond",NA,1,1,26
"188",2762,28,1,1,"truth_cond",NA,1,0,27
"189",2762,13,1,1,"truth_cond",NA,0,1,28
"190",2762,30,1,1,"truth_cond",NA,1,0,29
"191",2762,26,1,1,"truth_cond",NA,1,0,30
"192",2762,31,1,1,"truth_cond",NA,0,0,31
"193",2762,35,1,1,"truth_cond",NA,1,0,32
"194",2762,3,1,1,"truth_cond",NA,0,0,33
"195",2762,2,1,1,"truth_cond",NA,0,0,34
"196",2762,23,1,1,"truth_cond",NA,1,0,35
"197",2762,19,1,1,"truth_cond",NA,1,0,36
"198",2762,20,1,1,"truth_cond",NA,1,0,37
"199",2762,10,1,1,"truth_cond",NA,1,1,38
"200",2762,22,1,1,"truth_cond",NA,0,1,39
"201",2761,36,1,1,"truth_cond",NA,0,0,0
"202",2761,5,1,1,"truth_cond",NA,1,0,1
"203",2761,4,1,1,"truth_cond",NA,1,0,2
"204",2761,31,1,1,"truth_cond",NA,1,0,3
"205",2761,16,1,1,"truth_cond",NA,0,1,4
"206",2761,7,1,1,"truth_cond",NA,0,1,5
"207",2761,21,1,1,"truth_cond",NA,1,0,6
"208",2761,39,1,1,"truth_cond",NA,1,1,7
"209",2761,35,1,1,"truth_cond",NA,0,0,8
"210",2761,38,1,1,"truth_cond",NA,1,0,9
"211",2761,3,1,1,"truth_cond",NA,0,0,10
"212",2761,6,1,1,"truth_cond",NA,1,1,11
"213",2761,22,1,1,"truth_cond",NA,0,1,12
"214",2761,18,1,1,"truth_cond",NA,1,0,13
"215",2761,27,1,1,"truth_cond",NA,1,0,14
"216",2761,26,1,1,"truth_cond",NA,0,1,15
"217",2761,30,1,1,"truth_cond",NA,1,1,16
"218",2761,20,1,1,"truth_cond",NA,0,1,17
"219",2761,1,1,1,"truth_cond",NA,0,1,18
"220",2761,24,1,1,"truth_cond",NA,1,1,19
"221",2761,17,1,1,"truth_cond",NA,1,0,20
"222",2761,37,1,1,"truth_cond",NA,1,1,21
"223",2761,32,1,1,"truth_cond",NA,1,1,22
"224",2761,15,1,1,"truth_cond",NA,0,1,23
"225",2761,33,1,1,"truth_cond",NA,0,0,24
"226",2761,23,1,1,"truth_cond",NA,1,1,25
"227",2761,29,1,1,"truth_cond",NA,1,0,26
"228",2761,2,1,1,"truth_cond",NA,1,0,27
"229",2761,25,1,1,"truth_cond",NA,1,0,28
"230",2761,40,1,1,"truth_cond",NA,0,0,29
"231",2761,13,1,1,"truth_cond",NA,0,1,30
"232",2761,14,1,1,"truth_cond",NA,0,0,31
"233",2761,12,1,1,"truth_cond",NA,1,1,32
"234",2761,9,1,1,"truth_cond",NA,0,1,33
"235",2761,19,1,1,"truth_cond",NA,0,0,34
"236",2761,11,1,1,"truth_cond",NA,0,0,35
"237",2761,34,1,1,"truth_cond",NA,0,0,36
"238",2761,8,1,1,"truth_cond",NA,0,1,37
"239",2761,10,1,1,"truth_cond",NA,0,1,38
"240",2761,28,1,1,"truth_cond",NA,1,1,39
"241",2760,26,1,1,"truth_cond",NA,1,1,0
"242",2760,36,1,1,"truth_cond",NA,1,1,1
"243",2760,8,1,1,"truth_cond",NA,1,1,2
"244",2760,15,1,1,"truth_cond",NA,1,0,3
"245",2760,29,1,1,"truth_cond",NA,0,0,4
"246",2760,39,1,1,"truth_cond",NA,1,1,5
"247",2760,33,1,1,"truth_cond",NA,1,1,6
"248",2760,40,1,1,"truth_cond",NA,1,1,7
"249",2760,11,1,1,"truth_cond",NA,0,1,8
"250",2760,17,1,1,"truth_cond",NA,1,1,9
"251",2760,9,1,1,"truth_cond",NA,0,1,10
"252",2760,22,1,1,"truth_cond",NA,1,0,11
"253",2760,13,1,1,"truth_cond",NA,0,0,12
"254",2760,2,1,1,"truth_cond",NA,0,0,13
"255",2760,5,1,1,"truth_cond",NA,1,0,14
"256",2760,14,1,1,"truth_cond",NA,1,0,15
"257",2760,21,1,1,"truth_cond",NA,0,0,16
"258",2760,19,1,1,"truth_cond",NA,1,1,17
"259",2760,32,1,1,"truth_cond",NA,1,0,18
"260",2760,24,1,1,"truth_cond",NA,1,1,19
"261",2760,27,1,1,"truth_cond",NA,0,0,20
"262",2760,37,1,1,"truth_cond",NA,0,1,21
"263",2760,18,1,1,"truth_cond",NA,1,0,22
"264",2760,28,1,1,"truth_cond",NA,1,1,23
"265",2760,3,1,1,"truth_cond",NA,1,0,24
"266",2760,12,1,1,"truth_cond",NA,1,1,25
"267",2760,4,1,1,"truth_cond",NA,1,0,26
"268",2760,6,1,1,"truth_cond",NA,1,1,27
"269",2760,35,1,1,"truth_cond",NA,1,0,28
"270",2760,20,1,1,"truth_cond",NA,1,0,29
"271",2760,1,1,1,"truth_cond",NA,0,0,30
"272",2760,10,1,1,"truth_cond",NA,0,1,31
"273",2760,38,1,1,"truth_cond",NA,1,1,32
"274",2760,16,1,1,"truth_cond",NA,0,0,33
"275",2760,30,1,1,"truth_cond",NA,1,0,34
"276",2760,34,1,1,"truth_cond",NA,1,1,35
"277",2760,23,1,1,"truth_cond",NA,1,0,36
"278",2760,31,1,1,"truth_cond",NA,1,1,37
"279",2760,25,1,1,"truth_cond",NA,0,0,38
"280",2760,7,1,1,"truth_cond",NA,1,1,39
"281",2759,9,1,1,"false_cond",NA,1,0,0
"282",2759,26,1,1,"false_cond",NA,0,0,1
"283",2759,7,1,1,"false_cond",NA,0,0,2
"284",2759,27,1,1,"false_cond",NA,1,0,3
"285",2759,1,1,1,"false_cond",NA,0,0,4
"286",2759,4,1,1,"false_cond",NA,0,1,5
"287",2759,2,1,1,"false_cond",NA,1,1,6
"288",2759,17,1,1,"false_cond",NA,1,0,7
"289",2759,6,1,1,"false_cond",NA,1,0,8
"290",2759,10,1,1,"false_cond",NA,1,1,9
"291",2759,23,1,1,"false_cond",NA,0,1,10
"292",2759,22,1,1,"false_cond",NA,0,1,11
"293",2759,18,1,1,"false_cond",NA,1,1,12
"294",2759,3,1,1,"false_cond",NA,0,0,13
"295",2759,39,1,1,"false_cond",NA,0,0,14
"296",2759,36,1,1,"false_cond",NA,1,0,15
"297",2759,37,1,1,"false_cond",NA,1,1,16
"298",2759,13,1,1,"false_cond",NA,1,0,17
"299",2759,12,1,1,"false_cond",NA,0,1,18
"300",2759,19,1,1,"false_cond",NA,0,1,19
"301",2759,40,1,1,"false_cond",NA,1,0,20
"302",2759,34,1,1,"false_cond",NA,0,0,21
"303",2759,20,1,1,"false_cond",NA,0,0,22
"304",2759,33,1,1,"false_cond",NA,0,0,23
"305",2759,32,1,1,"false_cond",NA,1,1,24
"306",2759,8,1,1,"false_cond",NA,1,0,25
"307",2759,25,1,1,"false_cond",NA,1,1,26
"308",2759,38,1,1,"false_cond",NA,0,1,27
"309",2759,29,1,1,"false_cond",NA,1,0,28
"310",2759,14,1,1,"false_cond",NA,1,0,29
"311",2759,11,1,1,"false_cond",NA,0,0,30
"312",2759,31,1,1,"false_cond",NA,1,1,31
"313",2759,5,1,1,"false_cond",NA,0,1,32
"314",2759,16,1,1,"false_cond",NA,0,1,33
"315",2759,15,1,1,"false_cond",NA,1,0,34
"316",2759,21,1,1,"false_cond",NA,1,1,35
"317",2759,24,1,1,"false_cond",NA,0,1,36
"318",2759,28,1,1,"false_cond",NA,1,1,37
"319",2759,30,1,1,"false_cond",NA,0,1,38
"320",2759,35,1,1,"false_cond",NA,0,1,39
"321",2758,13,1,1,"truth_cond",NA,1,0,0
"322",2758,34,1,1,"truth_cond",NA,0,0,1
"323",2758,17,1,1,"truth_cond",NA,1,1,2
"324",2758,26,1,1,"truth_cond",NA,1,1,3
"325",2758,31,1,1,"truth_cond",NA,0,0,4
"326",2758,6,1,1,"truth_cond",NA,0,0,5
"327",2758,19,1,1,"truth_cond",NA,1,0,6
"328",2758,10,1,1,"truth_cond",NA,1,1,7
"329",2758,40,1,1,"truth_cond",NA,0,1,8
"330",2758,37,1,1,"truth_cond",NA,1,0,9
"331",2758,32,1,1,"truth_cond",NA,1,1,10
"332",2758,4,1,1,"truth_cond",NA,0,0,11
"333",2758,30,1,1,"truth_cond",NA,1,1,12
"334",2758,24,1,1,"truth_cond",NA,0,1,13
"335",2758,25,1,1,"truth_cond",NA,0,1,14
"336",2758,9,1,1,"truth_cond",NA,1,1,15
"337",2758,2,1,1,"truth_cond",NA,1,1,16
"338",2758,12,1,1,"truth_cond",NA,1,0,17
"339",2758,23,1,1,"truth_cond",NA,0,0,18
"340",2758,28,1,1,"truth_cond",NA,0,1,19
"341",2758,1,1,1,"truth_cond",NA,1,0,20
"342",2758,8,1,1,"truth_cond",NA,1,0,21
"343",2758,35,1,1,"truth_cond",NA,1,0,22
"344",2758,21,1,1,"truth_cond",NA,1,0,23
"345",2758,36,1,1,"truth_cond",NA,0,0,24
"346",2758,14,1,1,"truth_cond",NA,0,0,25
"347",2758,11,1,1,"truth_cond",NA,1,1,26
"348",2758,33,1,1,"truth_cond",NA,1,1,27
"349",2758,18,1,1,"truth_cond",NA,1,1,28
"350",2758,5,1,1,"truth_cond",NA,0,0,29
"351",2758,7,1,1,"truth_cond",NA,1,1,30
"352",2758,15,1,1,"truth_cond",NA,1,1,31
"353",2758,29,1,1,"truth_cond",NA,0,1,32
"354",2758,22,1,1,"truth_cond",NA,0,0,33
"355",2758,16,1,1,"truth_cond",NA,1,0,34
"356",2758,38,1,1,"truth_cond",NA,0,1,35
"357",2758,27,1,1,"truth_cond",NA,1,1,36
"358",2758,20,1,1,"truth_cond",NA,0,1,37
"359",2758,39,1,1,"truth_cond",NA,1,0,38
"360",2758,3,1,1,"truth_cond",NA,1,0,39
"361",2757,40,1,1,"false_cond",NA,0,1,0
"362",2757,2,1,1,"false_cond",NA,1,0,1
"363",2757,31,1,1,"false_cond",NA,0,1,2
"364",2757,18,1,1,"false_cond",NA,1,0,3
"365",2757,35,1,1,"false_cond",NA,0,0,4
"366",2757,15,1,1,"false_cond",NA,0,1,5
"367",2757,16,1,1,"false_cond",NA,0,1,6
"368",2757,22,1,1,"false_cond",NA,0,1,7
"369",2757,36,1,1,"false_cond",NA,0,1,8
"370",2757,29,1,1,"false_cond",NA,1,0,9
"371",2757,6,1,1,"false_cond",NA,1,0,10
"372",2757,19,1,1,"false_cond",NA,0,1,11
"373",2757,24,1,1,"false_cond",NA,1,0,12
"374",2757,21,1,1,"false_cond",NA,1,0,13
"375",2757,17,1,1,"false_cond",NA,0,1,14
"376",2757,38,1,1,"false_cond",NA,1,0,15
"377",2757,8,1,1,"false_cond",NA,1,0,16
"378",2757,11,1,1,"false_cond",NA,1,0,17
"379",2757,27,1,1,"false_cond",NA,0,1,18
"380",2757,37,1,1,"false_cond",NA,1,0,19
"381",2757,9,1,1,"false_cond",NA,1,0,20
"382",2757,3,1,1,"false_cond",NA,0,1,21
"383",2757,30,1,1,"false_cond",NA,0,1,22
"384",2757,14,1,1,"false_cond",NA,0,1,23
"385",2757,33,1,1,"false_cond",NA,1,0,24
"386",2757,32,1,1,"false_cond",NA,0,1,25
"387",2757,13,1,1,"false_cond",NA,0,1,26
"388",2757,4,1,1,"false_cond",NA,0,1,27
"389",2757,12,1,1,"false_cond",NA,0,1,28
"390",2757,10,1,1,"false_cond",NA,0,1,29
"391",2757,39,1,1,"false_cond",NA,1,0,30
"392",2757,1,1,1,"false_cond",NA,1,0,31
"393",2757,7,1,1,"false_cond",NA,1,1,32
"394",2757,34,1,1,"false_cond",NA,1,0,33
"395",2757,23,1,1,"false_cond",NA,1,0,34
"396",2757,20,1,1,"false_cond",NA,1,0,35
"397",2757,5,1,1,"false_cond",NA,1,0,36
"398",2757,25,1,1,"false_cond",NA,0,1,37
"399",2757,26,1,1,"false_cond",NA,0,1,38
"400",2757,28,1,1,"false_cond",NA,1,0,39
"401",2756,26,1,1,"truth_cond",NA,1,1,0
"402",2756,2,1,1,"truth_cond",NA,1,1,1
"403",2756,3,1,1,"truth_cond",NA,1,0,2
"404",2756,7,1,1,"truth_cond",NA,1,1,3
"405",2756,4,1,1,"truth_cond",NA,0,0,4
"406",2756,6,1,1,"truth_cond",NA,0,0,5
"407",2756,28,1,1,"truth_cond",NA,0,0,6
"408",2756,8,1,1,"truth_cond",NA,1,1,7
"409",2756,27,1,1,"truth_cond",NA,1,1,8
"410",2756,39,1,1,"truth_cond",NA,1,0,9
"411",2756,17,1,1,"truth_cond",NA,1,1,10
"412",2756,24,1,1,"truth_cond",NA,1,0,11
"413",2756,38,1,1,"truth_cond",NA,1,1,12
"414",2756,21,1,1,"truth_cond",NA,1,0,13
"415",2756,25,1,1,"truth_cond",NA,0,1,14
"416",2756,19,1,1,"truth_cond",NA,1,1,15
"417",2756,36,1,1,"truth_cond",NA,1,0,16
"418",2756,40,1,1,"truth_cond",NA,0,0,17
"419",2756,16,1,1,"truth_cond",NA,0,0,18
"420",2756,10,1,1,"truth_cond",NA,1,0,19
"421",2756,32,1,1,"truth_cond",NA,1,1,20
"422",2756,1,1,1,"truth_cond",NA,0,0,21
"423",2756,30,1,1,"truth_cond",NA,1,0,22
"424",2756,23,1,1,"truth_cond",NA,0,0,23
"425",2756,37,1,1,"truth_cond",NA,1,1,24
"426",2756,11,1,1,"truth_cond",NA,1,0,25
"427",2756,29,1,1,"truth_cond",NA,1,1,26
"428",2756,13,1,1,"truth_cond",NA,1,1,27
"429",2756,5,1,1,"truth_cond",NA,1,0,28
"430",2756,34,1,1,"truth_cond",NA,1,1,29
"431",2756,9,1,1,"truth_cond",NA,1,1,30
"432",2756,22,1,1,"truth_cond",NA,1,1,31
"433",2756,15,1,1,"truth_cond",NA,1,1,32
"434",2756,33,1,1,"truth_cond",NA,0,1,33
"435",2756,20,1,1,"truth_cond",NA,1,0,34
"436",2756,35,1,1,"truth_cond",NA,1,0,35
"437",2756,12,1,1,"truth_cond",NA,1,0,36
"438",2756,31,1,1,"truth_cond",NA,1,1,37
"439",2756,14,1,1,"truth_cond",NA,0,0,38
"440",2756,18,1,1,"truth_cond",NA,1,1,39
"441",2755,26,1,1,"truth_cond",NA,1,1,0
"442",2755,5,1,1,"truth_cond",NA,0,0,1
"443",2755,14,1,1,"truth_cond",NA,0,0,2
"444",2755,9,1,1,"truth_cond",NA,0,0,3
"445",2755,36,1,1,"truth_cond",NA,0,0,4
"446",2755,6,1,1,"truth_cond",NA,1,1,5
"447",2755,25,1,1,"truth_cond",NA,1,0,6
"448",2755,4,1,1,"truth_cond",NA,0,1,7
"449",2755,10,1,1,"truth_cond",NA,1,1,8
"450",2755,1,1,1,"truth_cond",NA,0,0,9
"451",2755,15,1,1,"truth_cond",NA,0,1,10
"452",2755,11,1,1,"truth_cond",NA,0,0,11
"453",2755,29,1,1,"truth_cond",NA,1,1,12
"454",2755,30,1,1,"truth_cond",NA,1,1,13
"455",2755,28,1,1,"truth_cond",NA,0,1,14
"456",2755,16,1,1,"truth_cond",NA,1,0,15
"457",2755,20,1,1,"truth_cond",NA,0,1,16
"458",2755,23,1,1,"truth_cond",NA,1,0,17
"459",2755,32,1,1,"truth_cond",NA,1,0,18
"460",2755,40,1,1,"truth_cond",NA,0,0,19
"461",2755,31,1,1,"truth_cond",NA,0,0,20
"462",2755,27,1,1,"truth_cond",NA,0,1,21
"463",2755,24,1,1,"truth_cond",NA,1,0,22
"464",2755,12,1,1,"truth_cond",NA,1,0,23
"465",2755,8,1,1,"truth_cond",NA,0,0,24
"466",2755,39,1,1,"truth_cond",NA,0,1,25
"467",2755,35,1,1,"truth_cond",NA,1,0,26
"468",2755,7,1,1,"truth_cond",NA,1,0,27
"469",2755,21,1,1,"truth_cond",NA,1,0,28
"470",2755,34,1,1,"truth_cond",NA,1,1,29
"471",2755,19,1,1,"truth_cond",NA,1,1,30
"472",2755,38,1,1,"truth_cond",NA,0,1,31
"473",2755,22,1,1,"truth_cond",NA,0,1,32
"474",2755,17,1,1,"truth_cond",NA,0,0,33
"475",2755,37,1,1,"truth_cond",NA,1,1,34
"476",2755,2,1,1,"truth_cond",NA,0,1,35
"477",2755,33,1,1,"truth_cond",NA,0,0,36
"478",2755,18,1,1,"truth_cond",NA,1,1,37
"479",2755,13,1,1,"truth_cond",NA,0,1,38
"480",2755,3,1,1,"truth_cond",NA,0,1,39
"481",2729,30,1,1,"truth_cond",NA,0,1,0
"482",2729,37,1,1,"truth_cond",NA,0,0,1
"483",2729,39,1,1,"truth_cond",NA,0,1,2
"484",2729,31,1,1,"truth_cond",NA,0,0,3
"485",2729,27,1,1,"truth_cond",NA,0,0,4
"486",2729,28,1,1,"truth_cond",NA,1,0,5
"487",2729,24,1,1,"truth_cond",NA,1,1,6
"488",2729,2,1,1,"truth_cond",NA,1,1,7
"489",2729,38,1,1,"truth_cond",NA,0,0,8
"490",2729,10,1,1,"truth_cond",NA,0,0,9
"491",2729,19,1,1,"truth_cond",NA,0,0,10
"492",2729,14,1,1,"truth_cond",NA,1,1,11
"493",2729,3,1,1,"truth_cond",NA,1,0,12
"494",2729,22,1,1,"truth_cond",NA,1,1,13
"495",2729,16,1,1,"truth_cond",NA,1,0,14
"496",2729,33,1,1,"truth_cond",NA,1,1,15
"497",2729,8,1,1,"truth_cond",NA,0,1,16
"498",2729,11,1,1,"truth_cond",NA,0,0,17
"499",2729,12,1,1,"truth_cond",NA,1,1,18
"500",2729,25,1,1,"truth_cond",NA,1,0,19
"501",2729,1,1,1,"truth_cond",NA,1,0,20
"502",2729,20,1,1,"truth_cond",NA,0,1,21
"503",2729,9,1,1,"truth_cond",NA,0,1,22
"504",2729,35,1,1,"truth_cond",NA,1,0,23
"505",2729,23,1,1,"truth_cond",NA,1,1,24
"506",2729,4,1,1,"truth_cond",NA,1,1,25
"507",2729,34,1,1,"truth_cond",NA,1,1,26
"508",2729,13,1,1,"truth_cond",NA,0,0,27
"509",2729,36,1,1,"truth_cond",NA,1,1,28
"510",2729,7,1,1,"truth_cond",NA,0,1,29
"511",2729,17,1,1,"truth_cond",NA,0,1,30
"512",2729,26,1,1,"truth_cond",NA,0,0,31
"513",2729,6,1,1,"truth_cond",NA,1,0,32
"514",2729,29,1,1,"truth_cond",NA,1,0,33
"515",2729,21,1,1,"truth_cond",NA,1,0,34
"516",2729,18,1,1,"truth_cond",NA,1,1,35
"517",2729,40,1,1,"truth_cond",NA,1,0,36
"518",2729,15,1,1,"truth_cond",NA,0,0,37
"519",2729,5,1,1,"truth_cond",NA,0,1,38
"520",2729,32,1,1,"truth_cond",NA,1,1,39
"521",2754,33,1,1,"false_cond",NA,1,1,0
"522",2754,8,1,1,"false_cond",NA,1,0,1
"523",2754,29,1,1,"false_cond",NA,0,1,2
"524",2754,6,1,1,"false_cond",NA,0,0,3
"525",2754,14,1,1,"false_cond",NA,1,0,4
"526",2754,7,1,1,"false_cond",NA,0,0,5
"527",2754,22,1,1,"false_cond",NA,0,1,6
"528",2754,38,1,1,"false_cond",NA,1,0,7
"529",2754,40,1,1,"false_cond",NA,0,1,8
"530",2754,23,1,1,"false_cond",NA,0,1,9
"531",2754,27,1,1,"false_cond",NA,1,1,10
"532",2754,31,1,1,"false_cond",NA,0,0,11
"533",2754,30,1,1,"false_cond",NA,1,0,12
"534",2754,5,1,1,"false_cond",NA,0,1,13
"535",2754,18,1,1,"false_cond",NA,0,1,14
"536",2754,1,1,1,"false_cond",NA,0,0,15
"537",2754,12,1,1,"false_cond",NA,0,0,16
"538",2754,32,1,1,"false_cond",NA,0,0,17
"539",2754,21,1,1,"false_cond",NA,1,0,18
"540",2754,20,1,1,"false_cond",NA,0,1,19
"541",2754,28,1,1,"false_cond",NA,0,0,20
"542",2754,13,1,1,"false_cond",NA,0,1,21
"543",2754,36,1,1,"false_cond",NA,1,0,22
"544",2754,26,1,1,"false_cond",NA,0,1,23
"545",2754,4,1,1,"false_cond",NA,0,0,24
"546",2754,17,1,1,"false_cond",NA,0,0,25
"547",2754,16,1,1,"false_cond",NA,1,1,26
"548",2754,35,1,1,"false_cond",NA,0,0,27
"549",2754,39,1,1,"false_cond",NA,1,1,28
"550",2754,2,1,1,"false_cond",NA,1,1,29
"551",2754,25,1,1,"false_cond",NA,0,0,30
"552",2754,3,1,1,"false_cond",NA,0,1,31
"553",2754,10,1,1,"false_cond",NA,1,0,32
"554",2754,9,1,1,"false_cond",NA,1,1,33
"555",2754,34,1,1,"false_cond",NA,0,1,34
"556",2754,15,1,1,"false_cond",NA,0,0,35
"557",2754,11,1,1,"false_cond",NA,0,1,36
"558",2754,24,1,1,"false_cond",NA,1,1,37
"559",2754,19,1,1,"false_cond",NA,0,1,38
"560",2754,37,1,1,"false_cond",NA,1,0,39
"561",2752,1,1,1,"false_cond",NA,1,1,0
"562",2752,34,1,1,"false_cond",NA,1,0,1
"563",2752,35,1,1,"false_cond",NA,0,0,2
"564",2752,37,1,1,"false_cond",NA,0,1,3
"565",2752,17,1,1,"false_cond",NA,0,1,4
"566",2752,16,1,1,"false_cond",NA,0,1,5
"567",2752,13,1,1,"false_cond",NA,1,0,6
"568",2752,25,1,1,"false_cond",NA,0,1,7
"569",2752,24,1,1,"false_cond",NA,0,1,8
"570",2752,29,1,1,"false_cond",NA,1,1,9
"571",2752,36,1,1,"false_cond",NA,1,0,10
"572",2752,23,1,1,"false_cond",NA,1,0,11
"573",2752,30,1,1,"false_cond",NA,0,1,12
"574",2752,8,1,1,"false_cond",NA,0,0,13
"575",2752,28,1,1,"false_cond",NA,1,1,14
"576",2752,14,1,1,"false_cond",NA,0,1,15
"577",2752,22,1,1,"false_cond",NA,0,0,16
"578",2752,18,1,1,"false_cond",NA,0,1,17
"579",2752,38,1,1,"false_cond",NA,1,1,18
"580",2752,33,1,1,"false_cond",NA,0,0,19
"581",2752,40,1,1,"false_cond",NA,0,0,20
"582",2752,7,1,1,"false_cond",NA,0,0,21
"583",2752,5,1,1,"false_cond",NA,0,0,22
"584",2752,21,1,1,"false_cond",NA,0,1,23
"585",2752,15,1,1,"false_cond",NA,0,1,24
"586",2752,11,1,1,"false_cond",NA,1,0,25
"587",2752,2,1,1,"false_cond",NA,1,1,26
"588",2752,4,1,1,"false_cond",NA,1,1,27
"589",2752,27,1,1,"false_cond",NA,0,1,28
"590",2752,19,1,1,"false_cond",NA,0,0,29
"591",2752,32,1,1,"false_cond",NA,0,1,30
"592",2752,20,1,1,"false_cond",NA,0,0,31
"593",2752,6,1,1,"false_cond",NA,0,0,32
"594",2752,39,1,1,"false_cond",NA,0,0,33
"595",2752,26,1,1,"false_cond",NA,0,1,34
"596",2752,31,1,1,"false_cond",NA,0,0,35
"597",2752,10,1,1,"false_cond",NA,0,0,36
"598",2752,12,1,1,"false_cond",NA,0,1,37
"599",2752,9,1,1,"false_cond",NA,1,0,38
"600",2752,3,1,1,"false_cond",NA,1,0,39
"601",2751,15,1,1,"truth_cond",NA,1,1,0
"602",2751,11,1,1,"truth_cond",NA,0,0,1
"603",2751,26,1,1,"truth_cond",NA,1,1,2
"604",2751,40,1,1,"truth_cond",NA,0,0,3
"605",2751,16,1,1,"truth_cond",NA,0,0,4
"606",2751,12,1,1,"truth_cond",NA,1,1,5
"607",2751,18,1,1,"truth_cond",NA,0,0,6
"608",2751,17,1,1,"truth_cond",NA,1,1,7
"609",2751,21,1,1,"truth_cond",NA,0,0,8
"610",2751,25,1,1,"truth_cond",NA,1,1,9
"611",2751,30,1,1,"truth_cond",NA,1,1,10
"612",2751,6,1,1,"truth_cond",NA,0,0,11
"613",2751,35,1,1,"truth_cond",NA,1,1,12
"614",2751,39,1,1,"truth_cond",NA,0,0,13
"615",2751,34,1,1,"truth_cond",NA,1,1,14
"616",2751,23,1,1,"truth_cond",NA,0,0,15
"617",2751,2,1,1,"truth_cond",NA,0,0,16
"618",2751,24,1,1,"truth_cond",NA,0,0,17
"619",2751,33,1,1,"truth_cond",NA,0,0,18
"620",2751,27,1,1,"truth_cond",NA,1,1,19
"621",2751,1,1,1,"truth_cond",NA,1,1,20
"622",2751,20,1,1,"truth_cond",NA,0,0,21
"623",2751,7,1,1,"truth_cond",NA,0,0,22
"624",2751,3,1,1,"truth_cond",NA,1,1,23
"625",2751,29,1,1,"truth_cond",NA,1,1,24
"626",2751,8,1,1,"truth_cond",NA,1,1,25
"627",2751,19,1,1,"truth_cond",NA,0,0,26
"628",2751,22,1,1,"truth_cond",NA,0,0,27
"629",2751,37,1,1,"truth_cond",NA,1,1,28
"630",2751,32,1,1,"truth_cond",NA,0,0,29
"631",2751,38,1,1,"truth_cond",NA,1,1,30
"632",2751,31,1,1,"truth_cond",NA,0,0,31
"633",2751,36,1,1,"truth_cond",NA,0,0,32
"634",2751,4,1,1,"truth_cond",NA,1,1,33
"635",2751,14,1,1,"truth_cond",NA,1,1,34
"636",2751,28,1,1,"truth_cond",NA,1,0,35
"637",2751,13,1,1,"truth_cond",NA,0,0,36
"638",2751,9,1,1,"truth_cond",NA,1,1,37
"639",2751,10,1,1,"truth_cond",NA,1,1,38
"640",2751,5,1,1,"truth_cond",NA,1,1,39
"641",2749,39,1,1,"false_cond",NA,1,0,0
"642",2749,15,1,1,"false_cond",NA,1,1,1
"643",2749,20,1,1,"false_cond",NA,1,0,2
"644",2749,16,1,1,"false_cond",NA,1,0,3
"645",2749,6,1,1,"false_cond",NA,1,0,4
"646",2749,17,1,1,"false_cond",NA,0,1,5
"647",2749,21,1,1,"false_cond",NA,1,0,6
"648",2749,12,1,1,"false_cond",NA,0,1,7
"649",2749,36,1,1,"false_cond",NA,0,1,8
"650",2749,27,1,1,"false_cond",NA,0,1,9
"651",2749,40,1,1,"false_cond",NA,1,0,10
"652",2749,8,1,1,"false_cond",NA,1,0,11
"653",2749,34,1,1,"false_cond",NA,0,1,12
"654",2749,9,1,1,"false_cond",NA,1,0,13
"655",2749,28,1,1,"false_cond",NA,1,0,14
"656",2749,5,1,1,"false_cond",NA,0,1,15
"657",2749,1,1,1,"false_cond",NA,0,1,16
"658",2749,25,1,1,"false_cond",NA,1,0,17
"659",2749,22,1,1,"false_cond",NA,0,1,18
"660",2749,18,1,1,"false_cond",NA,0,1,19
"661",2749,31,1,1,"false_cond",NA,0,1,20
"662",2749,26,1,1,"false_cond",NA,1,0,21
"663",2749,37,1,1,"false_cond",NA,0,1,22
"664",2749,19,1,1,"false_cond",NA,0,1,23
"665",2749,7,1,1,"false_cond",NA,0,1,24
"666",2749,33,1,1,"false_cond",NA,1,0,25
"667",2749,14,1,1,"false_cond",NA,1,0,26
"668",2749,23,1,1,"false_cond",NA,0,1,27
"669",2749,29,1,1,"false_cond",NA,1,0,28
"670",2749,4,1,1,"false_cond",NA,0,0,29
"671",2749,35,1,1,"false_cond",NA,0,1,30
"672",2749,10,1,1,"false_cond",NA,1,0,31
"673",2749,30,1,1,"false_cond",NA,1,0,32
"674",2749,2,1,1,"false_cond",NA,1,1,33
"675",2749,32,1,1,"false_cond",NA,0,1,34
"676",2749,11,1,1,"false_cond",NA,1,0,35
"677",2749,38,1,1,"false_cond",NA,1,0,36
"678",2749,13,1,1,"false_cond",NA,0,1,37
"679",2749,3,1,1,"false_cond",NA,1,0,38
"680",2749,24,1,1,"false_cond",NA,0,1,39
"681",2748,21,1,1,"truth_cond",NA,1,0,0
"682",2748,35,1,1,"truth_cond",NA,1,1,1
"683",2748,18,1,1,"truth_cond",NA,1,0,2
"684",2748,22,1,1,"truth_cond",NA,1,1,3
"685",2748,14,1,1,"truth_cond",NA,1,0,4
"686",2748,2,1,1,"truth_cond",NA,1,1,5
"687",2748,30,1,1,"truth_cond",NA,0,1,6
"688",2748,13,1,1,"truth_cond",NA,0,1,7
"689",2748,32,1,1,"truth_cond",NA,1,0,8
"690",2748,3,1,1,"truth_cond",NA,1,1,9
"691",2748,11,1,1,"truth_cond",NA,0,0,10
"692",2748,1,1,1,"truth_cond",NA,1,0,11
"693",2748,12,1,1,"truth_cond",NA,0,0,12
"694",2748,7,1,1,"truth_cond",NA,1,1,13
"695",2748,33,1,1,"truth_cond",NA,0,1,14
"696",2748,9,1,1,"truth_cond",NA,0,0,15
"697",2748,29,1,1,"truth_cond",NA,0,0,16
"698",2748,27,1,1,"truth_cond",NA,1,0,17
"699",2748,38,1,1,"truth_cond",NA,0,1,18
"700",2748,19,1,1,"truth_cond",NA,1,0,19
"701",2748,28,1,1,"truth_cond",NA,0,1,20
"702",2748,17,1,1,"truth_cond",NA,1,0,21
"703",2748,4,1,1,"truth_cond",NA,1,0,22
"704",2748,26,1,1,"truth_cond",NA,1,1,23
"705",2748,36,1,1,"truth_cond",NA,1,0,24
"706",2748,24,1,1,"truth_cond",NA,0,1,25
"707",2748,31,1,1,"truth_cond",NA,1,1,26
"708",2748,20,1,1,"truth_cond",NA,1,0,27
"709",2748,16,1,1,"truth_cond",NA,1,0,28
"710",2748,5,1,1,"truth_cond",NA,0,1,29
"711",2748,6,1,1,"truth_cond",NA,0,1,30
"712",2748,37,1,1,"truth_cond",NA,0,0,31
"713",2748,23,1,1,"truth_cond",NA,0,0,32
"714",2748,15,1,1,"truth_cond",NA,1,1,33
"715",2748,10,1,1,"truth_cond",NA,1,1,34
"716",2748,39,1,1,"truth_cond",NA,1,1,35
"717",2748,8,1,1,"truth_cond",NA,1,1,36
"718",2748,25,1,1,"truth_cond",NA,1,0,37
"719",2748,34,1,1,"truth_cond",NA,1,1,38
"720",2748,40,1,1,"truth_cond",NA,0,0,39
"721",2747,33,1,1,"truth_cond",NA,0,1,0
"722",2747,31,1,1,"truth_cond",NA,1,0,1
"723",2747,38,1,1,"truth_cond",NA,0,1,2
"724",2747,11,1,1,"truth_cond",NA,0,0,3
"725",2747,15,1,1,"truth_cond",NA,1,0,4
"726",2747,29,1,1,"truth_cond",NA,0,0,5
"727",2747,13,1,1,"truth_cond",NA,1,0,6
"728",2747,19,1,1,"truth_cond",NA,0,0,7
"729",2747,36,1,1,"truth_cond",NA,1,1,8
"730",2747,20,1,1,"truth_cond",NA,1,0,9
"731",2747,16,1,1,"truth_cond",NA,1,1,10
"732",2747,35,1,1,"truth_cond",NA,1,0,11
"733",2747,32,1,1,"truth_cond",NA,1,1,12
"734",2747,12,1,1,"truth_cond",NA,0,1,13
"735",2747,24,1,1,"truth_cond",NA,0,0,14
"736",2747,5,1,1,"truth_cond",NA,0,0,15
"737",2747,25,1,1,"truth_cond",NA,1,0,16
"738",2747,6,1,1,"truth_cond",NA,0,1,17
"739",2747,30,1,1,"truth_cond",NA,1,1,18
"740",2747,21,1,1,"truth_cond",NA,0,1,19
"741",2747,39,1,1,"truth_cond",NA,0,1,20
"742",2747,7,1,1,"truth_cond",NA,0,0,21
"743",2747,2,1,1,"truth_cond",NA,1,0,22
"744",2747,17,1,1,"truth_cond",NA,0,1,23
"745",2747,37,1,1,"truth_cond",NA,0,1,24
"746",2747,9,1,1,"truth_cond",NA,0,1,25
"747",2747,3,1,1,"truth_cond",NA,1,1,26
"748",2747,23,1,1,"truth_cond",NA,0,1,27
"749",2747,27,1,1,"truth_cond",NA,0,0,28
"750",2747,28,1,1,"truth_cond",NA,0,0,29
"751",2747,40,1,1,"truth_cond",NA,0,0,30
"752",2747,4,1,1,"truth_cond",NA,1,0,31
"753",2747,10,1,1,"truth_cond",NA,1,0,32
"754",2747,26,1,1,"truth_cond",NA,0,1,33
"755",2747,18,1,1,"truth_cond",NA,0,0,34
"756",2747,34,1,1,"truth_cond",NA,1,0,35
"757",2747,8,1,1,"truth_cond",NA,0,1,36
"758",2747,1,1,1,"truth_cond",NA,0,1,37
"759",2747,14,1,1,"truth_cond",NA,0,1,38
"760",2747,22,1,1,"truth_cond",NA,1,1,39
"761",2746,20,1,1,"truth_cond",NA,1,0,0
"762",2746,28,1,1,"truth_cond",NA,0,1,1
"763",2746,8,1,1,"truth_cond",NA,0,1,2
"764",2746,24,1,1,"truth_cond",NA,1,0,3
"765",2746,35,1,1,"truth_cond",NA,0,0,4
"766",2746,22,1,1,"truth_cond",NA,1,0,5
"767",2746,1,1,1,"truth_cond",NA,1,1,6
"768",2746,30,1,1,"truth_cond",NA,0,0,7
"769",2746,40,1,1,"truth_cond",NA,0,1,8
"770",2746,23,1,1,"truth_cond",NA,1,0,9
"771",2746,39,1,1,"truth_cond",NA,0,0,10
"772",2746,32,1,1,"truth_cond",NA,1,1,11
"773",2746,33,1,1,"truth_cond",NA,0,1,12
"774",2746,17,1,1,"truth_cond",NA,1,1,13
"775",2746,11,1,1,"truth_cond",NA,1,1,14
"776",2746,21,1,1,"truth_cond",NA,1,1,15
"777",2746,15,1,1,"truth_cond",NA,1,1,16
"778",2746,36,1,1,"truth_cond",NA,0,1,17
"779",2746,18,1,1,"truth_cond",NA,1,0,18
"780",2746,27,1,1,"truth_cond",NA,0,0,19
"781",2746,19,1,1,"truth_cond",NA,1,1,20
"782",2746,14,1,1,"truth_cond",NA,0,1,21
"783",2746,13,1,1,"truth_cond",NA,1,0,22
"784",2746,7,1,1,"truth_cond",NA,0,1,23
"785",2746,3,1,1,"truth_cond",NA,1,0,24
"786",2746,31,1,1,"truth_cond",NA,1,0,25
"787",2746,29,1,1,"truth_cond",NA,0,0,26
"788",2746,6,1,1,"truth_cond",NA,1,1,27
"789",2746,25,1,1,"truth_cond",NA,1,0,28
"790",2746,5,1,1,"truth_cond",NA,1,0,29
"791",2746,26,1,1,"truth_cond",NA,1,1,30
"792",2746,16,1,1,"truth_cond",NA,1,1,31
"793",2746,12,1,1,"truth_cond",NA,1,0,32
"794",2746,2,1,1,"truth_cond",NA,1,0,33
"795",2746,4,1,1,"truth_cond",NA,1,0,34
"796",2746,38,1,1,"truth_cond",NA,0,0,35
"797",2746,34,1,1,"truth_cond",NA,1,1,36
"798",2746,10,1,1,"truth_cond",NA,1,1,37
"799",2746,37,1,1,"truth_cond",NA,0,0,38
"800",2746,9,1,1,"truth_cond",NA,1,1,39
"801",2745,11,1,1,"false_cond",NA,1,1,0
"802",2745,27,1,1,"false_cond",NA,0,1,1
"803",2745,38,1,1,"false_cond",NA,0,1,2
"804",2745,21,1,1,"false_cond",NA,1,0,3
"805",2745,3,1,1,"false_cond",NA,0,1,4
"806",2745,4,1,1,"false_cond",NA,0,0,5
"807",2745,24,1,1,"false_cond",NA,1,1,6
"808",2745,10,1,1,"false_cond",NA,0,0,7
"809",2745,15,1,1,"false_cond",NA,0,1,8
"810",2745,37,1,1,"false_cond",NA,1,1,9
"811",2745,36,1,1,"false_cond",NA,0,0,10
"812",2745,12,1,1,"false_cond",NA,0,0,11
"813",2745,5,1,1,"false_cond",NA,1,1,12
"814",2745,30,1,1,"false_cond",NA,0,1,13
"815",2745,19,1,1,"false_cond",NA,1,1,14
"816",2745,25,1,1,"false_cond",NA,0,0,15
"817",2745,9,1,1,"false_cond",NA,1,1,16
"818",2745,18,1,1,"false_cond",NA,1,0,17
"819",2745,7,1,1,"false_cond",NA,0,0,18
"820",2745,28,1,1,"false_cond",NA,0,0,19
"821",2745,2,1,1,"false_cond",NA,0,1,20
"822",2745,39,1,1,"false_cond",NA,1,0,21
"823",2745,20,1,1,"false_cond",NA,0,0,22
"824",2745,23,1,1,"false_cond",NA,1,0,23
"825",2745,40,1,1,"false_cond",NA,0,0,24
"826",2745,8,1,1,"false_cond",NA,1,1,25
"827",2745,35,1,1,"false_cond",NA,0,1,26
"828",2745,16,1,1,"false_cond",NA,0,0,27
"829",2745,1,1,1,"false_cond",NA,1,1,28
"830",2745,22,1,1,"false_cond",NA,0,0,29
"831",2745,17,1,1,"false_cond",NA,1,0,30
"832",2745,6,1,1,"false_cond",NA,0,0,31
"833",2745,33,1,1,"false_cond",NA,0,0,32
"834",2745,32,1,1,"false_cond",NA,1,1,33
"835",2745,34,1,1,"false_cond",NA,1,1,34
"836",2745,29,1,1,"false_cond",NA,0,1,35
"837",2745,13,1,1,"false_cond",NA,0,0,36
"838",2745,14,1,1,"false_cond",NA,1,1,37
"839",2745,26,1,1,"false_cond",NA,0,0,38
"840",2745,31,1,1,"false_cond",NA,1,1,39
"841",2744,31,1,1,"truth_cond",NA,0,0,0
"842",2744,2,1,1,"truth_cond",NA,0,1,1
"843",2744,18,1,1,"truth_cond",NA,1,0,2
"844",2744,35,1,1,"truth_cond",NA,0,0,3
"845",2744,19,1,1,"truth_cond",NA,1,1,4
"846",2744,34,1,1,"truth_cond",NA,1,1,5
"847",2744,32,1,1,"truth_cond",NA,0,1,6
"848",2744,8,1,1,"truth_cond",NA,0,0,7
"849",2744,15,1,1,"truth_cond",NA,1,1,8
"850",2744,12,1,1,"truth_cond",NA,1,0,9
"851",2744,13,1,1,"truth_cond",NA,0,0,10
"852",2744,6,1,1,"truth_cond",NA,1,0,11
"853",2744,23,1,1,"truth_cond",NA,0,0,12
"854",2744,22,1,1,"truth_cond",NA,1,1,13
"855",2744,38,1,1,"truth_cond",NA,1,1,14
"856",2744,21,1,1,"truth_cond",NA,0,1,15
"857",2744,24,1,1,"truth_cond",NA,1,1,16
"858",2744,1,1,1,"truth_cond",NA,1,1,17
"859",2744,40,1,1,"truth_cond",NA,1,1,18
"860",2744,27,1,1,"truth_cond",NA,0,1,19
"861",2744,33,1,1,"truth_cond",NA,1,1,20
"862",2744,14,1,1,"truth_cond",NA,0,1,21
"863",2744,17,1,1,"truth_cond",NA,1,0,22
"864",2744,37,1,1,"truth_cond",NA,1,0,23
"865",2744,10,1,1,"truth_cond",NA,0,0,24
"866",2744,5,1,1,"truth_cond",NA,0,0,25
"867",2744,9,1,1,"truth_cond",NA,1,0,26
"868",2744,3,1,1,"truth_cond",NA,0,1,27
"869",2744,7,1,1,"truth_cond",NA,1,0,28
"870",2744,16,1,1,"truth_cond",NA,0,0,29
"871",2744,26,1,1,"truth_cond",NA,0,1,30
"872",2744,28,1,1,"truth_cond",NA,1,1,31
"873",2744,20,1,1,"truth_cond",NA,1,0,32
"874",2744,4,1,1,"truth_cond",NA,0,1,33
"875",2744,39,1,1,"truth_cond",NA,1,0,34
"876",2744,30,1,1,"truth_cond",NA,1,0,35
"877",2744,29,1,1,"truth_cond",NA,1,1,36
"878",2744,25,1,1,"truth_cond",NA,1,1,37
"879",2744,11,1,1,"truth_cond",NA,1,0,38
"880",2744,36,1,1,"truth_cond",NA,0,0,39
"881",2743,16,1,1,"false_cond",NA,1,0,0
"882",2743,28,1,1,"false_cond",NA,0,0,1
"883",2743,33,1,1,"false_cond",NA,1,1,2
"884",2743,34,1,1,"false_cond",NA,0,0,3
"885",2743,24,1,1,"false_cond",NA,0,1,4
"886",2743,19,1,1,"false_cond",NA,1,1,5
"887",2743,39,1,1,"false_cond",NA,1,1,6
"888",2743,38,1,1,"false_cond",NA,1,1,7
"889",2743,11,1,1,"false_cond",NA,0,0,8
"890",2743,9,1,1,"false_cond",NA,1,1,9
"891",2743,36,1,1,"false_cond",NA,1,0,10
"892",2743,26,1,1,"false_cond",NA,1,1,11
"893",2743,15,1,1,"false_cond",NA,1,1,12
"894",2743,14,1,1,"false_cond",NA,1,0,13
"895",2743,21,1,1,"false_cond",NA,1,0,14
"896",2743,7,1,1,"false_cond",NA,0,0,15
"897",2743,8,1,1,"false_cond",NA,0,0,16
"898",2743,2,1,1,"false_cond",NA,0,1,17
"899",2743,4,1,1,"false_cond",NA,1,1,18
"900",2743,32,1,1,"false_cond",NA,0,0,19
"901",2743,1,1,1,"false_cond",NA,1,0,20
"902",2743,12,1,1,"false_cond",NA,1,1,21
"903",2743,5,1,1,"false_cond",NA,1,0,22
"904",2743,29,1,1,"false_cond",NA,1,1,23
"905",2743,10,1,1,"false_cond",NA,1,1,24
"906",2743,13,1,1,"false_cond",NA,0,1,25
"907",2743,6,1,1,"false_cond",NA,1,0,26
"908",2743,18,1,1,"false_cond",NA,1,1,27
"909",2743,40,1,1,"false_cond",NA,1,0,28
"910",2743,22,1,1,"false_cond",NA,0,0,29
"911",2743,27,1,1,"false_cond",NA,0,0,30
"912",2743,35,1,1,"false_cond",NA,1,0,31
"913",2743,31,1,1,"false_cond",NA,1,1,32
"914",2743,23,1,1,"false_cond",NA,1,0,33
"915",2743,37,1,1,"false_cond",NA,0,1,34
"916",2743,25,1,1,"false_cond",NA,0,1,35
"917",2743,3,1,1,"false_cond",NA,1,0,36
"918",2743,17,1,1,"false_cond",NA,1,1,37
"919",2743,30,1,1,"false_cond",NA,1,0,38
"920",2743,20,1,1,"false_cond",NA,1,1,39
"921",2742,32,1,1,"false_cond",NA,1,0,0
"922",2742,40,1,1,"false_cond",NA,0,1,1
"923",2742,20,1,1,"false_cond",NA,1,0,2
"924",2742,11,1,1,"false_cond",NA,1,1,3
"925",2742,38,1,1,"false_cond",NA,1,1,4
"926",2742,15,1,1,"false_cond",NA,1,0,5
"927",2742,9,1,1,"false_cond",NA,0,0,6
"928",2742,28,1,1,"false_cond",NA,1,0,7
"929",2742,19,1,1,"false_cond",NA,0,0,8
"930",2742,29,1,1,"false_cond",NA,0,1,9
"931",2742,13,1,1,"false_cond",NA,0,0,10
"932",2742,23,1,1,"false_cond",NA,0,0,11
"933",2742,30,1,1,"false_cond",NA,1,0,12
"934",2742,25,1,1,"false_cond",NA,1,0,13
"935",2742,37,1,1,"false_cond",NA,0,1,14
"936",2742,33,1,1,"false_cond",NA,0,1,15
"937",2742,24,1,1,"false_cond",NA,1,1,16
"938",2742,4,1,1,"false_cond",NA,0,1,17
"939",2742,16,1,1,"false_cond",NA,0,0,18
"940",2742,31,1,1,"false_cond",NA,1,1,19
"941",2742,34,1,1,"false_cond",NA,1,1,20
"942",2742,14,1,1,"false_cond",NA,1,0,21
"943",2742,27,1,1,"false_cond",NA,1,0,22
"944",2742,2,1,1,"false_cond",NA,0,1,23
"945",2742,26,1,1,"false_cond",NA,0,1,24
"946",2742,36,1,1,"false_cond",NA,0,1,25
"947",2742,21,1,1,"false_cond",NA,1,1,26
"948",2742,39,1,1,"false_cond",NA,0,0,27
"949",2742,5,1,1,"false_cond",NA,0,1,28
"950",2742,17,1,1,"false_cond",NA,1,1,29
"951",2742,10,1,1,"false_cond",NA,1,0,30
"952",2742,8,1,1,"false_cond",NA,0,0,31
"953",2742,22,1,1,"false_cond",NA,0,0,32
"954",2742,7,1,1,"false_cond",NA,0,1,33
"955",2742,3,1,1,"false_cond",NA,0,1,34
"956",2742,6,1,1,"false_cond",NA,1,0,35
"957",2742,12,1,1,"false_cond",NA,0,1,36
"958",2742,18,1,1,"false_cond",NA,1,0,37
"959",2742,35,1,1,"false_cond",NA,1,1,38
"960",2742,1,1,1,"false_cond",NA,0,0,39
"961",2741,37,1,1,"false_cond",NA,0,1,0
"962",2741,9,1,1,"false_cond",NA,1,0,1
"963",2741,38,1,1,"false_cond",NA,1,1,2
"964",2741,33,1,1,"false_cond",NA,0,0,3
"965",2741,8,1,1,"false_cond",NA,1,1,4
"966",2741,14,1,1,"false_cond",NA,0,1,5
"967",2741,24,1,1,"false_cond",NA,1,0,6
"968",2741,34,1,1,"false_cond",NA,1,0,7
"969",2741,39,1,1,"false_cond",NA,1,0,8
"970",2741,21,1,1,"false_cond",NA,0,1,9
"971",2741,30,1,1,"false_cond",NA,0,1,10
"972",2741,31,1,1,"false_cond",NA,1,0,11
"973",2741,40,1,1,"false_cond",NA,1,0,12
"974",2741,36,1,1,"false_cond",NA,1,0,13
"975",2741,10,1,1,"false_cond",NA,1,0,14
"976",2741,23,1,1,"false_cond",NA,0,0,15
"977",2741,11,1,1,"false_cond",NA,1,0,16
"978",2741,7,1,1,"false_cond",NA,0,0,17
"979",2741,4,1,1,"false_cond",NA,1,1,18
"980",2741,3,1,1,"false_cond",NA,0,1,19
"981",2741,26,1,1,"false_cond",NA,0,0,20
"982",2741,19,1,1,"false_cond",NA,0,1,21
"983",2741,6,1,1,"false_cond",NA,1,0,22
"984",2741,5,1,1,"false_cond",NA,0,1,23
"985",2741,2,1,1,"false_cond",NA,0,0,24
"986",2741,29,1,1,"false_cond",NA,0,1,25
"987",2741,25,1,1,"false_cond",NA,1,0,26
"988",2741,20,1,1,"false_cond",NA,1,1,27
"989",2741,13,1,1,"false_cond",NA,1,1,28
"990",2741,35,1,1,"false_cond",NA,1,1,29
"991",2741,15,1,1,"false_cond",NA,1,1,30
"992",2741,12,1,1,"false_cond",NA,1,1,31
"993",2741,27,1,1,"false_cond",NA,0,1,32
"994",2741,32,1,1,"false_cond",NA,1,1,33
"995",2741,16,1,1,"false_cond",NA,1,0,34
"996",2741,1,1,1,"false_cond",NA,1,0,35
"997",2741,18,1,1,"false_cond",NA,1,0,36
"998",2741,28,1,1,"false_cond",NA,0,1,37
"999",2741,22,1,1,"false_cond",NA,1,1,38
"1000",2741,17,1,1,"false_cond",NA,1,0,39
"1001",2738,2,1,1,"false_cond",NA,1,1,0
"1002",2738,30,1,1,"false_cond",NA,1,1,1
"1003",2738,32,1,1,"false_cond",NA,0,0,2
"1004",2738,38,1,1,"false_cond",NA,0,1,3
"1005",2738,17,1,1,"false_cond",NA,0,0,4
"1006",2738,35,1,1,"false_cond",NA,1,0,5
"1007",2738,14,1,1,"false_cond",NA,1,0,6
"1008",2738,20,1,1,"false_cond",NA,1,1,7
"1009",2738,15,1,1,"false_cond",NA,0,1,8
"1010",2738,11,1,1,"false_cond",NA,1,0,9
"1011",2738,36,1,1,"false_cond",NA,0,0,10
"1012",2738,10,1,1,"false_cond",NA,0,0,11
"1013",2738,7,1,1,"false_cond",NA,1,0,12
"1014",2738,1,1,1,"false_cond",NA,1,1,13
"1015",2738,24,1,1,"false_cond",NA,0,1,14
"1016",2738,22,1,1,"false_cond",NA,0,1,15
"1017",2738,13,1,1,"false_cond",NA,0,0,16
"1018",2738,26,1,1,"false_cond",NA,1,1,17
"1019",2738,3,1,1,"false_cond",NA,1,1,18
"1020",2738,37,1,1,"false_cond",NA,1,1,19
"1021",2738,25,1,1,"false_cond",NA,0,0,20
"1022",2738,9,1,1,"false_cond",NA,0,0,21
"1023",2738,8,1,1,"false_cond",NA,0,0,22
"1024",2738,19,1,1,"false_cond",NA,1,0,23
"1025",2738,28,1,1,"false_cond",NA,0,0,24
"1026",2738,23,1,1,"false_cond",NA,0,1,25
"1027",2738,33,1,1,"false_cond",NA,1,1,26
"1028",2738,27,1,1,"false_cond",NA,0,0,27
"1029",2738,18,1,1,"false_cond",NA,1,0,28
"1030",2738,31,1,1,"false_cond",NA,1,0,29
"1031",2738,34,1,1,"false_cond",NA,0,0,30
"1032",2738,21,1,1,"false_cond",NA,1,1,31
"1033",2738,5,1,1,"false_cond",NA,1,1,32
"1034",2738,4,1,1,"false_cond",NA,0,1,33
"1035",2738,29,1,1,"false_cond",NA,0,0,34
"1036",2738,16,1,1,"false_cond",NA,1,1,35
"1037",2738,40,1,1,"false_cond",NA,0,1,36
"1038",2738,6,1,1,"false_cond",NA,1,1,37
"1039",2738,39,1,1,"false_cond",NA,1,0,38
"1040",2738,12,1,1,"false_cond",NA,1,1,39
"1041",2737,4,1,1,"truth_cond",NA,0,0,0
"1042",2737,19,1,1,"truth_cond",NA,0,1,1
"1043",2737,8,1,1,"truth_cond",NA,1,1,2
"1044",2737,25,1,1,"truth_cond",NA,1,1,3
"1045",2737,32,1,1,"truth_cond",NA,1,1,4
"1046",2737,28,1,1,"truth_cond",NA,1,1,5
"1047",2737,23,1,1,"truth_cond",NA,0,0,6
"1048",2737,1,1,1,"truth_cond",NA,0,0,7
"1049",2737,31,1,1,"truth_cond",NA,1,1,8
"1050",2737,38,1,1,"truth_cond",NA,1,0,9
"1051",2737,26,1,1,"truth_cond",NA,0,0,10
"1052",2737,7,1,1,"truth_cond",NA,1,1,11
"1053",2737,20,1,1,"truth_cond",NA,1,0,12
"1054",2737,29,1,1,"truth_cond",NA,0,0,13
"1055",2737,37,1,1,"truth_cond",NA,1,1,14
"1056",2737,39,1,1,"truth_cond",NA,1,1,15
"1057",2737,34,1,1,"truth_cond",NA,1,0,16
"1058",2737,22,1,1,"truth_cond",NA,1,0,17
"1059",2737,33,1,1,"truth_cond",NA,0,0,18
"1060",2737,21,1,1,"truth_cond",NA,0,0,19
"1061",2737,9,1,1,"truth_cond",NA,1,1,20
"1062",2737,27,1,1,"truth_cond",NA,0,0,21
"1063",2737,30,1,1,"truth_cond",NA,0,0,22
"1064",2737,5,1,1,"truth_cond",NA,0,0,23
"1065",2737,12,1,1,"truth_cond",NA,1,1,24
"1066",2737,15,1,1,"truth_cond",NA,1,1,25
"1067",2737,10,1,1,"truth_cond",NA,0,1,26
"1068",2737,14,1,1,"truth_cond",NA,0,0,27
"1069",2737,16,1,1,"truth_cond",NA,1,1,28
"1070",2737,13,1,1,"truth_cond",NA,0,1,29
"1071",2737,40,1,1,"truth_cond",NA,0,1,30
"1072",2737,24,1,1,"truth_cond",NA,0,0,31
"1073",2737,3,1,1,"truth_cond",NA,0,1,32
"1074",2737,36,1,1,"truth_cond",NA,0,1,33
"1075",2737,11,1,1,"truth_cond",NA,1,0,34
"1076",2737,18,1,1,"truth_cond",NA,1,1,35
"1077",2737,35,1,1,"truth_cond",NA,1,0,36
"1078",2737,6,1,1,"truth_cond",NA,0,0,37
"1079",2737,17,1,1,"truth_cond",NA,1,0,38
"1080",2737,2,1,1,"truth_cond",NA,0,1,39
"1081",2736,38,1,1,"truth_cond",NA,0,0,0
"1082",2736,34,1,1,"truth_cond",NA,1,0,1
"1083",2736,21,1,1,"truth_cond",NA,0,1,2
"1084",2736,6,1,1,"truth_cond",NA,1,0,3
"1085",2736,29,1,1,"truth_cond",NA,0,0,4
"1086",2736,9,1,1,"truth_cond",NA,0,0,5
"1087",2736,2,1,1,"truth_cond",NA,0,0,6
"1088",2736,36,1,1,"truth_cond",NA,1,1,7
"1089",2736,5,1,1,"truth_cond",NA,1,0,8
"1090",2736,27,1,1,"truth_cond",NA,0,1,9
"1091",2736,37,1,1,"truth_cond",NA,0,1,10
"1092",2736,7,1,1,"truth_cond",NA,1,1,11
"1093",2736,32,1,1,"truth_cond",NA,1,0,12
"1094",2736,39,1,1,"truth_cond",NA,0,1,13
"1095",2736,17,1,1,"truth_cond",NA,1,1,14
"1096",2736,12,1,1,"truth_cond",NA,1,1,15
"1097",2736,30,1,1,"truth_cond",NA,0,0,16
"1098",2736,18,1,1,"truth_cond",NA,1,1,17
"1099",2736,28,1,1,"truth_cond",NA,1,0,18
"1100",2736,4,1,1,"truth_cond",NA,1,1,19
"1101",2736,25,1,1,"truth_cond",NA,0,1,20
"1102",2736,11,1,1,"truth_cond",NA,1,0,21
"1103",2736,33,1,1,"truth_cond",NA,0,1,22
"1104",2736,15,1,1,"truth_cond",NA,1,0,23
"1105",2736,10,1,1,"truth_cond",NA,1,1,24
"1106",2736,31,1,1,"truth_cond",NA,1,1,25
"1107",2736,40,1,1,"truth_cond",NA,1,0,26
"1108",2736,8,1,1,"truth_cond",NA,0,1,27
"1109",2736,1,1,1,"truth_cond",NA,0,0,28
"1110",2736,19,1,1,"truth_cond",NA,1,0,29
"1111",2736,26,1,1,"truth_cond",NA,1,1,30
"1112",2736,13,1,1,"truth_cond",NA,0,1,31
"1113",2736,35,1,1,"truth_cond",NA,0,1,32
"1114",2736,20,1,1,"truth_cond",NA,1,0,33
"1115",2736,16,1,1,"truth_cond",NA,1,1,34
"1116",2736,3,1,1,"truth_cond",NA,1,0,35
"1117",2736,14,1,1,"truth_cond",NA,0,0,36
"1118",2736,22,1,1,"truth_cond",NA,0,0,37
"1119",2736,24,1,1,"truth_cond",NA,0,1,38
"1120",2736,23,1,1,"truth_cond",NA,1,0,39
"1121",2735,14,1,1,"truth_cond",NA,1,1,0
"1122",2735,30,1,1,"truth_cond",NA,1,0,1
"1123",2735,29,1,1,"truth_cond",NA,0,0,2
"1124",2735,24,1,1,"truth_cond",NA,1,1,3
"1125",2735,35,1,1,"truth_cond",NA,1,0,4
"1126",2735,12,1,1,"truth_cond",NA,0,0,5
"1127",2735,9,1,1,"truth_cond",NA,0,1,6
"1128",2735,8,1,1,"truth_cond",NA,0,0,7
"1129",2735,28,1,1,"truth_cond",NA,1,0,8
"1130",2735,7,1,1,"truth_cond",NA,0,0,9
"1131",2735,11,1,1,"truth_cond",NA,1,0,10
"1132",2735,21,1,1,"truth_cond",NA,1,1,11
"1133",2735,13,1,1,"truth_cond",NA,0,1,12
"1134",2735,15,1,1,"truth_cond",NA,1,0,13
"1135",2735,23,1,1,"truth_cond",NA,0,0,14
"1136",2735,32,1,1,"truth_cond",NA,1,0,15
"1137",2735,17,1,1,"truth_cond",NA,1,0,16
"1138",2735,19,1,1,"truth_cond",NA,0,0,17
"1139",2735,27,1,1,"truth_cond",NA,0,1,18
"1140",2735,37,1,1,"truth_cond",NA,1,1,19
"1141",2735,2,1,1,"truth_cond",NA,0,1,20
"1142",2735,1,1,1,"truth_cond",NA,1,0,21
"1143",2735,36,1,1,"truth_cond",NA,0,0,22
"1144",2735,22,1,1,"truth_cond",NA,0,1,23
"1145",2735,25,1,1,"truth_cond",NA,1,0,24
"1146",2735,31,1,1,"truth_cond",NA,0,1,25
"1147",2735,4,1,1,"truth_cond",NA,1,1,26
"1148",2735,38,1,1,"truth_cond",NA,1,1,27
"1149",2735,18,1,1,"truth_cond",NA,1,0,28
"1150",2735,34,1,1,"truth_cond",NA,1,0,29
"1151",2735,40,1,1,"truth_cond",NA,0,0,30
"1152",2735,3,1,1,"truth_cond",NA,0,0,31
"1153",2735,10,1,1,"truth_cond",NA,1,1,32
"1154",2735,6,1,1,"truth_cond",NA,1,1,33
"1155",2735,33,1,1,"truth_cond",NA,0,1,34
"1156",2735,26,1,1,"truth_cond",NA,1,1,35
"1157",2735,20,1,1,"truth_cond",NA,1,1,36
"1158",2735,5,1,1,"truth_cond",NA,0,1,37
"1159",2735,16,1,1,"truth_cond",NA,1,1,38
"1160",2735,39,1,1,"truth_cond",NA,0,1,39
"1161",2734,37,1,1,"false_cond",NA,1,1,0
"1162",2734,16,1,1,"false_cond",NA,1,1,1
"1163",2734,18,1,1,"false_cond",NA,1,1,2
"1164",2734,5,1,1,"false_cond",NA,0,0,3
"1165",2734,20,1,1,"false_cond",NA,0,0,4
"1166",2734,31,1,1,"false_cond",NA,0,0,5
"1167",2734,30,1,1,"false_cond",NA,0,1,6
"1168",2734,7,1,1,"false_cond",NA,1,1,7
"1169",2734,13,1,1,"false_cond",NA,0,0,8
"1170",2734,11,1,1,"false_cond",NA,1,0,9
"1171",2734,27,1,1,"false_cond",NA,0,0,10
"1172",2734,38,1,1,"false_cond",NA,0,1,11
"1173",2734,9,1,1,"false_cond",NA,0,0,12
"1174",2734,36,1,1,"false_cond",NA,0,0,13
"1175",2734,33,1,1,"false_cond",NA,0,0,14
"1176",2734,29,1,1,"false_cond",NA,1,1,15
"1177",2734,15,1,1,"false_cond",NA,1,1,16
"1178",2734,4,1,1,"false_cond",NA,0,0,17
"1179",2734,6,1,1,"false_cond",NA,0,0,18
"1180",2734,39,1,1,"false_cond",NA,0,0,19
"1181",2734,3,1,1,"false_cond",NA,0,0,20
"1182",2734,8,1,1,"false_cond",NA,1,1,21
"1183",2734,19,1,1,"false_cond",NA,1,1,22
"1184",2734,10,1,1,"false_cond",NA,1,1,23
"1185",2734,2,1,1,"false_cond",NA,1,1,24
"1186",2734,22,1,1,"false_cond",NA,1,1,25
"1187",2734,34,1,1,"false_cond",NA,1,1,26
"1188",2734,23,1,1,"false_cond",NA,1,1,27
"1189",2734,17,1,1,"false_cond",NA,0,0,28
"1190",2734,25,1,1,"false_cond",NA,0,0,29
"1191",2734,26,1,1,"false_cond",NA,1,1,30
"1192",2734,14,1,1,"false_cond",NA,0,0,31
"1193",2734,12,1,1,"false_cond",NA,0,0,32
"1194",2734,35,1,1,"false_cond",NA,1,1,33
"1195",2734,40,1,1,"false_cond",NA,0,0,34
"1196",2734,28,1,1,"false_cond",NA,1,1,35
"1197",2734,24,1,1,"false_cond",NA,0,0,36
"1198",2734,32,1,1,"false_cond",NA,0,1,37
"1199",2734,1,1,1,"false_cond",NA,1,1,38
"1200",2734,21,1,1,"false_cond",NA,0,0,39
"1201",2733,6,1,1,"truth_cond",NA,0,0,0
"1202",2733,30,1,1,"truth_cond",NA,1,1,1
"1203",2733,13,1,1,"truth_cond",NA,1,1,2
"1204",2733,7,1,1,"truth_cond",NA,0,0,3
"1205",2733,27,1,1,"truth_cond",NA,0,1,4
"1206",2733,33,1,1,"truth_cond",NA,0,1,5
"1207",2733,14,1,1,"truth_cond",NA,0,0,6
"1208",2733,21,1,1,"truth_cond",NA,0,0,7
"1209",2733,10,1,1,"truth_cond",NA,1,0,8
"1210",2733,4,1,1,"truth_cond",NA,0,0,9
"1211",2733,5,1,1,"truth_cond",NA,0,1,10
"1212",2733,29,1,1,"truth_cond",NA,0,0,11
"1213",2733,36,1,1,"truth_cond",NA,0,0,12
"1214",2733,37,1,1,"truth_cond",NA,1,1,13
"1215",2733,39,1,1,"truth_cond",NA,0,1,14
"1216",2733,20,1,1,"truth_cond",NA,1,0,15
"1217",2733,32,1,1,"truth_cond",NA,0,0,16
"1218",2733,38,1,1,"truth_cond",NA,0,0,17
"1219",2733,24,1,1,"truth_cond",NA,1,0,18
"1220",2733,34,1,1,"truth_cond",NA,0,1,19
"1221",2733,1,1,1,"truth_cond",NA,0,0,20
"1222",2733,17,1,1,"truth_cond",NA,0,0,21
"1223",2733,11,1,1,"truth_cond",NA,0,0,22
"1224",2733,23,1,1,"truth_cond",NA,0,0,23
"1225",2733,31,1,1,"truth_cond",NA,0,1,24
"1226",2733,16,1,1,"truth_cond",NA,0,1,25
"1227",2733,18,1,1,"truth_cond",NA,1,1,26
"1228",2733,22,1,1,"truth_cond",NA,1,1,27
"1229",2733,8,1,1,"truth_cond",NA,0,0,28
"1230",2733,9,1,1,"truth_cond",NA,0,1,29
"1231",2733,19,1,1,"truth_cond",NA,1,0,30
"1232",2733,2,1,1,"truth_cond",NA,1,1,31
"1233",2733,35,1,1,"truth_cond",NA,0,1,32
"1234",2733,12,1,1,"truth_cond",NA,0,1,33
"1235",2733,26,1,1,"truth_cond",NA,0,0,34
"1236",2733,15,1,1,"truth_cond",NA,1,1,35
"1237",2733,25,1,1,"truth_cond",NA,0,0,36
"1238",2733,40,1,1,"truth_cond",NA,0,1,37
"1239",2733,28,1,1,"truth_cond",NA,0,1,38
"1240",2733,3,1,1,"truth_cond",NA,0,1,39
"1241",2732,21,1,1,"false_cond",NA,0,1,0
"1242",2732,29,1,1,"false_cond",NA,1,0,1
"1243",2732,5,1,1,"false_cond",NA,0,1,2
"1244",2732,27,1,1,"false_cond",NA,0,1,3
"1245",2732,2,1,1,"false_cond",NA,1,0,4
"1246",2732,15,1,1,"false_cond",NA,0,1,5
"1247",2732,6,1,1,"false_cond",NA,0,1,6
"1248",2732,28,1,1,"false_cond",NA,1,0,7
"1249",2732,25,1,1,"false_cond",NA,0,0,8
"1250",2732,39,1,1,"false_cond",NA,1,0,9
"1251",2732,26,1,1,"false_cond",NA,1,0,10
"1252",2732,34,1,1,"false_cond",NA,0,1,11
"1253",2732,32,1,1,"false_cond",NA,0,0,12
"1254",2732,36,1,1,"false_cond",NA,1,0,13
"1255",2732,30,1,1,"false_cond",NA,0,1,14
"1256",2732,16,1,1,"false_cond",NA,0,1,15
"1257",2732,9,1,1,"false_cond",NA,0,1,16
"1258",2732,31,1,1,"false_cond",NA,0,1,17
"1259",2732,40,1,1,"false_cond",NA,1,0,18
"1260",2732,22,1,1,"false_cond",NA,0,0,19
"1261",2732,37,1,1,"false_cond",NA,0,1,20
"1262",2732,3,1,1,"false_cond",NA,0,1,21
"1263",2732,14,1,1,"false_cond",NA,0,1,22
"1264",2732,13,1,1,"false_cond",NA,1,1,23
"1265",2732,19,1,1,"false_cond",NA,0,1,24
"1266",2732,12,1,1,"false_cond",NA,0,0,25
"1267",2732,24,1,1,"false_cond",NA,0,0,26
"1268",2732,4,1,1,"false_cond",NA,0,0,27
"1269",2732,1,1,1,"false_cond",NA,1,0,28
"1270",2732,8,1,1,"false_cond",NA,0,0,29
"1271",2732,17,1,1,"false_cond",NA,0,0,30
"1272",2732,10,1,1,"false_cond",NA,0,1,31
"1273",2732,38,1,1,"false_cond",NA,0,0,32
"1274",2732,20,1,1,"false_cond",NA,0,1,33
"1275",2732,18,1,1,"false_cond",NA,0,1,34
"1276",2732,23,1,1,"false_cond",NA,0,1,35
"1277",2732,33,1,1,"false_cond",NA,0,1,36
"1278",2732,35,1,1,"false_cond",NA,0,0,37
"1279",2732,11,1,1,"false_cond",NA,0,0,38
"1280",2732,7,1,1,"false_cond",NA,1,0,39
"1281",2731,40,1,1,"truth_cond",NA,1,1,0
"1282",2731,3,1,1,"truth_cond",NA,0,1,1
"1283",2731,38,1,1,"truth_cond",NA,0,0,2
"1284",2731,27,1,1,"truth_cond",NA,1,0,3
"1285",2731,24,1,1,"truth_cond",NA,0,1,4
"1286",2731,31,1,1,"truth_cond",NA,1,1,5
"1287",2731,26,1,1,"truth_cond",NA,0,1,6
"1288",2731,13,1,1,"truth_cond",NA,0,0,7
"1289",2731,29,1,1,"truth_cond",NA,1,1,8
"1290",2731,33,1,1,"truth_cond",NA,1,0,9
"1291",2731,20,1,1,"truth_cond",NA,0,1,10
"1292",2731,37,1,1,"truth_cond",NA,1,0,11
"1293",2731,21,1,1,"truth_cond",NA,1,0,12
"1294",2731,11,1,1,"truth_cond",NA,0,1,13
"1295",2731,18,1,1,"truth_cond",NA,1,0,14
"1296",2731,5,1,1,"truth_cond",NA,1,0,15
"1297",2731,19,1,1,"truth_cond",NA,0,1,16
"1298",2731,4,1,1,"truth_cond",NA,1,0,17
"1299",2731,12,1,1,"truth_cond",NA,1,0,18
"1300",2731,8,1,1,"truth_cond",NA,0,0,19
"1301",2731,23,1,1,"truth_cond",NA,1,1,20
"1302",2731,15,1,1,"truth_cond",NA,1,1,21
"1303",2731,1,1,1,"truth_cond",NA,1,1,22
"1304",2731,10,1,1,"truth_cond",NA,0,1,23
"1305",2731,36,1,1,"truth_cond",NA,1,0,24
"1306",2731,17,1,1,"truth_cond",NA,1,1,25
"1307",2731,9,1,1,"truth_cond",NA,1,1,26
"1308",2731,28,1,1,"truth_cond",NA,1,1,27
"1309",2731,7,1,1,"truth_cond",NA,1,1,28
"1310",2731,6,1,1,"truth_cond",NA,1,1,29
"1311",2731,34,1,1,"truth_cond",NA,1,0,30
"1312",2731,16,1,1,"truth_cond",NA,0,1,31
"1313",2731,35,1,1,"truth_cond",NA,1,1,32
"1314",2731,25,1,1,"truth_cond",NA,0,0,33
"1315",2731,14,1,1,"truth_cond",NA,0,0,34
"1316",2731,30,1,1,"truth_cond",NA,1,0,35
"1317",2731,2,1,1,"truth_cond",NA,1,0,36
"1318",2731,32,1,1,"truth_cond",NA,1,0,37
"1319",2731,39,1,1,"truth_cond",NA,0,0,38
"1320",2731,22,1,1,"truth_cond",NA,1,0,39
"1321",2728,37,1,1,"truth_cond",NA,0,1,0
"1322",2728,21,1,1,"truth_cond",NA,1,0,1
"1323",2728,16,1,1,"truth_cond",NA,1,0,2
"1324",2728,14,1,1,"truth_cond",NA,0,1,3
"1325",2728,17,1,1,"truth_cond",NA,1,0,4
"1326",2728,7,1,1,"truth_cond",NA,1,1,5
"1327",2728,25,1,1,"truth_cond",NA,0,0,6
"1328",2728,26,1,1,"truth_cond",NA,1,1,7
"1329",2728,32,1,1,"truth_cond",NA,1,0,8
"1330",2728,34,1,1,"truth_cond",NA,1,1,9
"1331",2728,33,1,1,"truth_cond",NA,0,0,10
"1332",2728,29,1,1,"truth_cond",NA,0,1,11
"1333",2728,12,1,1,"truth_cond",NA,1,1,12
"1334",2728,24,1,1,"truth_cond",NA,1,0,13
"1335",2728,40,1,1,"truth_cond",NA,0,0,14
"1336",2728,28,1,1,"truth_cond",NA,0,1,15
"1337",2728,10,1,1,"truth_cond",NA,0,0,16
"1338",2728,3,1,1,"truth_cond",NA,1,0,17
"1339",2728,27,1,1,"truth_cond",NA,1,1,18
"1340",2728,39,1,1,"truth_cond",NA,0,0,19
"1341",2728,8,1,1,"truth_cond",NA,1,1,20
"1342",2728,9,1,1,"truth_cond",NA,0,1,21
"1343",2728,19,1,1,"truth_cond",NA,1,1,22
"1344",2728,11,1,1,"truth_cond",NA,0,0,23
"1345",2728,13,1,1,"truth_cond",NA,1,0,24
"1346",2728,23,1,1,"truth_cond",NA,1,1,25
"1347",2728,18,1,1,"truth_cond",NA,0,0,26
"1348",2728,20,1,1,"truth_cond",NA,0,1,27
"1349",2728,6,1,1,"truth_cond",NA,0,1,28
"1350",2728,35,1,1,"truth_cond",NA,1,1,29
"1351",2728,4,1,1,"truth_cond",NA,1,1,30
"1352",2728,1,1,1,"truth_cond",NA,1,1,31
"1353",2728,22,1,1,"truth_cond",NA,0,0,32
"1354",2728,15,1,1,"truth_cond",NA,0,0,33
"1355",2728,31,1,1,"truth_cond",NA,1,1,34
"1356",2728,30,1,1,"truth_cond",NA,1,0,35
"1357",2728,2,1,1,"truth_cond",NA,1,0,36
"1358",2728,5,1,1,"truth_cond",NA,1,0,37
"1359",2728,38,1,1,"truth_cond",NA,1,0,38
"1360",2728,36,1,1,"truth_cond",NA,1,1,39
"1361",2727,5,1,1,"truth_cond",NA,1,1,0
"1362",2727,18,1,1,"truth_cond",NA,1,1,1
"1363",2727,12,1,1,"truth_cond",NA,1,0,2
"1364",2727,2,1,1,"truth_cond",NA,1,1,3
"1365",2727,20,1,1,"truth_cond",NA,0,0,4
"1366",2727,21,1,1,"truth_cond",NA,0,0,5
"1367",2727,11,1,1,"truth_cond",NA,0,1,6
"1368",2727,8,1,1,"truth_cond",NA,1,0,7
"1369",2727,10,1,1,"truth_cond",NA,1,1,8
"1370",2727,4,1,1,"truth_cond",NA,1,1,9
"1371",2727,3,1,1,"truth_cond",NA,1,0,10
"1372",2727,6,1,1,"truth_cond",NA,1,0,11
"1373",2727,25,1,1,"truth_cond",NA,0,0,12
"1374",2727,1,1,1,"truth_cond",NA,0,1,13
"1375",2727,13,1,1,"truth_cond",NA,1,0,14
"1376",2727,7,1,1,"truth_cond",NA,0,1,15
"1377",2727,22,1,1,"truth_cond",NA,1,0,16
"1378",2727,15,1,1,"truth_cond",NA,0,1,17
"1379",2727,35,1,1,"truth_cond",NA,1,1,18
"1380",2727,14,1,1,"truth_cond",NA,1,1,19
"1381",2727,34,1,1,"truth_cond",NA,1,0,20
"1382",2727,27,1,1,"truth_cond",NA,1,0,21
"1383",2727,31,1,1,"truth_cond",NA,0,1,22
"1384",2727,26,1,1,"truth_cond",NA,1,0,23
"1385",2727,23,1,1,"truth_cond",NA,0,0,24
"1386",2727,37,1,1,"truth_cond",NA,0,1,25
"1387",2727,32,1,1,"truth_cond",NA,1,1,26
"1388",2727,40,1,1,"truth_cond",NA,0,1,27
"1389",2727,28,1,1,"truth_cond",NA,0,1,28
"1390",2727,30,1,1,"truth_cond",NA,0,1,29
"1391",2727,19,1,1,"truth_cond",NA,1,0,30
"1392",2727,17,1,1,"truth_cond",NA,1,1,31
"1393",2727,9,1,1,"truth_cond",NA,0,0,32
"1394",2727,38,1,1,"truth_cond",NA,1,1,33
"1395",2727,33,1,1,"truth_cond",NA,1,0,34
"1396",2727,36,1,1,"truth_cond",NA,1,1,35
"1397",2727,39,1,1,"truth_cond",NA,1,0,36
"1398",2727,24,1,1,"truth_cond",NA,0,0,37
"1399",2727,29,1,1,"truth_cond",NA,0,0,38
"1400",2727,16,1,1,"truth_cond",NA,1,0,39
"1401",2726,2,1,1,"truth_cond",NA,0,0,0
"1402",2726,5,1,1,"truth_cond",NA,0,0,1
"1403",2726,15,1,1,"truth_cond",NA,0,1,2
"1404",2726,25,1,1,"truth_cond",NA,0,0,3
"1405",2726,8,1,1,"truth_cond",NA,1,0,4
"1406",2726,30,1,1,"truth_cond",NA,1,1,5
"1407",2726,24,1,1,"truth_cond",NA,0,1,6
"1408",2726,27,1,1,"truth_cond",NA,0,0,7
"1409",2726,16,1,1,"truth_cond",NA,0,0,8
"1410",2726,35,1,1,"truth_cond",NA,1,1,9
"1411",2726,20,1,1,"truth_cond",NA,1,1,10
"1412",2726,40,1,1,"truth_cond",NA,0,1,11
"1413",2726,38,1,1,"truth_cond",NA,1,0,12
"1414",2726,32,1,1,"truth_cond",NA,0,1,13
"1415",2726,22,1,1,"truth_cond",NA,0,0,14
"1416",2726,6,1,1,"truth_cond",NA,1,0,15
"1417",2726,37,1,1,"truth_cond",NA,0,1,16
"1418",2726,3,1,1,"truth_cond",NA,0,1,17
"1419",2726,10,1,1,"truth_cond",NA,0,1,18
"1420",2726,1,1,1,"truth_cond",NA,0,1,19
"1421",2726,18,1,1,"truth_cond",NA,1,1,20
"1422",2726,4,1,1,"truth_cond",NA,0,1,21
"1423",2726,29,1,1,"truth_cond",NA,0,0,22
"1424",2726,36,1,1,"truth_cond",NA,0,0,23
"1425",2726,26,1,1,"truth_cond",NA,0,0,24
"1426",2726,11,1,1,"truth_cond",NA,1,0,25
"1427",2726,14,1,1,"truth_cond",NA,1,1,26
"1428",2726,13,1,1,"truth_cond",NA,0,0,27
"1429",2726,19,1,1,"truth_cond",NA,1,1,28
"1430",2726,31,1,1,"truth_cond",NA,0,0,29
"1431",2726,21,1,1,"truth_cond",NA,0,0,30
"1432",2726,17,1,1,"truth_cond",NA,0,1,31
"1433",2726,23,1,1,"truth_cond",NA,0,0,32
"1434",2726,33,1,1,"truth_cond",NA,0,1,33
"1435",2726,39,1,1,"truth_cond",NA,0,1,34
"1436",2726,9,1,1,"truth_cond",NA,0,0,35
"1437",2726,34,1,1,"truth_cond",NA,1,0,36
"1438",2726,7,1,1,"truth_cond",NA,0,0,37
"1439",2726,12,1,1,"truth_cond",NA,0,1,38
"1440",2726,28,1,1,"truth_cond",NA,0,1,39
"1441",2725,36,1,1,"truth_cond",NA,1,0,0
"1442",2725,1,1,1,"truth_cond",NA,1,0,1
"1443",2725,22,1,1,"truth_cond",NA,1,0,2
"1444",2725,7,1,1,"truth_cond",NA,1,1,3
"1445",2725,28,1,1,"truth_cond",NA,0,0,4
"1446",2725,2,1,1,"truth_cond",NA,0,0,5
"1447",2725,24,1,1,"truth_cond",NA,0,1,6
"1448",2725,33,1,1,"truth_cond",NA,1,0,7
"1449",2725,20,1,1,"truth_cond",NA,0,1,8
"1450",2725,5,1,1,"truth_cond",NA,1,0,9
"1451",2725,9,1,1,"truth_cond",NA,1,0,10
"1452",2725,26,1,1,"truth_cond",NA,1,0,11
"1453",2725,34,1,1,"truth_cond",NA,1,1,12
"1454",2725,16,1,1,"truth_cond",NA,1,0,13
"1455",2725,8,1,1,"truth_cond",NA,0,0,14
"1456",2725,11,1,1,"truth_cond",NA,1,1,15
"1457",2725,38,1,1,"truth_cond",NA,0,1,16
"1458",2725,15,1,1,"truth_cond",NA,0,0,17
"1459",2725,35,1,1,"truth_cond",NA,1,0,18
"1460",2725,37,1,1,"truth_cond",NA,1,0,19
"1461",2725,3,1,1,"truth_cond",NA,1,1,20
"1462",2725,4,1,1,"truth_cond",NA,1,0,21
"1463",2725,31,1,1,"truth_cond",NA,1,1,22
"1464",2725,39,1,1,"truth_cond",NA,0,0,23
"1465",2725,14,1,1,"truth_cond",NA,1,1,24
"1466",2725,40,1,1,"truth_cond",NA,0,0,25
"1467",2725,18,1,1,"truth_cond",NA,1,1,26
"1468",2725,6,1,1,"truth_cond",NA,1,1,27
"1469",2725,30,1,1,"truth_cond",NA,0,1,28
"1470",2725,27,1,1,"truth_cond",NA,1,1,29
"1471",2725,29,1,1,"truth_cond",NA,1,1,30
"1472",2725,19,1,1,"truth_cond",NA,1,1,31
"1473",2725,17,1,1,"truth_cond",NA,1,0,32
"1474",2725,23,1,1,"truth_cond",NA,1,0,33
"1475",2725,25,1,1,"truth_cond",NA,0,1,34
"1476",2725,12,1,1,"truth_cond",NA,1,1,35
"1477",2725,32,1,1,"truth_cond",NA,1,1,36
"1478",2725,10,1,1,"truth_cond",NA,1,0,37
"1479",2725,21,1,1,"truth_cond",NA,1,1,38
"1480",2725,13,1,1,"truth_cond",NA,1,1,39
"1481",2724,13,1,1,"truth_cond",NA,0,1,0
"1482",2724,10,1,1,"truth_cond",NA,1,0,1
"1483",2724,30,1,1,"truth_cond",NA,1,1,2
"1484",2724,7,1,1,"truth_cond",NA,1,1,3
"1485",2724,27,1,1,"truth_cond",NA,1,0,4
"1486",2724,23,1,1,"truth_cond",NA,1,1,5
"1487",2724,24,1,1,"truth_cond",NA,0,0,6
"1488",2724,34,1,1,"truth_cond",NA,1,1,7
"1489",2724,9,1,1,"truth_cond",NA,0,1,8
"1490",2724,28,1,1,"truth_cond",NA,1,0,9
"1491",2724,5,1,1,"truth_cond",NA,1,1,10
"1492",2724,22,1,1,"truth_cond",NA,0,0,11
"1493",2724,14,1,1,"truth_cond",NA,0,1,12
"1494",2724,6,1,1,"truth_cond",NA,1,1,13
"1495",2724,15,1,1,"truth_cond",NA,0,1,14
"1496",2724,37,1,1,"truth_cond",NA,0,0,15
"1497",2724,31,1,1,"truth_cond",NA,1,0,16
"1498",2724,21,1,1,"truth_cond",NA,1,1,17
"1499",2724,4,1,1,"truth_cond",NA,1,0,18
"1500",2724,33,1,1,"truth_cond",NA,0,0,19
"1501",2724,8,1,1,"truth_cond",NA,0,0,20
"1502",2724,3,1,1,"truth_cond",NA,0,1,21
"1503",2724,26,1,1,"truth_cond",NA,0,0,22
"1504",2724,19,1,1,"truth_cond",NA,1,0,23
"1505",2724,39,1,1,"truth_cond",NA,1,0,24
"1506",2724,18,1,1,"truth_cond",NA,0,1,25
"1507",2724,32,1,1,"truth_cond",NA,1,1,26
"1508",2724,38,1,1,"truth_cond",NA,0,1,27
"1509",2724,1,1,1,"truth_cond",NA,1,0,28
"1510",2724,29,1,1,"truth_cond",NA,1,0,29
"1511",2724,35,1,1,"truth_cond",NA,1,0,30
"1512",2724,20,1,1,"truth_cond",NA,1,1,31
"1513",2724,17,1,1,"truth_cond",NA,1,1,32
"1514",2724,16,1,1,"truth_cond",NA,0,1,33
"1515",2724,11,1,1,"truth_cond",NA,1,0,34
"1516",2724,2,1,1,"truth_cond",NA,1,1,35
"1517",2724,36,1,1,"truth_cond",NA,1,0,36
"1518",2724,12,1,1,"truth_cond",NA,1,0,37
"1519",2724,25,1,1,"truth_cond",NA,1,0,38
"1520",2724,40,1,1,"truth_cond",NA,0,1,39
"1521",2722,15,1,1,"truth_cond",NA,0,1,0
"1522",2722,20,1,1,"truth_cond",NA,0,0,1
"1523",2722,26,1,1,"truth_cond",NA,0,1,2
"1524",2722,36,1,1,"truth_cond",NA,0,0,3
"1525",2722,1,1,1,"truth_cond",NA,1,1,4
"1526",2722,33,1,1,"truth_cond",NA,0,0,5
"1527",2722,22,1,1,"truth_cond",NA,1,1,6
"1528",2722,23,1,1,"truth_cond",NA,0,1,7
"1529",2722,37,1,1,"truth_cond",NA,0,0,8
"1530",2722,17,1,1,"truth_cond",NA,0,0,9
"1531",2722,18,1,1,"truth_cond",NA,1,1,10
"1532",2722,11,1,1,"truth_cond",NA,0,1,11
"1533",2722,9,1,1,"truth_cond",NA,0,0,12
"1534",2722,31,1,1,"truth_cond",NA,0,0,13
"1535",2722,39,1,1,"truth_cond",NA,1,0,14
"1536",2722,7,1,1,"truth_cond",NA,1,1,15
"1537",2722,4,1,1,"truth_cond",NA,1,0,16
"1538",2722,8,1,1,"truth_cond",NA,1,1,17
"1539",2722,21,1,1,"truth_cond",NA,1,1,18
"1540",2722,19,1,1,"truth_cond",NA,1,0,19
"1541",2722,12,1,1,"truth_cond",NA,1,0,20
"1542",2722,3,1,1,"truth_cond",NA,1,0,21
"1543",2722,32,1,1,"truth_cond",NA,1,0,22
"1544",2722,29,1,1,"truth_cond",NA,1,1,23
"1545",2722,13,1,1,"truth_cond",NA,0,1,24
"1546",2722,10,1,1,"truth_cond",NA,1,1,25
"1547",2722,24,1,1,"truth_cond",NA,1,1,26
"1548",2722,16,1,1,"truth_cond",NA,1,0,27
"1549",2722,28,1,1,"truth_cond",NA,0,1,28
"1550",2722,40,1,1,"truth_cond",NA,1,0,29
"1551",2722,30,1,1,"truth_cond",NA,1,1,30
"1552",2722,2,1,1,"truth_cond",NA,0,0,31
"1553",2722,38,1,1,"truth_cond",NA,1,1,32
"1554",2722,34,1,1,"truth_cond",NA,1,1,33
"1555",2722,6,1,1,"truth_cond",NA,0,0,34
"1556",2722,14,1,1,"truth_cond",NA,0,1,35
"1557",2722,25,1,1,"truth_cond",NA,0,0,36
"1558",2722,5,1,1,"truth_cond",NA,1,0,37
"1559",2722,27,1,1,"truth_cond",NA,1,1,38
"1560",2722,35,1,1,"truth_cond",NA,1,0,39
"1561",2721,38,1,1,"truth_cond",NA,1,1,0
"1562",2721,14,1,1,"truth_cond",NA,1,0,1
"1563",2721,6,1,1,"truth_cond",NA,1,0,2
"1564",2721,23,1,1,"truth_cond",NA,0,1,3
"1565",2721,30,1,1,"truth_cond",NA,0,1,4
"1566",2721,25,1,1,"truth_cond",NA,1,0,5
"1567",2721,26,1,1,"truth_cond",NA,1,1,6
"1568",2721,29,1,1,"truth_cond",NA,0,1,7
"1569",2721,20,1,1,"truth_cond",NA,1,1,8
"1570",2721,13,1,1,"truth_cond",NA,0,0,9
"1571",2721,33,1,1,"truth_cond",NA,1,0,10
"1572",2721,11,1,1,"truth_cond",NA,1,0,11
"1573",2721,5,1,1,"truth_cond",NA,1,0,12
"1574",2721,22,1,1,"truth_cond",NA,1,0,13
"1575",2721,34,1,1,"truth_cond",NA,1,0,14
"1576",2721,3,1,1,"truth_cond",NA,1,0,15
"1577",2721,15,1,1,"truth_cond",NA,0,1,16
"1578",2721,31,1,1,"truth_cond",NA,1,0,17
"1579",2721,28,1,1,"truth_cond",NA,1,0,18
"1580",2721,19,1,1,"truth_cond",NA,1,1,19
"1581",2721,37,1,1,"truth_cond",NA,1,0,20
"1582",2721,12,1,1,"truth_cond",NA,1,1,21
"1583",2721,39,1,1,"truth_cond",NA,1,1,22
"1584",2721,10,1,1,"truth_cond",NA,1,1,23
"1585",2721,40,1,1,"truth_cond",NA,1,1,24
"1586",2721,18,1,1,"truth_cond",NA,1,0,25
"1587",2721,8,1,1,"truth_cond",NA,1,0,26
"1588",2721,17,1,1,"truth_cond",NA,1,1,27
"1589",2721,32,1,1,"truth_cond",NA,1,0,28
"1590",2721,16,1,1,"truth_cond",NA,1,1,29
"1591",2721,1,1,1,"truth_cond",NA,1,1,30
"1592",2721,27,1,1,"truth_cond",NA,1,1,31
"1593",2721,4,1,1,"truth_cond",NA,1,0,32
"1594",2721,7,1,1,"truth_cond",NA,0,0,33
"1595",2721,35,1,1,"truth_cond",NA,1,0,34
"1596",2721,36,1,1,"truth_cond",NA,0,1,35
"1597",2721,9,1,1,"truth_cond",NA,0,0,36
"1598",2721,2,1,1,"truth_cond",NA,1,1,37
"1599",2721,21,1,1,"truth_cond",NA,1,1,38
"1600",2721,24,1,1,"truth_cond",NA,0,1,39
"1601",2720,24,1,1,"truth_cond",NA,1,1,0
"1602",2720,39,1,1,"truth_cond",NA,1,1,1
"1603",2720,21,1,1,"truth_cond",NA,1,0,2
"1604",2720,32,1,1,"truth_cond",NA,1,1,3
"1605",2720,6,1,1,"truth_cond",NA,0,1,4
"1606",2720,31,1,1,"truth_cond",NA,0,0,5
"1607",2720,17,1,1,"truth_cond",NA,1,1,6
"1608",2720,20,1,1,"truth_cond",NA,1,1,7
"1609",2720,40,1,1,"truth_cond",NA,0,0,8
"1610",2720,27,1,1,"truth_cond",NA,1,1,9
"1611",2720,35,1,1,"truth_cond",NA,1,0,10
"1612",2720,26,1,1,"truth_cond",NA,0,1,11
"1613",2720,3,1,1,"truth_cond",NA,1,1,12
"1614",2720,10,1,1,"truth_cond",NA,1,1,13
"1615",2720,16,1,1,"truth_cond",NA,1,0,14
"1616",2720,9,1,1,"truth_cond",NA,1,0,15
"1617",2720,38,1,1,"truth_cond",NA,1,1,16
"1618",2720,1,1,1,"truth_cond",NA,1,0,17
"1619",2720,30,1,1,"truth_cond",NA,0,0,18
"1620",2720,12,1,1,"truth_cond",NA,1,0,19
"1621",2720,2,1,1,"truth_cond",NA,1,0,20
"1622",2720,29,1,1,"truth_cond",NA,0,0,21
"1623",2720,8,1,1,"truth_cond",NA,1,1,22
"1624",2720,14,1,1,"truth_cond",NA,1,0,23
"1625",2720,13,1,1,"truth_cond",NA,1,0,24
"1626",2720,22,1,1,"truth_cond",NA,1,1,25
"1627",2720,36,1,1,"truth_cond",NA,0,0,26
"1628",2720,25,1,1,"truth_cond",NA,1,1,27
"1629",2720,5,1,1,"truth_cond",NA,1,1,28
"1630",2720,28,1,1,"truth_cond",NA,1,0,29
"1631",2720,23,1,1,"truth_cond",NA,1,0,30
"1632",2720,34,1,1,"truth_cond",NA,1,0,31
"1633",2720,11,1,1,"truth_cond",NA,0,1,32
"1634",2720,33,1,1,"truth_cond",NA,0,0,33
"1635",2720,37,1,1,"truth_cond",NA,1,0,34
"1636",2720,18,1,1,"truth_cond",NA,0,1,35
"1637",2720,4,1,1,"truth_cond",NA,0,1,36
"1638",2720,19,1,1,"truth_cond",NA,1,0,37
"1639",2720,7,1,1,"truth_cond",NA,1,1,38
"1640",2720,15,1,1,"truth_cond",NA,1,1,39
"1641",2719,18,1,1,"truth_cond",NA,1,1,0
"1642",2719,1,1,1,"truth_cond",NA,0,1,1
"1643",2719,21,1,1,"truth_cond",NA,1,0,2
"1644",2719,31,1,1,"truth_cond",NA,1,0,3
"1645",2719,20,1,1,"truth_cond",NA,1,0,4
"1646",2719,30,1,1,"truth_cond",NA,1,0,5
"1647",2719,34,1,1,"truth_cond",NA,1,1,6
"1648",2719,33,1,1,"truth_cond",NA,1,1,7
"1649",2719,9,1,1,"truth_cond",NA,0,0,8
"1650",2719,32,1,1,"truth_cond",NA,1,1,9
"1651",2719,3,1,1,"truth_cond",NA,1,0,10
"1652",2719,10,1,1,"truth_cond",NA,1,1,11
"1653",2719,27,1,1,"truth_cond",NA,1,0,12
"1654",2719,39,1,1,"truth_cond",NA,0,0,13
"1655",2719,13,1,1,"truth_cond",NA,1,0,14
"1656",2719,19,1,1,"truth_cond",NA,0,1,15
"1657",2719,2,1,1,"truth_cond",NA,1,1,16
"1658",2719,6,1,1,"truth_cond",NA,1,1,17
"1659",2719,8,1,1,"truth_cond",NA,1,0,18
"1660",2719,17,1,1,"truth_cond",NA,1,0,19
"1661",2719,36,1,1,"truth_cond",NA,1,1,20
"1662",2719,4,1,1,"truth_cond",NA,0,0,21
"1663",2719,25,1,1,"truth_cond",NA,1,0,22
"1664",2719,16,1,1,"truth_cond",NA,1,0,23
"1665",2719,35,1,1,"truth_cond",NA,1,1,24
"1666",2719,22,1,1,"truth_cond",NA,0,1,25
"1667",2719,12,1,1,"truth_cond",NA,1,1,26
"1668",2719,28,1,1,"truth_cond",NA,0,1,27
"1669",2719,23,1,1,"truth_cond",NA,0,1,28
"1670",2719,40,1,1,"truth_cond",NA,1,1,29
"1671",2719,38,1,1,"truth_cond",NA,1,1,30
"1672",2719,14,1,1,"truth_cond",NA,0,0,31
"1673",2719,5,1,1,"truth_cond",NA,0,0,32
"1674",2719,26,1,1,"truth_cond",NA,1,0,33
"1675",2719,7,1,1,"truth_cond",NA,1,1,34
"1676",2719,11,1,1,"truth_cond",NA,1,0,35
"1677",2719,37,1,1,"truth_cond",NA,1,0,36
"1678",2719,24,1,1,"truth_cond",NA,0,1,37
"1679",2719,29,1,1,"truth_cond",NA,1,0,38
"1680",2719,15,1,1,"truth_cond",NA,1,1,39
"1681",2718,6,1,1,"truth_cond",NA,0,0,0
"1682",2718,13,1,1,"truth_cond",NA,0,1,1
"1683",2718,32,1,1,"truth_cond",NA,0,0,2
"1684",2718,14,1,1,"truth_cond",NA,0,0,3
"1685",2718,1,1,1,"truth_cond",NA,1,1,4
"1686",2718,33,1,1,"truth_cond",NA,0,0,5
"1687",2718,3,1,1,"truth_cond",NA,1,1,6
"1688",2718,15,1,1,"truth_cond",NA,0,0,7
"1689",2718,34,1,1,"truth_cond",NA,0,1,8
"1690",2718,39,1,1,"truth_cond",NA,1,0,9
"1691",2718,12,1,1,"truth_cond",NA,1,1,10
"1692",2718,2,1,1,"truth_cond",NA,1,1,11
"1693",2718,26,1,1,"truth_cond",NA,1,1,12
"1694",2718,16,1,1,"truth_cond",NA,0,0,13
"1695",2718,5,1,1,"truth_cond",NA,0,0,14
"1696",2718,37,1,1,"truth_cond",NA,0,0,15
"1697",2718,20,1,1,"truth_cond",NA,0,1,16
"1698",2718,19,1,1,"truth_cond",NA,1,1,17
"1699",2718,24,1,1,"truth_cond",NA,1,1,18
"1700",2718,38,1,1,"truth_cond",NA,0,0,19
"1701",2718,9,1,1,"truth_cond",NA,1,1,20
"1702",2718,10,1,1,"truth_cond",NA,0,0,21
"1703",2718,36,1,1,"truth_cond",NA,1,1,22
"1704",2718,35,1,1,"truth_cond",NA,1,0,23
"1705",2718,27,1,1,"truth_cond",NA,0,0,24
"1706",2718,21,1,1,"truth_cond",NA,1,1,25
"1707",2718,25,1,1,"truth_cond",NA,0,0,26
"1708",2718,4,1,1,"truth_cond",NA,0,0,27
"1709",2718,18,1,1,"truth_cond",NA,1,1,28
"1710",2718,40,1,1,"truth_cond",NA,1,1,29
"1711",2718,8,1,1,"truth_cond",NA,1,1,30
"1712",2718,11,1,1,"truth_cond",NA,1,1,31
"1713",2718,23,1,1,"truth_cond",NA,0,0,32
"1714",2718,7,1,1,"truth_cond",NA,1,1,33
"1715",2718,17,1,1,"truth_cond",NA,0,0,34
"1716",2718,31,1,1,"truth_cond",NA,0,0,35
"1717",2718,30,1,1,"truth_cond",NA,0,0,36
"1718",2718,28,1,1,"truth_cond",NA,0,1,37
"1719",2718,22,1,1,"truth_cond",NA,0,0,38
"1720",2718,29,1,1,"truth_cond",NA,1,1,39
"1721",2717,7,1,1,"false_cond",NA,0,0,0
"1722",2717,31,1,1,"false_cond",NA,0,0,1
"1723",2717,35,1,1,"false_cond",NA,0,1,2
"1724",2717,9,1,1,"false_cond",NA,1,0,3
"1725",2717,13,1,1,"false_cond",NA,0,1,4
"1726",2717,22,1,1,"false_cond",NA,0,0,5
"1727",2717,33,1,1,"false_cond",NA,1,1,6
"1728",2717,2,1,1,"false_cond",NA,0,0,7
"1729",2717,23,1,1,"false_cond",NA,1,0,8
"1730",2717,26,1,1,"false_cond",NA,1,1,9
"1731",2717,18,1,1,"false_cond",NA,0,0,10
"1732",2717,20,1,1,"false_cond",NA,0,0,11
"1733",2717,4,1,1,"false_cond",NA,0,1,12
"1734",2717,34,1,1,"false_cond",NA,0,0,13
"1735",2717,28,1,1,"false_cond",NA,0,1,14
"1736",2717,24,1,1,"false_cond",NA,1,1,15
"1737",2717,36,1,1,"false_cond",NA,1,1,16
"1738",2717,21,1,1,"false_cond",NA,1,1,17
"1739",2717,1,1,1,"false_cond",NA,1,0,18
"1740",2717,6,1,1,"false_cond",NA,0,0,19
"1741",2717,8,1,1,"false_cond",NA,0,1,20
"1742",2717,39,1,1,"false_cond",NA,1,0,21
"1743",2717,17,1,1,"false_cond",NA,0,0,22
"1744",2717,40,1,1,"false_cond",NA,1,0,23
"1745",2717,30,1,1,"false_cond",NA,0,1,24
"1746",2717,32,1,1,"false_cond",NA,0,1,25
"1747",2717,14,1,1,"false_cond",NA,0,1,26
"1748",2717,27,1,1,"false_cond",NA,1,0,27
"1749",2717,37,1,1,"false_cond",NA,0,0,28
"1750",2717,10,1,1,"false_cond",NA,0,1,29
"1751",2717,12,1,1,"false_cond",NA,1,0,30
"1752",2717,25,1,1,"false_cond",NA,0,0,31
"1753",2717,3,1,1,"false_cond",NA,0,0,32
"1754",2717,11,1,1,"false_cond",NA,0,1,33
"1755",2717,15,1,1,"false_cond",NA,0,1,34
"1756",2717,38,1,1,"false_cond",NA,1,1,35
"1757",2717,16,1,1,"false_cond",NA,1,1,36
"1758",2717,19,1,1,"false_cond",NA,0,1,37
"1759",2717,5,1,1,"false_cond",NA,1,0,38
"1760",2717,29,1,1,"false_cond",NA,1,1,39
"1761",2716,3,1,1,"false_cond",NA,1,0,0
"1762",2716,23,1,1,"false_cond",NA,1,0,1
"1763",2716,4,1,1,"false_cond",NA,1,0,2
"1764",2716,1,1,1,"false_cond",NA,0,0,3
"1765",2716,8,1,1,"false_cond",NA,1,1,4
"1766",2716,34,1,1,"false_cond",NA,1,1,5
"1767",2716,20,1,1,"false_cond",NA,1,0,6
"1768",2716,19,1,1,"false_cond",NA,0,0,7
"1769",2716,18,1,1,"false_cond",NA,0,0,8
"1770",2716,13,1,1,"false_cond",NA,1,1,9
"1771",2716,12,1,1,"false_cond",NA,0,0,10
"1772",2716,27,1,1,"false_cond",NA,0,1,11
"1773",2716,26,1,1,"false_cond",NA,0,0,12
"1774",2716,7,1,1,"false_cond",NA,0,1,13
"1775",2716,28,1,1,"false_cond",NA,1,1,14
"1776",2716,22,1,1,"false_cond",NA,1,1,15
"1777",2716,6,1,1,"false_cond",NA,0,1,16
"1778",2716,36,1,1,"false_cond",NA,1,1,17
"1779",2716,30,1,1,"false_cond",NA,0,1,18
"1780",2716,21,1,1,"false_cond",NA,0,0,19
"1781",2716,24,1,1,"false_cond",NA,0,1,20
"1782",2716,11,1,1,"false_cond",NA,0,0,21
"1783",2716,5,1,1,"false_cond",NA,1,1,22
"1784",2716,31,1,1,"false_cond",NA,1,1,23
"1785",2716,25,1,1,"false_cond",NA,0,0,24
"1786",2716,15,1,1,"false_cond",NA,0,0,25
"1787",2716,37,1,1,"false_cond",NA,0,1,26
"1788",2716,33,1,1,"false_cond",NA,0,0,27
"1789",2716,39,1,1,"false_cond",NA,1,0,28
"1790",2716,17,1,1,"false_cond",NA,1,1,29
"1791",2716,32,1,1,"false_cond",NA,0,1,30
"1792",2716,35,1,1,"false_cond",NA,0,0,31
"1793",2716,29,1,1,"false_cond",NA,1,1,32
"1794",2716,2,1,1,"false_cond",NA,1,0,33
"1795",2716,16,1,1,"false_cond",NA,0,1,34
"1796",2716,10,1,1,"false_cond",NA,1,0,35
"1797",2716,9,1,1,"false_cond",NA,0,0,36
"1798",2716,40,1,1,"false_cond",NA,0,0,37
"1799",2716,14,1,1,"false_cond",NA,0,1,38
"1800",2716,38,1,1,"false_cond",NA,1,1,39
"1801",2710,31,1,1,"false_cond",NA,1,0,0
"1802",2710,38,1,1,"false_cond",NA,0,1,1
"1803",2710,16,1,1,"false_cond",NA,0,0,2
"1804",2710,28,1,1,"false_cond",NA,0,0,3
"1805",2710,2,1,1,"false_cond",NA,1,1,4
"1806",2710,33,1,1,"false_cond",NA,0,0,5
"1807",2710,40,1,1,"false_cond",NA,1,1,6
"1808",2710,20,1,1,"false_cond",NA,0,0,7
"1809",2710,36,1,1,"false_cond",NA,0,1,8
"1810",2710,11,1,1,"false_cond",NA,0,1,9
"1811",2710,30,1,1,"false_cond",NA,1,1,10
"1812",2710,17,1,1,"false_cond",NA,0,0,11
"1813",2710,19,1,1,"false_cond",NA,0,1,12
"1814",2710,8,1,1,"false_cond",NA,0,1,13
"1815",2710,1,1,1,"false_cond",NA,1,1,14
"1816",2710,32,1,1,"false_cond",NA,0,1,15
"1817",2710,18,1,1,"false_cond",NA,0,1,16
"1818",2710,34,1,1,"false_cond",NA,0,0,17
"1819",2710,24,1,1,"false_cond",NA,1,0,18
"1820",2710,35,1,1,"false_cond",NA,0,0,19
"1821",2710,12,1,1,"false_cond",NA,0,1,20
"1822",2710,25,1,1,"false_cond",NA,0,1,21
"1823",2710,37,1,1,"false_cond",NA,0,1,22
"1824",2710,6,1,1,"false_cond",NA,1,1,23
"1825",2710,3,1,1,"false_cond",NA,1,0,24
"1826",2710,26,1,1,"false_cond",NA,0,0,25
"1827",2710,29,1,1,"false_cond",NA,1,0,26
"1828",2710,5,1,1,"false_cond",NA,0,0,27
"1829",2710,22,1,1,"false_cond",NA,0,0,28
"1830",2710,15,1,1,"false_cond",NA,0,1,29
"1831",2710,9,1,1,"false_cond",NA,1,0,30
"1832",2710,10,1,1,"false_cond",NA,1,1,31
"1833",2710,39,1,1,"false_cond",NA,0,0,32
"1834",2710,7,1,1,"false_cond",NA,1,0,33
"1835",2710,27,1,1,"false_cond",NA,0,0,34
"1836",2710,23,1,1,"false_cond",NA,1,1,35
"1837",2710,13,1,1,"false_cond",NA,0,1,36
"1838",2710,4,1,1,"false_cond",NA,0,0,37
"1839",2710,14,1,1,"false_cond",NA,0,1,38
"1840",2710,21,1,1,"false_cond",NA,1,0,39
"1841",2709,5,1,1,"truth_cond",NA,0,0,0
"1842",2709,24,1,1,"truth_cond",NA,1,0,1
"1843",2709,12,1,1,"truth_cond",NA,0,1,2
"1844",2709,16,1,1,"truth_cond",NA,1,1,3
"1845",2709,39,1,1,"truth_cond",NA,1,0,4
"1846",2709,18,1,1,"truth_cond",NA,1,0,5
"1847",2709,13,1,1,"truth_cond",NA,1,1,6
"1848",2709,1,1,1,"truth_cond",NA,0,0,7
"1849",2709,40,1,1,"truth_cond",NA,0,1,8
"1850",2709,10,1,1,"truth_cond",NA,1,1,9
"1851",2709,7,1,1,"truth_cond",NA,1,0,10
"1852",2709,11,1,1,"truth_cond",NA,0,0,11
"1853",2709,32,1,1,"truth_cond",NA,1,0,12
"1854",2709,6,1,1,"truth_cond",NA,1,0,13
"1855",2709,29,1,1,"truth_cond",NA,0,1,14
"1856",2709,26,1,1,"truth_cond",NA,1,1,15
"1857",2709,15,1,1,"truth_cond",NA,1,1,16
"1858",2709,22,1,1,"truth_cond",NA,1,0,17
"1859",2709,14,1,1,"truth_cond",NA,0,1,18
"1860",2709,28,1,1,"truth_cond",NA,1,1,19
"1861",2709,34,1,1,"truth_cond",NA,1,0,20
"1862",2709,35,1,1,"truth_cond",NA,1,1,21
"1863",2709,37,1,1,"truth_cond",NA,1,1,22
"1864",2709,30,1,1,"truth_cond",NA,1,1,23
"1865",2709,36,1,1,"truth_cond",NA,0,0,24
"1866",2709,21,1,1,"truth_cond",NA,0,1,25
"1867",2709,33,1,1,"truth_cond",NA,1,0,26
"1868",2709,4,1,1,"truth_cond",NA,0,1,27
"1869",2709,9,1,1,"truth_cond",NA,1,0,28
"1870",2709,8,1,1,"truth_cond",NA,1,0,29
"1871",2709,20,1,1,"truth_cond",NA,1,1,30
"1872",2709,19,1,1,"truth_cond",NA,0,0,31
"1873",2709,31,1,1,"truth_cond",NA,0,1,32
"1874",2709,3,1,1,"truth_cond",NA,0,1,33
"1875",2709,38,1,1,"truth_cond",NA,1,0,34
"1876",2709,25,1,1,"truth_cond",NA,1,1,35
"1877",2709,17,1,1,"truth_cond",NA,0,0,36
"1878",2709,2,1,1,"truth_cond",NA,1,0,37
"1879",2709,27,1,1,"truth_cond",NA,0,1,38
"1880",2709,23,1,1,"truth_cond",NA,1,0,39
"1881",2708,13,1,1,"false_cond",NA,1,1,0
"1882",2708,12,1,1,"false_cond",NA,0,0,1
"1883",2708,8,1,1,"false_cond",NA,0,0,2
"1884",2708,17,1,1,"false_cond",NA,1,1,3
"1885",2708,25,1,1,"false_cond",NA,1,1,4
"1886",2708,9,1,1,"false_cond",NA,0,0,5
"1887",2708,20,1,1,"false_cond",NA,0,1,6
"1888",2708,26,1,1,"false_cond",NA,1,0,7
"1889",2708,35,1,1,"false_cond",NA,0,0,8
"1890",2708,32,1,1,"false_cond",NA,0,1,9
"1891",2708,29,1,1,"false_cond",NA,1,0,10
"1892",2708,16,1,1,"false_cond",NA,0,1,11
"1893",2708,38,1,1,"false_cond",NA,1,0,12
"1894",2708,15,1,1,"false_cond",NA,0,1,13
"1895",2708,3,1,1,"false_cond",NA,0,0,14
"1896",2708,19,1,1,"false_cond",NA,0,0,15
"1897",2708,23,1,1,"false_cond",NA,0,1,16
"1898",2708,36,1,1,"false_cond",NA,0,1,17
"1899",2708,40,1,1,"false_cond",NA,0,1,18
"1900",2708,31,1,1,"false_cond",NA,0,1,19
"1901",2708,14,1,1,"false_cond",NA,0,1,20
"1902",2708,34,1,1,"false_cond",NA,1,0,21
"1903",2708,4,1,1,"false_cond",NA,0,0,22
"1904",2708,6,1,1,"false_cond",NA,0,1,23
"1905",2708,18,1,1,"false_cond",NA,0,1,24
"1906",2708,1,1,1,"false_cond",NA,0,1,25
"1907",2708,11,1,1,"false_cond",NA,0,0,26
"1908",2708,28,1,1,"false_cond",NA,1,0,27
"1909",2708,2,1,1,"false_cond",NA,0,1,28
"1910",2708,30,1,1,"false_cond",NA,1,0,29
"1911",2708,21,1,1,"false_cond",NA,1,0,30
"1912",2708,24,1,1,"false_cond",NA,0,1,31
"1913",2708,22,1,1,"false_cond",NA,0,1,32
"1914",2708,10,1,1,"false_cond",NA,1,0,33
"1915",2708,33,1,1,"false_cond",NA,1,0,34
"1916",2708,27,1,1,"false_cond",NA,0,1,35
"1917",2708,39,1,1,"false_cond",NA,1,0,36
"1918",2708,5,1,1,"false_cond",NA,0,1,37
"1919",2708,37,1,1,"false_cond",NA,1,0,38
"1920",2708,7,1,1,"false_cond",NA,1,0,39
"1921",2707,6,1,1,"false_cond",NA,1,0,0
"1922",2707,28,1,1,"false_cond",NA,0,1,1
"1923",2707,39,1,1,"false_cond",NA,0,1,2
"1924",2707,27,1,1,"false_cond",NA,0,0,3
"1925",2707,31,1,1,"false_cond",NA,0,1,4
"1926",2707,14,1,1,"false_cond",NA,1,0,5
"1927",2707,25,1,1,"false_cond",NA,0,0,6
"1928",2707,5,1,1,"false_cond",NA,0,0,7
"1929",2707,10,1,1,"false_cond",NA,1,0,8
"1930",2707,37,1,1,"false_cond",NA,1,0,9
"1931",2707,32,1,1,"false_cond",NA,0,0,10
"1932",2707,23,1,1,"false_cond",NA,1,0,11
"1933",2707,36,1,1,"false_cond",NA,1,1,12
"1934",2707,8,1,1,"false_cond",NA,1,1,13
"1935",2707,33,1,1,"false_cond",NA,0,1,14
"1936",2707,20,1,1,"false_cond",NA,0,1,15
"1937",2707,12,1,1,"false_cond",NA,1,1,16
"1938",2707,16,1,1,"false_cond",NA,0,1,17
"1939",2707,7,1,1,"false_cond",NA,0,1,18
"1940",2707,13,1,1,"false_cond",NA,1,0,19
"1941",2707,24,1,1,"false_cond",NA,1,1,20
"1942",2707,38,1,1,"false_cond",NA,0,1,21
"1943",2707,15,1,1,"false_cond",NA,1,0,22
"1944",2707,35,1,1,"false_cond",NA,0,0,23
"1945",2707,21,1,1,"false_cond",NA,0,1,24
"1946",2707,1,1,1,"false_cond",NA,1,0,25
"1947",2707,2,1,1,"false_cond",NA,0,0,26
"1948",2707,22,1,1,"false_cond",NA,0,1,27
"1949",2707,11,1,1,"false_cond",NA,0,1,28
"1950",2707,3,1,1,"false_cond",NA,0,0,29
"1951",2707,4,1,1,"false_cond",NA,0,1,30
"1952",2707,26,1,1,"false_cond",NA,0,0,31
"1953",2707,17,1,1,"false_cond",NA,0,0,32
"1954",2707,29,1,1,"false_cond",NA,0,0,33
"1955",2707,19,1,1,"false_cond",NA,0,0,34
"1956",2707,34,1,1,"false_cond",NA,0,0,35
"1957",2707,18,1,1,"false_cond",NA,0,1,36
"1958",2707,30,1,1,"false_cond",NA,0,1,37
"1959",2707,9,1,1,"false_cond",NA,1,1,38
"1960",2707,40,1,1,"false_cond",NA,1,1,39
"1961",2706,9,1,1,"truth_cond",NA,0,1,0
"1962",2706,5,1,1,"truth_cond",NA,1,0,1
"1963",2706,26,1,1,"truth_cond",NA,0,0,2
"1964",2706,13,1,1,"truth_cond",NA,0,1,3
"1965",2706,15,1,1,"truth_cond",NA,0,0,4
"1966",2706,23,1,1,"truth_cond",NA,0,0,5
"1967",2706,34,1,1,"truth_cond",NA,1,0,6
"1968",2706,18,1,1,"truth_cond",NA,1,1,7
"1969",2706,3,1,1,"truth_cond",NA,1,1,8
"1970",2706,35,1,1,"truth_cond",NA,0,0,9
"1971",2706,32,1,1,"truth_cond",NA,1,0,10
"1972",2706,38,1,1,"truth_cond",NA,1,1,11
"1973",2706,8,1,1,"truth_cond",NA,0,1,12
"1974",2706,4,1,1,"truth_cond",NA,0,0,13
"1975",2706,39,1,1,"truth_cond",NA,1,1,14
"1976",2706,29,1,1,"truth_cond",NA,0,1,15
"1977",2706,11,1,1,"truth_cond",NA,1,1,16
"1978",2706,19,1,1,"truth_cond",NA,1,0,17
"1979",2706,14,1,1,"truth_cond",NA,0,1,18
"1980",2706,27,1,1,"truth_cond",NA,0,1,19
"1981",2706,36,1,1,"truth_cond",NA,0,1,20
"1982",2706,17,1,1,"truth_cond",NA,0,0,21
"1983",2706,21,1,1,"truth_cond",NA,0,0,22
"1984",2706,24,1,1,"truth_cond",NA,0,1,23
"1985",2706,40,1,1,"truth_cond",NA,1,0,24
"1986",2706,6,1,1,"truth_cond",NA,1,1,25
"1987",2706,31,1,1,"truth_cond",NA,1,0,26
"1988",2706,2,1,1,"truth_cond",NA,1,0,27
"1989",2706,33,1,1,"truth_cond",NA,0,0,28
"1990",2706,37,1,1,"truth_cond",NA,0,0,29
"1991",2706,1,1,1,"truth_cond",NA,1,1,30
"1992",2706,7,1,1,"truth_cond",NA,0,0,31
"1993",2706,20,1,1,"truth_cond",NA,0,0,32
"1994",2706,10,1,1,"truth_cond",NA,1,1,33
"1995",2706,16,1,1,"truth_cond",NA,1,0,34
"1996",2706,12,1,1,"truth_cond",NA,1,1,35
"1997",2706,28,1,1,"truth_cond",NA,0,1,36
"1998",2706,22,1,1,"truth_cond",NA,0,0,37
"1999",2706,25,1,1,"truth_cond",NA,1,1,38
"2000",2706,30,1,1,"truth_cond",NA,1,1,39
"2001",2705,22,1,1,"truth_cond",NA,1,1,0
"2002",2705,9,1,1,"truth_cond",NA,0,0,1
"2003",2705,1,1,1,"truth_cond",NA,0,0,2
"2004",2705,13,1,1,"truth_cond",NA,1,0,3
"2005",2705,8,1,1,"truth_cond",NA,0,0,4
"2006",2705,16,1,1,"truth_cond",NA,1,1,5
"2007",2705,19,1,1,"truth_cond",NA,1,1,6
"2008",2705,10,1,1,"truth_cond",NA,0,0,7
"2009",2705,38,1,1,"truth_cond",NA,1,1,8
"2010",2705,17,1,1,"truth_cond",NA,1,1,9
"2011",2705,27,1,1,"truth_cond",NA,1,1,10
"2012",2705,2,1,1,"truth_cond",NA,1,0,11
"2013",2705,7,1,1,"truth_cond",NA,0,0,12
"2014",2705,32,1,1,"truth_cond",NA,1,0,13
"2015",2705,4,1,1,"truth_cond",NA,1,1,14
"2016",2705,33,1,1,"truth_cond",NA,1,1,15
"2017",2705,37,1,1,"truth_cond",NA,0,1,16
"2018",2705,6,1,1,"truth_cond",NA,1,1,17
"2019",2705,28,1,1,"truth_cond",NA,0,0,18
"2020",2705,23,1,1,"truth_cond",NA,0,1,19
"2021",2705,24,1,1,"truth_cond",NA,0,0,20
"2022",2705,35,1,1,"truth_cond",NA,1,0,21
"2023",2705,12,1,1,"truth_cond",NA,1,1,22
"2024",2705,3,1,1,"truth_cond",NA,1,1,23
"2025",2705,15,1,1,"truth_cond",NA,1,1,24
"2026",2705,30,1,1,"truth_cond",NA,1,0,25
"2027",2705,21,1,1,"truth_cond",NA,0,1,26
"2028",2705,29,1,1,"truth_cond",NA,0,1,27
"2029",2705,34,1,1,"truth_cond",NA,1,0,28
"2030",2705,36,1,1,"truth_cond",NA,1,0,29
"2031",2705,39,1,1,"truth_cond",NA,1,1,30
"2032",2705,11,1,1,"truth_cond",NA,1,1,31
"2033",2705,40,1,1,"truth_cond",NA,0,1,32
"2034",2705,26,1,1,"truth_cond",NA,0,0,33
"2035",2705,20,1,1,"truth_cond",NA,1,0,34
"2036",2705,14,1,1,"truth_cond",NA,0,0,35
"2037",2705,31,1,1,"truth_cond",NA,1,0,36
"2038",2705,25,1,1,"truth_cond",NA,0,0,37
"2039",2705,5,1,1,"truth_cond",NA,1,1,38
"2040",2705,18,1,1,"truth_cond",NA,1,0,39
"2041",2704,19,1,1,"false_cond",NA,0,1,0
"2042",2704,39,1,1,"false_cond",NA,0,1,1
"2043",2704,38,1,1,"false_cond",NA,0,1,2
"2044",2704,33,1,1,"false_cond",NA,1,1,3
"2045",2704,26,1,1,"false_cond",NA,0,1,4
"2046",2704,1,1,1,"false_cond",NA,0,1,5
"2047",2704,32,1,1,"false_cond",NA,1,0,6
"2048",2704,10,1,1,"false_cond",NA,0,0,7
"2049",2704,6,1,1,"false_cond",NA,1,0,8
"2050",2704,9,1,1,"false_cond",NA,1,0,9
"2051",2704,34,1,1,"false_cond",NA,0,1,10
"2052",2704,36,1,1,"false_cond",NA,0,1,11
"2053",2704,18,1,1,"false_cond",NA,1,0,12
"2054",2704,29,1,1,"false_cond",NA,0,1,13
"2055",2704,23,1,1,"false_cond",NA,0,1,14
"2056",2704,4,1,1,"false_cond",NA,1,0,15
"2057",2704,7,1,1,"false_cond",NA,0,1,16
"2058",2704,30,1,1,"false_cond",NA,1,0,17
"2059",2704,17,1,1,"false_cond",NA,1,0,18
"2060",2704,37,1,1,"false_cond",NA,0,0,19
"2061",2704,3,1,1,"false_cond",NA,0,1,20
"2062",2704,40,1,1,"false_cond",NA,1,0,21
"2063",2704,21,1,1,"false_cond",NA,0,1,22
"2064",2704,20,1,1,"false_cond",NA,1,0,23
"2065",2704,25,1,1,"false_cond",NA,1,0,24
"2066",2704,14,1,1,"false_cond",NA,0,1,25
"2067",2704,22,1,1,"false_cond",NA,0,0,26
"2068",2704,27,1,1,"false_cond",NA,1,0,27
"2069",2704,28,1,1,"false_cond",NA,0,0,28
"2070",2704,15,1,1,"false_cond",NA,1,0,29
"2071",2704,24,1,1,"false_cond",NA,1,1,30
"2072",2704,2,1,1,"false_cond",NA,1,0,31
"2073",2704,31,1,1,"false_cond",NA,0,1,32
"2074",2704,11,1,1,"false_cond",NA,1,0,33
"2075",2704,16,1,1,"false_cond",NA,1,0,34
"2076",2704,35,1,1,"false_cond",NA,0,0,35
"2077",2704,8,1,1,"false_cond",NA,0,1,36
"2078",2704,5,1,1,"false_cond",NA,1,1,37
"2079",2704,12,1,1,"false_cond",NA,0,1,38
"2080",2704,13,1,1,"false_cond",NA,0,1,39
"2081",2703,26,1,1,"truth_cond",NA,0,0,0
"2082",2703,30,1,1,"truth_cond",NA,1,1,1
"2083",2703,10,1,1,"truth_cond",NA,1,0,2
"2084",2703,1,1,1,"truth_cond",NA,1,1,3
"2085",2703,12,1,1,"truth_cond",NA,1,0,4
"2086",2703,34,1,1,"truth_cond",NA,0,0,5
"2087",2703,11,1,1,"truth_cond",NA,0,0,6
"2088",2703,37,1,1,"truth_cond",NA,1,1,7
"2089",2703,17,1,1,"truth_cond",NA,1,0,8
"2090",2703,35,1,1,"truth_cond",NA,1,0,9
"2091",2703,16,1,1,"truth_cond",NA,1,0,10
"2092",2703,7,1,1,"truth_cond",NA,1,0,11
"2093",2703,28,1,1,"truth_cond",NA,0,0,12
"2094",2703,9,1,1,"truth_cond",NA,1,1,13
"2095",2703,8,1,1,"truth_cond",NA,0,1,14
"2096",2703,40,1,1,"truth_cond",NA,1,0,15
"2097",2703,20,1,1,"truth_cond",NA,1,1,16
"2098",2703,2,1,1,"truth_cond",NA,1,0,17
"2099",2703,39,1,1,"truth_cond",NA,1,1,18
"2100",2703,22,1,1,"truth_cond",NA,0,1,19
"2101",2703,33,1,1,"truth_cond",NA,1,0,20
"2102",2703,19,1,1,"truth_cond",NA,1,0,21
"2103",2703,25,1,1,"truth_cond",NA,1,1,22
"2104",2703,13,1,1,"truth_cond",NA,1,1,23
"2105",2703,38,1,1,"truth_cond",NA,0,0,24
"2106",2703,23,1,1,"truth_cond",NA,1,1,25
"2107",2703,36,1,1,"truth_cond",NA,0,0,26
"2108",2703,15,1,1,"truth_cond",NA,1,0,27
"2109",2703,4,1,1,"truth_cond",NA,1,1,28
"2110",2703,3,1,1,"truth_cond",NA,1,1,29
"2111",2703,27,1,1,"truth_cond",NA,0,1,30
"2112",2703,18,1,1,"truth_cond",NA,1,1,31
"2113",2703,31,1,1,"truth_cond",NA,1,1,32
"2114",2703,29,1,1,"truth_cond",NA,0,1,33
"2115",2703,32,1,1,"truth_cond",NA,1,1,34
"2116",2703,5,1,1,"truth_cond",NA,1,0,35
"2117",2703,14,1,1,"truth_cond",NA,1,0,36
"2118",2703,21,1,1,"truth_cond",NA,1,0,37
"2119",2703,6,1,1,"truth_cond",NA,1,1,38
"2120",2703,24,1,1,"truth_cond",NA,1,1,39
"2121",2702,26,1,1,"false_cond",NA,1,0,0
"2122",2702,5,1,1,"false_cond",NA,1,0,1
"2123",2702,32,1,1,"false_cond",NA,0,1,2
"2124",2702,39,1,1,"false_cond",NA,1,1,3
"2125",2702,17,1,1,"false_cond",NA,0,0,4
"2126",2702,30,1,1,"false_cond",NA,1,1,5
"2127",2702,38,1,1,"false_cond",NA,1,1,6
"2128",2702,6,1,1,"false_cond",NA,1,0,7
"2129",2702,21,1,1,"false_cond",NA,0,1,8
"2130",2702,27,1,1,"false_cond",NA,0,1,9
"2131",2702,7,1,1,"false_cond",NA,1,0,10
"2132",2702,14,1,1,"false_cond",NA,1,0,11
"2133",2702,23,1,1,"false_cond",NA,1,0,12
"2134",2702,10,1,1,"false_cond",NA,0,0,13
"2135",2702,33,1,1,"false_cond",NA,0,1,14
"2136",2702,37,1,1,"false_cond",NA,1,1,15
"2137",2702,16,1,1,"false_cond",NA,0,1,16
"2138",2702,31,1,1,"false_cond",NA,0,0,17
"2139",2702,20,1,1,"false_cond",NA,0,0,18
"2140",2702,36,1,1,"false_cond",NA,0,1,19
"2141",2702,19,1,1,"false_cond",NA,0,0,20
"2142",2702,3,1,1,"false_cond",NA,0,0,21
"2143",2702,15,1,1,"false_cond",NA,0,1,22
"2144",2702,22,1,1,"false_cond",NA,0,1,23
"2145",2702,8,1,1,"false_cond",NA,0,1,24
"2146",2702,2,1,1,"false_cond",NA,1,0,25
"2147",2702,1,1,1,"false_cond",NA,0,1,26
"2148",2702,34,1,1,"false_cond",NA,1,0,27
"2149",2702,13,1,1,"false_cond",NA,1,0,28
"2150",2702,25,1,1,"false_cond",NA,1,1,29
"2151",2702,28,1,1,"false_cond",NA,1,1,30
"2152",2702,12,1,1,"false_cond",NA,0,0,31
"2153",2702,29,1,1,"false_cond",NA,1,0,32
"2154",2702,9,1,1,"false_cond",NA,0,0,33
"2155",2702,35,1,1,"false_cond",NA,0,0,34
"2156",2702,40,1,1,"false_cond",NA,1,0,35
"2157",2702,4,1,1,"false_cond",NA,0,1,36
"2158",2702,24,1,1,"false_cond",NA,0,1,37
"2159",2702,18,1,1,"false_cond",NA,0,1,38
"2160",2702,11,1,1,"false_cond",NA,1,1,39
"2161",2701,17,1,1,"truth_cond",NA,1,1,0
"2162",2701,11,1,1,"truth_cond",NA,0,1,1
"2163",2701,37,1,1,"truth_cond",NA,0,1,2
"2164",2701,38,1,1,"truth_cond",NA,1,0,3
"2165",2701,1,1,1,"truth_cond",NA,1,1,4
"2166",2701,19,1,1,"truth_cond",NA,0,0,5
"2167",2701,4,1,1,"truth_cond",NA,0,1,6
"2168",2701,22,1,1,"truth_cond",NA,0,1,7
"2169",2701,23,1,1,"truth_cond",NA,0,1,8
"2170",2701,27,1,1,"truth_cond",NA,1,0,9
"2171",2701,32,1,1,"truth_cond",NA,1,1,10
"2172",2701,15,1,1,"truth_cond",NA,1,0,11
"2173",2701,29,1,1,"truth_cond",NA,1,1,12
"2174",2701,20,1,1,"truth_cond",NA,1,0,13
"2175",2701,18,1,1,"truth_cond",NA,1,1,14
"2176",2701,40,1,1,"truth_cond",NA,0,0,15
"2177",2701,34,1,1,"truth_cond",NA,0,0,16
"2178",2701,9,1,1,"truth_cond",NA,0,1,17
"2179",2701,31,1,1,"truth_cond",NA,1,0,18
"2180",2701,26,1,1,"truth_cond",NA,0,1,19
"2181",2701,25,1,1,"truth_cond",NA,1,1,20
"2182",2701,24,1,1,"truth_cond",NA,1,1,21
"2183",2701,5,1,1,"truth_cond",NA,1,0,22
"2184",2701,39,1,1,"truth_cond",NA,1,0,23
"2185",2701,13,1,1,"truth_cond",NA,1,1,24
"2186",2701,2,1,1,"truth_cond",NA,1,0,25
"2187",2701,30,1,1,"truth_cond",NA,1,0,26
"2188",2701,35,1,1,"truth_cond",NA,1,0,27
"2189",2701,14,1,1,"truth_cond",NA,1,0,28
"2190",2701,28,1,1,"truth_cond",NA,1,0,29
"2191",2701,16,1,1,"truth_cond",NA,1,1,30
"2192",2701,7,1,1,"truth_cond",NA,1,1,31
"2193",2701,33,1,1,"truth_cond",NA,1,1,32
"2194",2701,10,1,1,"truth_cond",NA,1,0,33
"2195",2701,12,1,1,"truth_cond",NA,1,0,34
"2196",2701,21,1,1,"truth_cond",NA,1,0,35
"2197",2701,36,1,1,"truth_cond",NA,0,0,36
"2198",2701,8,1,1,"truth_cond",NA,0,0,37
"2199",2701,6,1,1,"truth_cond",NA,0,1,38
"2200",2701,3,1,1,"truth_cond",NA,0,1,39
"2201",2700,8,1,1,"false_cond",NA,0,1,0
"2202",2700,22,1,1,"false_cond",NA,1,1,1
"2203",2700,40,1,1,"false_cond",NA,0,0,2
"2204",2700,30,1,1,"false_cond",NA,1,0,3
"2205",2700,24,1,1,"false_cond",NA,0,1,4
"2206",2700,18,1,1,"false_cond",NA,0,1,5
"2207",2700,23,1,1,"false_cond",NA,1,0,6
"2208",2700,31,1,1,"false_cond",NA,0,0,7
"2209",2700,13,1,1,"false_cond",NA,1,1,8
"2210",2700,3,1,1,"false_cond",NA,0,0,9
"2211",2700,16,1,1,"false_cond",NA,1,0,10
"2212",2700,25,1,1,"false_cond",NA,0,0,11
"2213",2700,20,1,1,"false_cond",NA,0,1,12
"2214",2700,4,1,1,"false_cond",NA,0,1,13
"2215",2700,17,1,1,"false_cond",NA,0,1,14
"2216",2700,32,1,1,"false_cond",NA,1,0,15
"2217",2700,27,1,1,"false_cond",NA,1,1,16
"2218",2700,14,1,1,"false_cond",NA,0,0,17
"2219",2700,28,1,1,"false_cond",NA,0,0,18
"2220",2700,36,1,1,"false_cond",NA,0,1,19
"2221",2700,26,1,1,"false_cond",NA,1,0,20
"2222",2700,2,1,1,"false_cond",NA,1,0,21
"2223",2700,7,1,1,"false_cond",NA,0,1,22
"2224",2700,34,1,1,"false_cond",NA,1,1,23
"2225",2700,19,1,1,"false_cond",NA,0,0,24
"2226",2700,6,1,1,"false_cond",NA,1,0,25
"2227",2700,35,1,1,"false_cond",NA,1,0,26
"2228",2700,37,1,1,"false_cond",NA,1,1,27
"2229",2700,29,1,1,"false_cond",NA,1,0,28
"2230",2700,1,1,1,"false_cond",NA,0,0,29
"2231",2700,38,1,1,"false_cond",NA,1,0,30
"2232",2700,12,1,1,"false_cond",NA,1,1,31
"2233",2700,21,1,1,"false_cond",NA,0,0,32
"2234",2700,15,1,1,"false_cond",NA,0,1,33
"2235",2700,9,1,1,"false_cond",NA,0,1,34
"2236",2700,5,1,1,"false_cond",NA,1,1,35
"2237",2700,33,1,1,"false_cond",NA,0,1,36
"2238",2700,39,1,1,"false_cond",NA,1,1,37
"2239",2700,10,1,1,"false_cond",NA,0,1,38
"2240",2700,11,1,1,"false_cond",NA,0,0,39
"2241",2699,12,1,1,"false_cond",NA,0,1,0
"2242",2699,15,1,1,"false_cond",NA,1,0,1
"2243",2699,21,1,1,"false_cond",NA,1,1,2
"2244",2699,19,1,1,"false_cond",NA,1,1,3
"2245",2699,30,1,1,"false_cond",NA,1,0,4
"2246",2699,36,1,1,"false_cond",NA,0,0,5
"2247",2699,5,1,1,"false_cond",NA,1,0,6
"2248",2699,3,1,1,"false_cond",NA,0,1,7
"2249",2699,31,1,1,"false_cond",NA,1,0,8
"2250",2699,39,1,1,"false_cond",NA,0,1,9
"2251",2699,20,1,1,"false_cond",NA,1,1,10
"2252",2699,26,1,1,"false_cond",NA,0,1,11
"2253",2699,6,1,1,"false_cond",NA,1,1,12
"2254",2699,34,1,1,"false_cond",NA,1,1,13
"2255",2699,23,1,1,"false_cond",NA,0,0,14
"2256",2699,40,1,1,"false_cond",NA,0,0,15
"2257",2699,9,1,1,"false_cond",NA,0,1,16
"2258",2699,2,1,1,"false_cond",NA,0,0,17
"2259",2699,29,1,1,"false_cond",NA,0,0,18
"2260",2699,17,1,1,"false_cond",NA,1,0,19
"2261",2699,27,1,1,"false_cond",NA,0,1,20
"2262",2699,8,1,1,"false_cond",NA,1,1,21
"2263",2699,37,1,1,"false_cond",NA,1,1,22
"2264",2699,1,1,1,"false_cond",NA,0,0,23
"2265",2699,25,1,1,"false_cond",NA,0,0,24
"2266",2699,16,1,1,"false_cond",NA,0,0,25
"2267",2699,10,1,1,"false_cond",NA,1,0,26
"2268",2699,7,1,1,"false_cond",NA,1,1,27
"2269",2699,11,1,1,"false_cond",NA,0,0,28
"2270",2699,28,1,1,"false_cond",NA,0,0,29
"2271",2699,24,1,1,"false_cond",NA,0,0,30
"2272",2699,4,1,1,"false_cond",NA,0,1,31
"2273",2699,33,1,1,"false_cond",NA,0,1,32
"2274",2699,14,1,1,"false_cond",NA,0,0,33
"2275",2699,32,1,1,"false_cond",NA,1,1,34
"2276",2699,22,1,1,"false_cond",NA,1,0,35
"2277",2699,13,1,1,"false_cond",NA,0,0,36
"2278",2699,38,1,1,"false_cond",NA,1,1,37
"2279",2699,18,1,1,"false_cond",NA,1,1,38
"2280",2699,35,1,1,"false_cond",NA,1,1,39
"2281",2698,23,1,1,"truth_cond",NA,0,0,0
"2282",2698,28,1,1,"truth_cond",NA,0,1,1
"2283",2698,24,1,1,"truth_cond",NA,0,0,2
"2284",2698,13,1,1,"truth_cond",NA,0,0,3
"2285",2698,5,1,1,"truth_cond",NA,0,0,4
"2286",2698,32,1,1,"truth_cond",NA,1,1,5
"2287",2698,11,1,1,"truth_cond",NA,1,0,6
"2288",2698,39,1,1,"truth_cond",NA,1,1,7
"2289",2698,19,1,1,"truth_cond",NA,1,0,8
"2290",2698,2,1,1,"truth_cond",NA,1,0,9
"2291",2698,8,1,1,"truth_cond",NA,1,1,10
"2292",2698,9,1,1,"truth_cond",NA,1,0,11
"2293",2698,21,1,1,"truth_cond",NA,0,1,12
"2294",2698,22,1,1,"truth_cond",NA,1,0,13
"2295",2698,15,1,1,"truth_cond",NA,1,0,14
"2296",2698,17,1,1,"truth_cond",NA,0,1,15
"2297",2698,7,1,1,"truth_cond",NA,1,0,16
"2298",2698,33,1,1,"truth_cond",NA,1,0,17
"2299",2698,3,1,1,"truth_cond",NA,0,1,18
"2300",2698,16,1,1,"truth_cond",NA,1,1,19
"2301",2698,38,1,1,"truth_cond",NA,1,1,20
"2302",2698,40,1,1,"truth_cond",NA,1,1,21
"2303",2698,29,1,1,"truth_cond",NA,0,1,22
"2304",2698,1,1,1,"truth_cond",NA,1,0,23
"2305",2698,37,1,1,"truth_cond",NA,1,1,24
"2306",2698,14,1,1,"truth_cond",NA,0,0,25
"2307",2698,27,1,1,"truth_cond",NA,1,0,26
"2308",2698,4,1,1,"truth_cond",NA,1,0,27
"2309",2698,6,1,1,"truth_cond",NA,1,1,28
"2310",2698,36,1,1,"truth_cond",NA,0,1,29
"2311",2698,20,1,1,"truth_cond",NA,0,1,30
"2312",2698,31,1,1,"truth_cond",NA,1,1,31
"2313",2698,26,1,1,"truth_cond",NA,1,1,32
"2314",2698,10,1,1,"truth_cond",NA,0,1,33
"2315",2698,25,1,1,"truth_cond",NA,1,0,34
"2316",2698,34,1,1,"truth_cond",NA,1,0,35
"2317",2698,30,1,1,"truth_cond",NA,1,1,36
"2318",2698,35,1,1,"truth_cond",NA,1,0,37
"2319",2698,12,1,1,"truth_cond",NA,1,0,38
"2320",2698,18,1,1,"truth_cond",NA,1,1,39
"2321",2696,27,1,1,"false_cond",NA,0,1,0
"2322",2696,12,1,1,"false_cond",NA,1,0,1
"2323",2696,37,1,1,"false_cond",NA,0,1,2
"2324",2696,33,1,1,"false_cond",NA,1,0,3
"2325",2696,8,1,1,"false_cond",NA,1,0,4
"2326",2696,5,1,1,"false_cond",NA,1,0,5
"2327",2696,11,1,1,"false_cond",NA,1,0,6
"2328",2696,40,1,1,"false_cond",NA,0,1,7
"2329",2696,22,1,1,"false_cond",NA,1,0,8
"2330",2696,1,1,1,"false_cond",NA,0,1,9
"2331",2696,21,1,1,"false_cond",NA,1,0,10
"2332",2696,34,1,1,"false_cond",NA,1,0,11
"2333",2696,13,1,1,"false_cond",NA,1,1,12
"2334",2696,29,1,1,"false_cond",NA,0,1,13
"2335",2696,30,1,1,"false_cond",NA,1,0,14
"2336",2696,2,1,1,"false_cond",NA,0,1,15
"2337",2696,19,1,1,"false_cond",NA,1,0,16
"2338",2696,14,1,1,"false_cond",NA,1,0,17
"2339",2696,28,1,1,"false_cond",NA,0,1,18
"2340",2696,25,1,1,"false_cond",NA,1,0,19
"2341",2696,31,1,1,"false_cond",NA,0,1,20
"2342",2696,39,1,1,"false_cond",NA,1,0,21
"2343",2696,18,1,1,"false_cond",NA,0,1,22
"2344",2696,38,1,1,"false_cond",NA,0,1,23
"2345",2696,23,1,1,"false_cond",NA,0,1,24
"2346",2696,36,1,1,"false_cond",NA,0,1,25
"2347",2696,16,1,1,"false_cond",NA,1,0,26
"2348",2696,26,1,1,"false_cond",NA,0,1,27
"2349",2696,24,1,1,"false_cond",NA,0,1,28
"2350",2696,7,1,1,"false_cond",NA,0,1,29
"2351",2696,10,1,1,"false_cond",NA,1,0,30
"2352",2696,20,1,1,"false_cond",NA,0,1,31
"2353",2696,32,1,1,"false_cond",NA,1,0,32
"2354",2696,35,1,1,"false_cond",NA,0,1,33
"2355",2696,6,1,1,"false_cond",NA,0,1,34
"2356",2696,15,1,1,"false_cond",NA,1,0,35
"2357",2696,17,1,1,"false_cond",NA,1,0,36
"2358",2696,4,1,1,"false_cond",NA,0,1,37
"2359",2696,9,1,1,"false_cond",NA,1,0,38
"2360",2696,3,1,1,"false_cond",NA,1,0,39
"2361",2695,15,1,1,"false_cond",NA,1,0,0
"2362",2695,16,1,1,"false_cond",NA,1,1,1
"2363",2695,3,1,1,"false_cond",NA,0,1,2
"2364",2695,28,1,1,"false_cond",NA,0,0,3
"2365",2695,33,1,1,"false_cond",NA,1,0,4
"2366",2695,11,1,1,"false_cond",NA,0,1,5
"2367",2695,36,1,1,"false_cond",NA,0,0,6
"2368",2695,37,1,1,"false_cond",NA,1,1,7
"2369",2695,35,1,1,"false_cond",NA,1,1,8
"2370",2695,39,1,1,"false_cond",NA,0,1,9
"2371",2695,9,1,1,"false_cond",NA,0,1,10
"2372",2695,26,1,1,"false_cond",NA,1,0,11
"2373",2695,19,1,1,"false_cond",NA,1,0,12
"2374",2695,29,1,1,"false_cond",NA,0,0,13
"2375",2695,1,1,1,"false_cond",NA,1,0,14
"2376",2695,5,1,1,"false_cond",NA,1,1,15
"2377",2695,14,1,1,"false_cond",NA,1,1,16
"2378",2695,32,1,1,"false_cond",NA,0,0,17
"2379",2695,6,1,1,"false_cond",NA,0,0,18
"2380",2695,40,1,1,"false_cond",NA,1,1,19
"2381",2695,31,1,1,"false_cond",NA,0,1,20
"2382",2695,10,1,1,"false_cond",NA,1,0,21
"2383",2695,38,1,1,"false_cond",NA,0,1,22
"2384",2695,23,1,1,"false_cond",NA,1,1,23
"2385",2695,12,1,1,"false_cond",NA,0,0,24
"2386",2695,21,1,1,"false_cond",NA,1,1,25
"2387",2695,7,1,1,"false_cond",NA,1,0,26
"2388",2695,30,1,1,"false_cond",NA,1,0,27
"2389",2695,17,1,1,"false_cond",NA,1,1,28
"2390",2695,24,1,1,"false_cond",NA,0,0,29
"2391",2695,25,1,1,"false_cond",NA,1,1,30
"2392",2695,8,1,1,"false_cond",NA,1,0,31
"2393",2695,2,1,1,"false_cond",NA,1,0,32
"2394",2695,4,1,1,"false_cond",NA,1,0,33
"2395",2695,22,1,1,"false_cond",NA,1,1,34
"2396",2695,27,1,1,"false_cond",NA,0,1,35
"2397",2695,20,1,1,"false_cond",NA,0,1,36
"2398",2695,18,1,1,"false_cond",NA,1,0,37
"2399",2695,34,1,1,"false_cond",NA,0,0,38
"2400",2695,13,1,1,"false_cond",NA,0,1,39
"2401",2693,5,1,1,"truth_cond",NA,1,1,0
"2402",2693,4,1,1,"truth_cond",NA,0,1,1
"2403",2693,26,1,1,"truth_cond",NA,1,1,2
"2404",2693,40,1,1,"truth_cond",NA,1,1,3
"2405",2693,11,1,1,"truth_cond",NA,1,0,4
"2406",2693,27,1,1,"truth_cond",NA,1,0,5
"2407",2693,19,1,1,"truth_cond",NA,0,1,6
"2408",2693,36,1,1,"truth_cond",NA,0,0,7
"2409",2693,7,1,1,"truth_cond",NA,0,0,8
"2410",2693,1,1,1,"truth_cond",NA,0,0,9
"2411",2693,3,1,1,"truth_cond",NA,1,0,10
"2412",2693,8,1,1,"truth_cond",NA,1,0,11
"2413",2693,21,1,1,"truth_cond",NA,1,0,12
"2414",2693,30,1,1,"truth_cond",NA,1,0,13
"2415",2693,15,1,1,"truth_cond",NA,0,0,14
"2416",2693,9,1,1,"truth_cond",NA,0,1,15
"2417",2693,6,1,1,"truth_cond",NA,1,0,16
"2418",2693,10,1,1,"truth_cond",NA,1,1,17
"2419",2693,20,1,1,"truth_cond",NA,1,1,18
"2420",2693,29,1,1,"truth_cond",NA,0,0,19
"2421",2693,38,1,1,"truth_cond",NA,1,1,20
"2422",2693,2,1,1,"truth_cond",NA,1,1,21
"2423",2693,22,1,1,"truth_cond",NA,1,1,22
"2424",2693,37,1,1,"truth_cond",NA,0,0,23
"2425",2693,12,1,1,"truth_cond",NA,1,1,24
"2426",2693,18,1,1,"truth_cond",NA,1,0,25
"2427",2693,28,1,1,"truth_cond",NA,1,1,26
"2428",2693,25,1,1,"truth_cond",NA,0,1,27
"2429",2693,32,1,1,"truth_cond",NA,1,1,28
"2430",2693,24,1,1,"truth_cond",NA,1,1,29
"2431",2693,39,1,1,"truth_cond",NA,0,1,30
