"","subject","statement_identifier","presentation_identifier","within_identifier","between_identifier","rt","response","repeated","trial"
"1",1030,16,"test",1,1,3.161,0,NA,NA
"2",1137,35,"test",1,1,10.012,0,NA,NA
"3",1160,32,"test",1,1,2.58,0,NA,NA
"4",942,25,"test",1,1,8.944,0,NA,NA
"5",1113,17,"test",1,1,16.28,1,1,NA
"6",1184,28,"test",1,1,3.836,0,NA,NA
"7",985,15,"test",1,1,6.107,0,1,NA
"8",972,23,"test",1,1,6.945,0,1,NA
"9",942,11,"test",1,1,10.152,0,NA,NA
"10",942,20,"test",1,1,4.401,1,1,NA
"11",1039,1,"test",1,1,12.132,0,NA,NA
"12",965,30,"test",1,1,4.603,0,1,NA
"13",972,16,"test",1,1,2.416,0,NA,NA
"14",1065,12,"test",1,1,9.698,0,NA,NA
"15",1203,29,"test",1,1,10.094,0,NA,NA
"16",1104,7,"test",1,1,10.355,0,1,NA
"17",1022,11,"test",1,1,10.36,1,1,NA
"18",1160,20,"test",1,1,5.566,1,NA,NA
"19",1203,27,"test",1,1,8.556,0,NA,NA
"20",1001,29,"test",1,1,6.968,0,1,NA
"21",985,8,"test",1,1,7.975,1,1,NA
"22",1001,28,"test",1,1,10.493,1,NA,NA
"23",1005,22,"test",1,1,6.374,1,NA,NA
"24",953,38,"test",1,1,10.523,1,NA,NA
"25",1027,24,"test",1,1,21.486,0,NA,NA
"26",1139,6,"test",1,1,10.56,0,NA,NA
"27",1006,36,"test",1,1,10.568,0,NA,NA
"28",1160,2,"test",1,1,2.89,1,1,NA
"29",1049,23,"test",1,1,10.625,0,1,NA
"30",1113,31,"test",1,1,11.795,0,NA,NA
"31",1034,7,"test",1,1,10.674,0,1,NA
"32",1079,27,"test",1,1,10.683,0,NA,NA
"33",975,33,"test",1,1,5.414,0,1,NA
"34",1160,10,"test",1,1,5.766,0,NA,NA
"35",981,17,"test",1,1,10.774,1,NA,NA
"36",1167,21,"test",1,1,4.532,0,1,NA
"37",985,10,"test",1,1,18.284,1,1,NA
"38",1059,21,"test",1,1,5.437,0,NA,NA
"39",1030,30,"test",1,1,4.952,1,NA,NA
"40",1203,19,"test",1,1,5.257,0,NA,NA
"41",972,30,"test",1,1,8.341,1,NA,NA
"42",1128,1,"test",1,1,9.93,1,NA,NA
"43",1160,6,"test",1,1,19.374,0,NA,NA
"44",1098,22,"test",1,1,10.919,1,NA,NA
"45",1065,28,"test",1,1,10.947,1,1,NA
"46",1196,11,"test",1,1,5.907,0,1,NA
"47",972,7,"test",1,1,10.065,1,NA,NA
"48",1160,36,"test",1,1,2.721,1,1,NA
"49",971,32,"test",1,1,6.352,1,NA,NA
"50",972,32,"test",1,1,7.085,0,NA,NA
"51",972,27,"test",1,1,12.062,1,1,NA
"52",972,31,"test",1,1,10.364,1,NA,NA
"53",1148,21,"test",1,1,17.876,1,NA,NA
"54",985,4,"test",1,1,8.27,1,NA,NA
"55",1148,29,"test",1,1,11.365,1,NA,NA
"56",1030,25,"test",1,1,13.504,0,NA,NA
"57",965,37,"test",1,1,8.756,1,NA,NA
"58",942,3,"test",1,1,5.632,1,1,NA
"59",1039,14,"test",1,1,6.363,1,1,NA
"60",1160,38,"test",1,1,5.369,1,NA,NA
"61",1206,29,"test",1,1,9.219,0,NA,NA
"62",1123,28,"test",1,1,11.433,1,NA,NA
"63",972,36,"test",1,1,2.548,1,NA,NA
"64",1120,14,"test",1,1,11.486,1,NA,NA
"65",1166,12,"test",1,1,11.499,0,NA,NA
"66",1210,8,"test",1,1,11.529,0,1,NA
"67",975,1,"test",1,1,16.328,1,NA,NA
"68",1133,5,"test",1,1,11.532,1,NA,NA
"69",972,8,"test",1,1,7.467,0,1,NA
"70",1160,24,"test",1,1,3.372,1,NA,NA
"71",1160,35,"test",1,1,2.853,1,NA,NA
"72",1128,27,"test",1,1,11.869,1,NA,NA
"73",1011,8,"test",1,1,11.912,1,1,NA
"74",1160,30,"test",1,1,22.024,0,NA,NA
"75",965,22,"test",1,1,10.455,1,NA,NA
"76",1001,22,"test",1,1,13.788,1,NA,NA
"77",1184,35,"test",1,1,2.919,0,NA,NA
"78",1202,18,"test",1,1,4.665,0,NA,NA
"79",1031,28,"test",1,1,12.238,1,NA,NA
"80",1202,16,"test",1,1,2.413,0,1,NA
"81",1160,3,"test",1,1,4.41,1,NA,NA
"82",1157,1,"test",1,1,5.216,0,1,NA
"83",1202,21,"test",1,1,18.29,1,1,NA
"84",942,22,"test",1,1,12.368,1,1,NA
"85",1202,5,"test",1,1,7.869,0,NA,NA
"86",972,1,"test",1,1,41.045,0,NA,NA
"87",1202,23,"test",1,1,1.838,1,1,NA
"88",975,39,"test",1,1,14.449,1,NA,NA
"89",1206,3,"test",1,1,5.676,1,1,NA
"90",1202,28,"test",1,1,5.126,1,NA,NA
"91",965,14,"test",1,1,6.568,0,NA,NA
"92",1005,21,"test",1,1,11.513,0,1,NA
"93",1203,25,"test",1,1,8.216,1,1,NA
"94",1160,37,"test",1,1,4.424,0,NA,NA
"95",1202,22,"test",1,1,3.558,1,1,NA
"96",1202,1,"test",1,1,4.217,1,1,NA
"97",1030,10,"test",1,1,19.417,0,1,NA
"98",942,28,"test",1,1,11.113,0,NA,NA
"99",1199,19,"test",1,1,12.831,1,1,NA
"100",985,29,"test",1,1,10.27,0,NA,NA
"101",1051,8,"test",1,1,4.976,1,NA,NA
"102",1202,13,"test",1,1,2.585,0,NA,NA
"103",1202,26,"test",1,1,2.811,1,1,NA
"104",1160,31,"test",1,1,8.215,1,1,NA
"105",1202,32,"test",1,1,4.196,1,NA,NA
"106",1160,25,"test",1,1,8.88,0,NA,NA
"107",1059,6,"test",1,1,13.347,0,NA,NA
"108",942,15,"test",1,1,7.814,1,1,NA
"109",1160,11,"test",1,1,6.807,0,NA,NA
"110",971,4,"test",1,1,19.231,1,NA,NA
"111",998,5,"test",1,1,0.899,0,1,NA
"112",1068,36,"test",1,1,5.306,0,NA,NA
"113",1202,4,"test",1,1,2.419,0,1,NA
"114",1059,8,"test",1,1,13.622,0,NA,NA
"115",1202,9,"test",1,1,54.977,0,NA,NA
"116",1160,21,"test",1,1,8.116,1,NA,NA
"117",1067,18,"test",1,1,1.365,1,NA,NA
"118",1005,28,"test",1,1,13.658,1,NA,NA
"119",941,37,"test",1,1,0.15,0,NA,NA
"120",1202,39,"test",1,1,5.779,0,NA,NA
"121",1160,1,"test",1,1,7.926,0,NA,NA
"122",1209,33,"test",1,1,13.914,1,NA,NA
"123",1039,4,"test",1,1,12.393,1,NA,NA
"124",1083,2,"test",1,1,1.398,1,1,NA
"125",1071,19,"test",1,1,1.406,0,1,NA
"126",1160,33,"test",1,1,15.921,0,NA,NA
"127",941,22,"test",1,1,0.206,0,NA,NA
"128",1202,17,"test",1,1,4.873,0,NA,NA
"129",1012,4,"test",1,1,1.024,1,NA,NA
"130",1067,19,"test",1,1,1.487,0,1,NA
"131",1012,10,"test",1,1,0.607,1,NA,NA
"132",1012,20,"test",1,1,1.527,1,1,NA
"133",941,8,"test",1,1,0.232,1,NA,NA
"134",1160,17,"test",1,1,38.732,1,1,NA
"135",1160,39,"test",1,1,17.844,1,NA,NA
"136",1012,19,"test",1,1,1.309,0,1,NA
"137",1202,30,"test",1,1,6.759,1,1,NA
"138",1012,7,"test",1,1,0.701,0,1,NA
"139",941,38,"test",1,1,0.21,1,NA,NA
"140",1012,22,"test",1,1,0.505,0,1,NA
"141",1202,15,"test",1,1,2.553,0,1,NA
"142",1203,2,"test",1,1,6.997,1,NA,NA
"143",1012,33,"test",1,1,0.871,1,NA,NA
"144",1012,16,"test",1,1,1.694,1,NA,NA
"145",941,11,"test",1,1,0.219,0,1,NA
"146",1012,38,"test",1,1,0.74,1,NA,NA
"147",1040,33,"test",1,1,1.14,1,1,NA
"148",1226,24,"test",1,1,1.432,1,NA,NA
"149",1202,35,"test",1,1,2.627,1,NA,NA
"150",985,26,"test",1,1,15.454,1,NA,NA
"151",1012,2,"test",1,1,1.306,1,NA,NA
"152",1040,34,"test",1,1,0.801,1,1,NA
"153",941,18,"test",1,1,0.079,1,1,NA
"154",1039,21,"test",1,1,15.483,1,1,NA
"155",1040,36,"test",1,1,1.286,0,NA,NA
"156",1012,39,"test",1,1,0.835,1,NA,NA
"157",1040,25,"test",1,1,1.035,0,NA,NA
"158",965,9,"test",1,1,12.318,1,1,NA
"159",1224,26,"test",1,1,15.578,0,NA,NA
"160",1040,20,"test",1,1,1.803,0,NA,NA
"161",1040,37,"test",1,1,2.367,1,NA,NA
"162",998,20,"test",1,1,1.113,0,1,NA
"163",1040,23,"test",1,1,1.975,1,NA,NA
"164",1040,35,"test",1,1,1.475,0,NA,NA
"165",1226,11,"test",1,1,1.699,1,NA,NA
"166",972,25,"test",1,1,15.728,1,NA,NA
"167",1040,32,"test",1,1,1.283,0,1,NA
"168",1226,10,"test",1,1,1.413,1,1,NA
"169",1202,14,"test",1,1,4.132,1,1,NA
"170",1012,23,"test",1,1,0.548,1,1,NA
"171",1040,4,"test",1,1,0.117,0,NA,NA
"172",1040,26,"test",1,1,2.666,1,NA,NA
"173",1041,34,"test",1,1,158.315,1,NA,NA
"174",941,14,"test",1,1,0.233,1,NA,NA
"175",1180,2,"test",1,1,1.595,1,1,NA
"176",1196,27,"test",1,1,15.997,0,1,NA
"177",1202,6,"test",1,1,1.997,1,1,NA
"178",1202,24,"test",1,1,21.875,0,NA,NA
"179",1012,36,"test",1,1,0.401,1,NA,NA
"180",1216,28,"test",1,1,16.163,0,NA,NA
"181",942,10,"test",1,1,20.006,0,1,NA
"182",941,27,"test",1,1,0.269,1,NA,NA
"183",1040,5,"test",1,1,0.678,1,NA,NA
"184",1202,20,"test",1,1,139.913,0,1,NA
"185",1226,36,"test",1,1,1.525,1,NA,NA
"186",1012,29,"test",1,1,0.5,0,NA,NA
"187",1202,34,"test",1,1,7.229,1,NA,NA
"188",1040,24,"test",1,1,1.065,0,1,NA
"189",1160,9,"test",1,1,2.85,1,1,NA
"190",941,9,"test",1,1,0.24,0,1,NA
"191",1184,12,"test",1,1,2.893,1,1,NA
"192",1174,22,"test",1,1,1.678,1,1,NA
"193",1226,17,"test",1,1,1.035,1,1,NA
"194",998,4,"test",1,1,1.365,1,NA,NA
"195",1040,27,"test",1,1,0.782,1,NA,NA
"196",1198,22,"test",1,1,0.998,1,1,NA
"197",1167,30,"test",1,1,17.037,1,NA,NA
"198",1012,17,"test",1,1,0.916,1,NA,NA
"199",1226,19,"test",1,1,1.419,1,1,NA
"200",1102,16,"test",1,1,1.581,1,1,NA
"201",998,25,"test",1,1,1.708,0,1,NA
"202",998,16,"test",1,1,1.516,0,NA,NA
"203",1202,25,"test",1,1,37.351,1,1,NA
"204",941,36,"test",1,1,0.251,0,1,NA
"205",1040,38,"test",1,1,1.714,1,NA,NA
"206",1040,9,"test",1,1,1.126,0,NA,NA
"207",1226,15,"test",1,1,0.868,0,1,NA
"208",998,29,"test",1,1,1.636,0,NA,NA
"209",1012,18,"test",1,1,0.795,0,1,NA
"210",998,11,"test",1,1,1.099,0,1,NA
"211",1040,19,"test",1,1,0.818,0,1,NA
"212",1226,20,"test",1,1,1.396,0,1,NA
"213",1226,25,"test",1,1,1.656,0,NA,NA
"214",1226,30,"test",1,1,1.201,0,NA,NA
"215",1226,26,"test",1,1,2.691,1,NA,NA
"216",1226,2,"test",1,1,2.58,0,NA,NA
"217",941,17,"test",1,1,0.112,0,1,NA
"218",1012,21,"test",1,1,0.951,1,1,NA
"219",1226,33,"test",1,1,1.525,0,NA,NA
"220",1226,13,"test",1,1,1.783,1,NA,NA
"221",1226,22,"test",1,1,1.323,0,1,NA
"222",1040,8,"test",1,1,1.362,0,NA,NA
"223",1226,31,"test",1,1,2.397,1,NA,NA
"224",1040,40,"test",1,1,1.2,1,NA,NA
"225",1226,4,"test",1,1,4.016,0,NA,NA
"226",1226,3,"test",1,1,1.378,0,NA,NA
"227",1040,29,"test",1,1,1.116,0,NA,NA
"228",1012,12,"test",1,1,1.501,1,1,NA
"229",1174,18,"test",1,1,1.061,1,1,NA
"230",1226,34,"test",1,1,1.613,1,NA,NA
"231",1226,21,"test",1,1,2.694,0,NA,NA
"232",1012,31,"test",1,1,0.955,1,NA,NA
"233",1226,32,"test",1,1,1.156,0,NA,NA
"234",941,24,"test",1,1,0.267,1,1,NA
"235",1040,16,"test",1,1,1.638,0,NA,NA
"236",1102,6,"test",1,1,1.839,1,1,NA
"237",1040,21,"test",1,1,0.702,0,1,NA
"238",1040,7,"test",1,1,2.722,1,1,NA
"239",1226,5,"test",1,1,2.143,0,NA,NA
"240",1226,14,"test",1,1,1.267,1,1,NA
"241",1102,1,"test",1,1,0.85,1,1,NA
"242",1226,35,"test",1,1,2.072,1,NA,NA
"243",1226,16,"test",1,1,1.321,0,1,NA
"244",998,24,"test",1,1,1.748,1,NA,NA
"245",1226,9,"test",1,1,2.088,0,1,NA
"246",1102,15,"test",1,1,1.331,0,NA,NA
"247",1226,1,"test",1,1,3.951,0,NA,NA
"248",1012,32,"test",1,1,1.024,0,1,NA
"249",1102,19,"test",1,1,0.861,1,1,NA
"250",998,9,"test",1,1,1.6,1,1,NA
"251",1041,18,"test",1,1,1.825,0,1,NA
"252",1226,23,"test",1,1,1.529,1,1,NA
"253",965,28,"test",1,1,18.825,0,NA,NA
"254",1226,12,"test",1,1,2.174,1,1,NA
"255",941,29,"test",1,1,0.229,1,NA,NA
"256",1102,40,"test",1,1,0.959,0,NA,NA
"257",1102,33,"test",1,1,2.953,1,NA,NA
"258",1226,28,"test",1,1,1.454,1,1,NA
"259",1226,8,"test",1,1,1.888,0,1,NA
"260",1102,37,"test",1,1,1.549,1,NA,NA
"261",1102,39,"test",1,1,1.29,0,NA,NA
"262",1102,12,"test",1,1,1.378,1,1,NA
"263",1040,12,"test",1,1,1.438,1,1,NA
"264",1102,25,"test",1,1,1.836,0,NA,NA
"265",998,3,"test",1,1,1.11,1,1,NA
"266",1012,27,"test",1,1,0.965,1,1,NA
"267",1102,31,"test",1,1,1.32,1,1,NA
"268",1226,39,"test",1,1,1.829,0,NA,NA
"269",1102,26,"test",1,1,1.904,1,1,NA
"270",1226,29,"test",1,1,3.862,1,NA,NA
"271",1102,34,"test",1,1,1.865,0,NA,NA
"272",1102,4,"test",1,1,0.82,1,1,NA
"273",1226,27,"test",1,1,1.896,1,1,NA
"274",1102,35,"test",1,1,1.298,0,NA,NA
"275",1102,30,"test",1,1,2.716,0,NA,NA
"276",1226,18,"test",1,1,2.564,0,NA,NA
"277",1226,7,"test",1,1,1.948,0,1,NA
"278",1226,6,"test",1,1,0.936,0,1,NA
"279",1041,37,"test",1,1,5.692,1,NA,NA
"280",1102,17,"test",1,1,3.362,1,1,NA
"281",1102,21,"test",1,1,3.099,0,NA,NA
"282",1102,28,"test",1,1,1.676,1,1,NA
"283",1102,20,"test",1,1,0.773,1,1,NA
"284",1174,13,"test",1,1,1.191,1,1,NA
"285",1206,21,"test",1,1,19.388,1,1,NA
"286",1040,13,"test",1,1,1.208,0,NA,NA
"287",1226,40,"test",1,1,2.964,0,NA,NA
"288",1102,10,"test",1,1,2.106,0,NA,NA
"289",941,12,"test",1,1,0.498,1,NA,NA
"290",1157,10,"test",1,1,19.46,0,NA,NA
"291",1226,38,"test",1,1,1.93,1,NA,NA
"292",1226,37,"test",1,1,2.305,1,NA,NA
"293",1102,29,"test",1,1,2.628,1,NA,NA
"294",998,38,"test",1,1,3.772,1,NA,NA
"295",1040,28,"test",1,1,1.164,0,1,NA
"296",1012,5,"test",1,1,1.558,1,NA,NA
"297",1041,10,"test",1,1,8.766,1,NA,NA
"298",998,14,"test",1,1,5.227,1,NA,NA
"299",1102,36,"test",1,1,1.473,1,1,NA
"300",973,17,"test",1,1,1.716,0,1,NA
"301",1109,11,"test",1,1,1.547,1,1,NA
"302",1012,40,"test",1,1,1.969,1,NA,NA
"303",1012,6,"test",1,1,1.366,0,NA,NA
"304",1040,1,"test",1,1,2.463,1,NA,NA
"305",973,4,"test",1,1,1.533,1,NA,NA
"306",1041,2,"test",1,1,1.615,0,1,NA
"307",1102,13,"test",1,1,1.154,0,NA,NA
"308",939,26,"test",1,1,1.443,0,NA,NA
"309",941,26,"test",1,1,1.594,0,NA,NA
"310",1102,9,"test",1,1,1.114,1,1,NA
"311",973,5,"test",1,1,1.143,0,1,NA
"312",939,7,"test",1,1,2.163,0,NA,NA
"313",939,40,"test",1,1,2.112,0,NA,NA
"314",1102,23,"test",1,1,1.559,1,1,NA
"315",998,12,"test",1,1,1.846,0,NA,NA
"316",1040,31,"test",1,1,1.204,0,NA,NA
"317",1071,18,"test",1,1,2.622,0,NA,NA
"318",939,8,"test",1,1,0.868,0,1,NA
"319",1041,19,"test",1,1,7.398,0,1,NA
"320",941,23,"test",1,1,0.611,0,1,NA
"321",1102,27,"test",1,1,3.971,1,NA,NA
"322",998,37,"test",1,1,1.644,1,NA,NA
"323",1012,8,"test",1,1,0.857,1,NA,NA
"324",998,21,"test",1,1,2.021,1,1,NA
"325",1109,21,"test",1,1,1.779,1,1,NA
"326",1102,38,"test",1,1,2.713,0,NA,NA
"327",973,28,"test",1,1,0.91,0,1,NA
"328",1109,37,"test",1,1,1.917,0,NA,NA
"329",1109,25,"test",1,1,1.582,0,1,NA
"330",998,26,"test",1,1,1.557,1,1,NA
"331",1109,39,"test",1,1,1.337,0,NA,NA
"332",1102,3,"test",1,1,1.918,1,1,NA
"333",998,31,"test",1,1,2.816,1,1,NA
"334",1109,13,"test",1,1,1.419,0,1,NA
"335",1041,28,"test",1,1,29.286,1,NA,NA
"336",998,10,"test",1,1,2.082,0,NA,NA
"337",998,15,"test",1,1,2.059,1,NA,NA
"338",1074,3,"test",1,1,2.042,1,NA,NA
"339",1102,7,"test",1,1,2.617,0,NA,NA
"340",1109,22,"test",1,1,1.389,1,1,NA
"341",939,6,"test",1,1,1.181,0,1,NA
"342",1109,1,"test",1,1,1.961,1,NA,NA
"343",1102,24,"test",1,1,0.915,1,1,NA
"344",998,32,"test",1,1,0.976,1,1,NA
"345",998,13,"test",1,1,2.085,0,NA,NA
"346",1109,24,"test",1,1,1.345,0,NA,NA
"347",1109,18,"test",1,1,1.167,0,1,NA
"348",1041,25,"test",1,1,2.349,0,1,NA
"349",973,19,"test",1,1,1.156,1,1,NA
"350",1109,26,"test",1,1,2.916,1,NA,NA
"351",973,13,"test",1,1,1.571,0,NA,NA
"352",939,9,"test",1,1,1.127,0,1,NA
"353",939,10,"test",1,1,1.906,0,1,NA
"354",1066,35,"test",1,1,2.071,1,NA,NA
"355",1109,33,"test",1,1,1.703,1,NA,NA
"356",973,16,"test",1,1,2.437,1,NA,NA
"357",939,16,"test",1,1,2.314,1,NA,NA
"358",939,11,"test",1,1,2.135,0,1,NA
"359",941,16,"test",1,1,0.339,1,NA,NA
"360",1109,15,"test",1,1,1.211,1,1,NA
"361",1051,18,"test",1,1,20.773,0,NA,NA
"362",1109,8,"test",1,1,1.19,0,NA,NA
"363",973,6,"test",1,1,2.344,1,NA,NA
"364",1040,22,"test",1,1,0.696,1,1,NA
"365",1109,38,"test",1,1,3.314,0,NA,NA
"366",1109,14,"test",1,1,2.946,1,NA,NA
"367",973,1,"test",1,1,1.455,1,1,NA
"368",1109,7,"test",1,1,1.7,0,1,NA
"369",1109,2,"test",1,1,1.683,1,1,NA
"370",939,17,"test",1,1,1.295,0,1,NA
"371",998,19,"test",1,1,1.906,0,NA,NA
"372",1012,15,"test",1,1,1.365,0,NA,NA
"373",1102,5,"test",1,1,2.892,1,NA,NA
"374",1109,29,"test",1,1,1.216,0,NA,NA
"375",998,27,"test",1,1,1.489,1,1,NA
"376",1109,17,"test",1,1,1.976,0,1,NA
"377",1041,16,"test",1,1,4.311,0,1,NA
"378",1109,32,"test",1,1,1.432,0,NA,NA
"379",973,31,"test",1,1,1.606,0,NA,NA
"380",939,28,"test",1,1,1.57,0,NA,NA
"381",1174,26,"test",1,1,3.055,1,NA,NA
"382",1109,40,"test",1,1,1.539,1,NA,NA
"383",1008,5,"test",1,1,1.29,1,1,NA
"384",1109,27,"test",1,1,1.291,0,1,NA
"385",1109,31,"test",1,1,0.973,0,NA,NA
"386",1008,27,"test",1,1,2.219,0,NA,NA
"387",973,11,"test",1,1,1.246,1,1,NA
"388",1109,19,"test",1,1,3.643,0,NA,NA
"389",1109,20,"test",1,1,1.29,0,1,NA
"390",1109,9,"test",1,1,2.162,0,NA,NA
"391",998,36,"test",1,1,1.755,0,NA,NA
"392",1109,30,"test",1,1,1.531,0,NA,NA
"393",1008,24,"test",1,1,2.461,0,NA,NA
"394",973,23,"test",1,1,2.298,0,NA,NA
"395",998,17,"test",1,1,5.15,1,NA,NA
"396",998,34,"test",1,1,1.694,1,NA,NA
"397",939,38,"test",1,1,1.574,0,NA,NA
"398",998,28,"test",1,1,2.317,0,NA,NA
"399",1008,20,"test",1,1,1.888,0,NA,NA
"400",1040,11,"test",1,1,2.113,1,NA,NA
"401",998,22,"test",1,1,1.258,1,1,NA
"402",1012,34,"test",1,1,1.367,1,1,NA
"403",941,21,"test",1,1,0.236,0,NA,NA
"404",998,8,"test",1,1,2.586,1,NA,NA
"405",1008,26,"test",1,1,2.044,0,NA,NA
"406",998,40,"test",1,1,1.756,1,NA,NA
"407",1109,12,"test",1,1,5.338,1,NA,NA
"408",1109,6,"test",1,1,1.573,1,NA,NA
"409",1008,32,"test",1,1,2.082,1,NA,NA
"410",1008,17,"test",1,1,1.942,0,NA,NA
"411",1008,19,"test",1,1,1.837,0,NA,NA
"412",1008,31,"test",1,1,1.453,1,1,NA
"413",1040,30,"test",1,1,1.252,0,NA,NA
"414",1068,25,"test",1,1,21.591,0,NA,NA
"415",1109,3,"test",1,1,2.322,0,NA,NA
"416",1041,38,"test",1,1,4.81,1,NA,NA
"417",1109,28,"test",1,1,1.765,0,NA,NA
"418",939,37,"test",1,1,1.691,0,NA,NA
"419",1008,9,"test",1,1,2.363,0,NA,NA
"420",1102,2,"test",1,1,1.65,1,1,NA
"421",1008,18,"test",1,1,1.735,0,NA,NA
"422",1008,1,"test",1,1,1.149,1,1,NA
"423",973,8,"test",1,1,2.091,1,NA,NA
"424",1109,10,"test",1,1,4.825,0,1,NA
"425",1008,22,"test",1,1,2.269,1,1,NA
"426",939,4,"test",1,1,1.647,0,1,NA
"427",973,15,"test",1,1,1.027,1,1,NA
"428",998,2,"test",1,1,1.534,1,1,NA
"429",973,29,"test",1,1,1.692,0,1,NA
"430",998,7,"test",1,1,3.26,1,NA,NA
"431",998,39,"test",1,1,3.087,1,NA,NA
"432",973,12,"test",1,1,0.957,1,1,NA
"433",939,20,"test",1,1,1.699,0,NA,NA
"434",1008,39,"test",1,1,3.052,0,NA,NA
"435",1036,19,"test",1,1,1.131,1,1,NA
"436",1109,16,"test",1,1,2.538,0,NA,NA
"437",939,22,"test",1,1,1.649,0,NA,NA
"438",1036,29,"test",1,1,1.689,1,1,NA
"439",1008,16,"test",1,1,1.581,0,NA,NA
"440",973,27,"test",1,1,1.921,0,NA,NA
"441",1174,4,"test",1,1,2.701,1,NA,NA
"442",998,35,"test",1,1,2.802,0,NA,NA
"443",1134,33,"test",1,1,2.06,0,NA,NA
"444",973,22,"test",1,1,9.731,0,NA,NA
"445",1036,38,"test",1,1,1.752,0,NA,NA
"446",1109,35,"test",1,1,1.557,0,1,NA
"447",939,2,"test",1,1,2.73,0,NA,NA
"448",939,3,"test",1,1,0.974,0,1,NA
"449",1134,6,"test",1,1,2.104,1,NA,NA
"450",939,15,"test",1,1,1.017,0,NA,NA
"451",1134,37,"test",1,1,1.854,1,NA,NA
"452",1008,34,"test",1,1,3.082,1,NA,NA
"453",939,36,"test",1,1,2.15,0,NA,NA
"454",1040,2,"test",1,1,0.919,1,NA,NA
"455",973,35,"test",1,1,3.407,0,NA,NA
"456",1036,27,"test",1,1,3.131,0,NA,NA
"457",939,27,"test",1,1,1.926,0,NA,NA
"458",998,30,"test",1,1,1.334,1,NA,NA
"459",1008,38,"test",1,1,1.661,0,NA,NA
"460",1036,16,"test",1,1,1.987,1,NA,NA
"461",1012,1,"test",1,1,2.172,1,1,NA
"462",1180,32,"test",1,1,2.831,0,NA,NA
"463",1134,24,"test",1,1,1.266,0,NA,NA
"464",1041,11,"test",1,1,10.259,0,NA,NA
"465",1012,3,"test",1,1,1.756,1,1,NA
"466",1036,39,"test",1,1,1.312,1,NA,NA
"467",1102,18,"test",1,1,1.865,0,NA,NA
"468",998,1,"test",1,1,3.503,1,1,NA
"469",1058,21,"test",1,1,2.225,1,1,NA
"470",939,13,"test",1,1,1.353,0,NA,NA
"471",973,34,"test",1,1,1.322,1,1,NA
"472",998,18,"test",1,1,6.373,0,NA,NA
"473",1054,18,"test",1,1,2.217,0,NA,NA
"474",1054,27,"test",1,1,1.085,0,1,NA
"475",1008,36,"test",1,1,2.014,0,NA,NA
"476",1008,33,"test",1,1,1.425,1,1,NA
"477",1134,40,"test",1,1,1.288,1,NA,NA
"478",1109,4,"test",1,1,2.103,0,NA,NA
"479",941,28,"test",1,1,0.306,1,NA,NA
"480",1008,13,"test",1,1,1.968,0,NA,NA
"481",1109,23,"test",1,1,4.055,1,NA,NA
"482",1134,18,"test",1,1,1.334,0,1,NA
"483",1134,14,"test",1,1,2.179,1,NA,NA
"484",1134,26,"test",1,1,1.819,1,NA,NA
"485",998,33,"test",1,1,2.513,0,1,NA
"486",1134,7,"test",1,1,4.039,1,1,NA
"487",1134,39,"test",1,1,2.216,1,NA,NA
"488",939,19,"test",1,1,1.381,0,NA,NA
"489",1134,38,"test",1,1,2.324,1,NA,NA
"490",1036,35,"test",1,1,1.396,0,NA,NA
"491",939,1,"test",1,1,1.771,0,1,NA
"492",1054,31,"test",1,1,3.087,0,NA,NA
"493",1041,33,"test",1,1,4.947,0,1,NA
"494",1012,30,"test",1,1,1.59,1,NA,NA
"495",1134,27,"test",1,1,2.593,0,NA,NA
"496",1073,15,"test",1,1,0.784,0,1,NA
"497",1008,30,"test",1,1,1.765,0,NA,NA
"498",998,6,"test",1,1,1.585,0,NA,NA
"499",1036,28,"test",1,1,1.792,0,NA,NA
"500",1054,36,"test",1,1,0.982,1,NA,NA
"501",939,33,"test",1,1,3.811,0,NA,NA
"502",1102,22,"test",1,1,2.237,0,NA,NA
"503",1109,34,"test",1,1,2.789,1,NA,NA
"504",939,25,"test",1,1,3.754,0,NA,NA
"505",994,20,"test",1,1,0.878,0,1,NA
"506",1134,10,"test",1,1,2.227,0,NA,NA
"507",1102,8,"test",1,1,2.251,0,NA,NA
"508",1134,23,"test",1,1,1.533,1,1,NA
"509",1134,32,"test",1,1,1.807,0,NA,NA
"510",1008,29,"test",1,1,3.058,1,NA,NA
"511",1102,11,"test",1,1,2.152,1,1,NA
"512",973,39,"test",1,1,1.347,1,NA,NA
"513",1036,18,"test",1,1,1.22,0,1,NA
"514",1036,30,"test",1,1,2.037,0,NA,NA
"515",1134,28,"test",1,1,3.445,1,NA,NA
"516",1036,6,"test",1,1,1.116,1,1,NA
"517",1036,12,"test",1,1,1.599,0,NA,NA
"518",1036,10,"test",1,1,5.973,0,1,NA
"519",939,5,"test",1,1,2.693,1,NA,NA
"520",1107,15,"test",1,1,0.991,1,1,NA
"521",1008,37,"test",1,1,1.274,1,1,NA
"522",1134,8,"test",1,1,2.799,1,NA,NA
"523",1155,24,"test",1,1,1.503,0,NA,NA
"524",939,14,"test",1,1,1.76,0,NA,NA
"525",1134,35,"test",1,1,1.55,1,NA,NA
"526",939,24,"test",1,1,1.259,0,1,NA
"527",1203,33,"test",1,1,22.958,1,NA,NA
"528",1102,32,"test",1,1,1.274,0,NA,NA
"529",1012,26,"test",1,1,1.574,1,1,NA
"530",1073,7,"test",1,1,0.894,1,NA,NA
"531",1054,30,"test",1,1,0.981,0,NA,NA
"532",1018,6,"test",1,1,2.042,1,NA,NA
"533",1127,10,"test",1,1,2.189,0,NA,NA
"534",1036,21,"test",1,1,3.188,1,NA,NA
"535",1134,3,"test",1,1,2.095,1,NA,NA
"536",1119,36,"test",1,1,1.712,0,1,NA
"537",1134,5,"test",1,1,2.443,1,NA,NA
"538",1134,25,"test",1,1,0.845,0,1,NA
"539",994,33,"test",1,1,1.876,0,1,NA
"540",998,23,"test",1,1,3.156,1,1,NA
"541",1036,7,"test",1,1,2.047,1,1,NA
"542",1134,9,"test",1,1,1.534,1,1,NA
"543",1134,11,"test",1,1,1.364,0,NA,NA
"544",1134,30,"test",1,1,1.327,0,1,NA
"545",1041,21,"test",1,1,13.965,0,NA,NA
"546",1086,20,"test",1,1,0.844,1,1,NA
"547",1127,19,"test",1,1,1.197,1,1,NA
"548",1155,20,"test",1,1,1.62,1,NA,NA
"549",1036,11,"test",1,1,2.194,0,NA,NA
"550",1155,2,"test",1,1,1.615,1,NA,NA
"551",1083,15,"test",1,1,3.242,0,NA,NA
"552",1036,20,"test",1,1,1.279,1,1,NA
"553",973,20,"test",1,1,1.125,0,1,NA
"554",1155,31,"test",1,1,2.499,0,NA,NA
"555",1012,37,"test",1,1,2.559,0,NA,NA
"556",945,20,"test",1,1,2.324,1,NA,NA
"557",996,34,"test",1,1,2.244,1,NA,NA
"558",1086,11,"test",1,1,1.869,1,1,NA
"559",1155,13,"test",1,1,1.721,1,1,NA
"560",941,5,"test",1,1,0.895,1,1,NA
"561",1036,9,"test",1,1,1.827,0,1,NA
"562",939,32,"test",1,1,3.293,0,NA,NA
"563",960,6,"test",1,1,1.223,1,1,NA
"564",1119,38,"test",1,1,2.693,0,NA,NA
"565",996,25,"test",1,1,1.725,0,1,NA
"566",1073,10,"test",1,1,1.352,1,NA,NA
"567",1107,22,"test",1,1,2.762,0,NA,NA
"568",1214,25,"test",1,1,2.334,1,1,NA
"569",1107,16,"test",1,1,2.347,0,NA,NA
"570",1040,17,"test",1,1,0.933,0,1,NA
"571",1054,20,"test",1,1,1.073,1,NA,NA
"572",1155,30,"test",1,1,2.744,1,NA,NA
"573",1155,27,"test",1,1,1.434,0,1,NA
"574",1086,40,"test",1,1,1.491,1,NA,NA
"575",1106,5,"test",1,1,1.955,1,NA,NA
"576",1134,16,"test",1,1,2.885,1,1,NA
"577",1155,1,"test",1,1,1.866,1,NA,NA
"578",1155,3,"test",1,1,2.907,1,1,NA
"579",1010,40,"test",1,1,1.384,1,NA,NA
"580",1010,1,"test",1,1,2.379,1,1,NA
"581",1155,16,"test",1,1,1.763,0,NA,NA
"582",1086,7,"test",1,1,3.066,0,NA,NA
"583",1036,31,"test",1,1,2.204,0,NA,NA
"584",1041,15,"test",1,1,21.981,1,1,NA
"585",1002,31,"test",1,1,1.534,0,NA,NA
"586",1008,8,"test",1,1,1.001,1,1,NA
"587",1106,3,"test",1,1,2.298,1,NA,NA
"588",1106,34,"test",1,1,1.43,1,NA,NA
"589",1134,12,"test",1,1,2.886,1,NA,NA
"590",1155,34,"test",1,1,2.715,0,NA,NA
"591",1041,22,"test",1,1,3.949,0,1,NA
"592",1086,3,"test",1,1,1.548,1,1,NA
"593",1036,3,"test",1,1,2.218,1,NA,NA
"594",1036,22,"test",1,1,0.868,1,1,NA
"595",1036,36,"test",1,1,2.41,1,NA,NA
"596",1134,4,"test",1,1,2.644,0,NA,NA
"597",1119,20,"test",1,1,1.488,0,NA,NA
"598",1107,18,"test",1,1,1.26,1,1,NA
"599",1155,4,"test",1,1,1.15,1,NA,NA
"600",1036,2,"test",1,1,2.607,1,1,NA
"601",1073,27,"test",1,1,1.316,1,1,NA
"602",1155,21,"test",1,1,4.727,1,NA,NA
"603",996,15,"test",1,1,2.736,1,NA,NA
"604",1223,22,"test",1,1,0.724,0,1,NA
"605",1036,25,"test",1,1,4.31,0,NA,NA
"606",1086,16,"test",1,1,2.129,1,1,NA
"607",1086,32,"test",1,1,1.562,1,1,NA
"608",1134,31,"test",1,1,1.018,0,1,NA
"609",973,9,"test",1,1,1.874,0,NA,NA
"610",1086,39,"test",1,1,1.615,1,NA,NA
"611",1155,19,"test",1,1,1.762,1,NA,NA
"612",1054,22,"test",1,1,1.326,1,1,NA
"613",1086,26,"test",1,1,3.433,1,NA,NA
"614",1106,28,"test",1,1,0.927,0,1,NA
"615",1155,28,"test",1,1,2.45,1,1,NA
"616",1010,13,"test",1,1,2.298,0,NA,NA
"617",1134,22,"test",1,1,3.1,0,NA,NA
"618",1010,35,"test",1,1,1.622,1,NA,NA
"619",1155,36,"test",1,1,3.797,0,NA,NA
"620",1107,2,"test",1,1,1.915,1,1,NA
"621",1107,8,"test",1,1,2.376,0,1,NA
"622",1012,24,"test",1,1,2.162,0,NA,NA
"623",1198,12,"test",1,1,2.383,1,1,NA
"624",1010,25,"test",1,1,3.614,1,NA,NA
"625",1018,24,"test",1,1,1.83,1,1,NA
"626",1107,40,"test",1,1,2.513,0,NA,NA
"627",1211,16,"test",1,1,1.179,1,1,NA
"628",1107,38,"test",1,1,2.437,0,NA,NA
"629",1012,25,"test",1,1,1.736,1,NA,NA
"630",973,33,"test",1,1,1.753,1,1,NA
"631",1073,20,"test",1,1,1.132,0,NA,NA
"632",1107,23,"test",1,1,3.692,1,NA,NA
"633",973,26,"test",1,1,1.336,1,1,NA
"634",1086,22,"test",1,1,3.221,1,NA,NA
"635",1086,35,"test",1,1,1.296,1,NA,NA
"636",1107,20,"test",1,1,1.868,0,NA,NA
"637",1010,38,"test",1,1,2.834,1,NA,NA
"638",1182,14,"test",1,1,1.396,1,1,NA
"639",939,12,"test",1,1,1.158,0,1,NA
"640",1010,4,"test",1,1,1.362,0,1,NA
"641",1155,15,"test",1,1,2.034,1,1,NA
"642",1155,35,"test",1,1,3.202,0,NA,NA
"643",960,1,"test",1,1,3.418,0,NA,NA
"644",941,13,"test",1,1,0.783,0,NA,NA
"645",1155,25,"test",1,1,3.745,0,NA,NA
"646",1223,7,"test",1,1,0.94,0,1,NA
"647",1054,29,"test",1,1,1.166,1,NA,NA
"648",1010,17,"test",1,1,2.129,0,1,NA
"649",996,9,"test",1,1,1.856,0,1,NA
"650",1107,13,"test",1,1,1.51,1,1,NA
"651",960,24,"test",1,1,1.54,0,NA,NA
"652",1106,27,"test",1,1,1.498,1,1,NA
"653",1127,36,"test",1,1,3.359,1,NA,NA
"654",1155,18,"test",1,1,2.25,0,NA,NA
"655",1002,24,"test",1,1,1.355,1,1,NA
"656",1010,6,"test",1,1,2.24,0,NA,NA
"657",1109,36,"test",1,1,1.37,0,NA,NA
"658",1002,38,"test",1,1,1.566,0,NA,NA
"659",973,40,"test",1,1,1.85,1,NA,NA
"660",1142,36,"test",1,1,1.625,0,NA,NA
"661",1010,8,"test",1,1,3.025,1,NA,NA
"662",1054,16,"test",1,1,0.792,0,1,NA
"663",1155,32,"test",1,1,1.934,0,NA,NA
"664",1073,12,"test",1,1,0.817,0,NA,NA
"665",973,2,"test",1,1,2.508,1,NA,NA
"666",1086,2,"test",1,1,2.191,1,NA,NA
"667",1041,12,"test",1,1,3.526,0,1,NA
"668",1182,8,"test",1,1,1.183,1,1,NA
"669",1008,14,"test",1,1,1.194,1,1,NA
"670",1086,9,"test",1,1,2.3,1,NA,NA
"671",1086,31,"test",1,1,1.898,1,NA,NA
"672",1182,30,"test",1,1,1.113,1,1,NA
"673",1086,28,"test",1,1,2.46,1,NA,NA
"674",1002,19,"test",1,1,1.764,1,1,NA
"675",1107,25,"test",1,1,3.574,0,NA,NA
"676",973,37,"test",1,1,2.241,1,NA,NA
"677",1086,19,"test",1,1,2.438,1,NA,NA
"678",1107,3,"test",1,1,1.402,1,1,NA
"679",973,14,"test",1,1,3.014,1,NA,NA
"680",1086,25,"test",1,1,1.691,1,NA,NA
"681",1106,2,"test",1,1,1.221,1,1,NA
"682",1127,26,"test",1,1,1.429,1,1,NA
"683",1054,37,"test",1,1,3.017,0,NA,NA
"684",1211,15,"test",1,1,1.952,1,NA,NA
"685",1223,27,"test",1,1,1.45,1,NA,NA
"686",1119,40,"test",1,1,1.875,0,NA,NA
"687",1002,1,"test",1,1,1.048,1,1,NA
"688",1010,32,"test",1,1,1.68,0,NA,NA
"689",1182,11,"test",1,1,2.641,0,NA,NA
"690",1134,2,"test",1,1,1.915,1,NA,NA
"691",1036,4,"test",1,1,1.907,1,1,NA
"692",1107,6,"test",1,1,2.348,1,1,NA
"693",1155,40,"test",1,1,1.271,1,NA,NA
"694",973,32,"test",1,1,1.531,1,NA,NA
"695",1086,30,"test",1,1,1.342,1,1,NA
"696",1086,15,"test",1,1,1.73,1,NA,NA
"697",1086,1,"test",1,1,3.067,1,NA,NA
"698",973,30,"test",1,1,1.89,0,NA,NA
"699",960,35,"test",1,1,1.772,0,NA,NA
"700",1010,3,"test",1,1,1.93,1,1,NA
"701",1040,14,"test",1,1,1.347,0,1,NA
"702",960,36,"test",1,1,1.915,1,NA,NA
"703",1002,40,"test",1,1,1.461,0,NA,NA
"704",1107,14,"test",1,1,1.15,1,1,NA
"705",1010,7,"test",1,1,4.695,1,NA,NA
"706",1107,12,"test",1,1,1.077,1,1,NA
"707",1134,13,"test",1,1,1.038,1,1,NA
"708",1155,9,"test",1,1,1.126,0,1,NA
"709",1146,11,"test",1,1,2.469,0,1,NA
"710",1223,4,"test",1,1,0.912,0,1,NA
"711",1211,21,"test",1,1,2.17,1,NA,NA
"712",1073,31,"test",1,1,1.278,1,NA,NA
"713",1107,39,"test",1,1,2.019,1,NA,NA
"714",973,21,"test",1,1,2.577,1,NA,NA
"715",1182,33,"test",1,1,2.147,0,NA,NA
"716",986,3,"test",1,1,1.633,1,1,NA
"717",960,37,"test",1,1,2.052,1,NA,NA
"718",976,9,"test",1,1,1.542,0,1,NA
"719",1106,19,"test",1,1,2.008,0,NA,NA
"720",1078,7,"test",1,1,1.525,1,1,NA
"721",1211,22,"test",1,1,1.921,1,1,NA
"722",1054,34,"test",1,1,1.644,1,1,NA
"723",1086,4,"test",1,1,1.104,1,1,NA
"724",960,7,"test",1,1,2.701,0,1,NA
"725",1010,5,"test",1,1,1.862,1,NA,NA
"726",1086,13,"test",1,1,1.132,1,1,NA
"727",1211,26,"test",1,1,1.467,1,1,NA
"728",1002,23,"test",1,1,3.735,1,NA,NA
"729",1012,13,"test",1,1,1.675,1,1,NA
"730",1134,29,"test",1,1,5.138,1,NA,NA
"731",1002,39,"test",1,1,1.716,0,NA,NA
"732",1211,8,"test",1,1,1.416,1,1,NA
"733",1107,33,"test",1,1,3.029,0,NA,NA
"734",1036,1,"test",1,1,1.483,0,NA,NA
"735",1086,33,"test",1,1,2.552,1,NA,NA
"736",1086,17,"test",1,1,3.157,0,NA,NA
"737",1086,37,"test",1,1,2.479,1,NA,NA
"738",941,3,"test",1,1,0.315,1,1,NA
"739",960,13,"test",1,1,1.591,0,NA,NA
"740",996,18,"test",1,1,1.583,0,1,NA
"741",1182,1,"test",1,1,1.702,1,1,NA
"742",1107,35,"test",1,1,2.035,0,NA,NA
"743",996,16,"test",1,1,1.636,0,1,NA
"744",1010,24,"test",1,1,1.846,1,NA,NA
"745",1010,22,"test",1,1,1.429,1,1,NA
"746",976,31,"test",1,1,1.564,0,1,NA
"747",1040,15,"test",1,1,0.898,1,1,NA
"748",1106,16,"test",1,1,2.234,1,NA,NA
"749",1185,37,"test",1,1,1.672,0,NA,NA
"750",1012,35,"test",1,1,2.332,0,NA,NA
"751",1086,14,"test",1,1,1.167,1,1,NA
"752",1178,4,"test",1,1,0.977,1,1,NA
"753",1107,28,"test",1,1,3.219,0,NA,NA
"754",973,25,"test",1,1,3.018,0,NA,NA
"755",1119,35,"test",1,1,2.443,0,NA,NA
"756",973,3,"test",1,1,1.629,0,1,NA
"757",1106,18,"test",1,1,1.36,0,1,NA
"758",1119,26,"test",1,1,1.849,0,1,NA
"759",1140,16,"test",1,1,1.787,1,1,NA
"760",1002,11,"test",1,1,1.924,1,1,NA
"761",1086,36,"test",1,1,2.592,0,NA,NA
"762",1107,37,"test",1,1,2.715,1,NA,NA
"763",1119,27,"test",1,1,1.358,0,1,NA
"764",1127,9,"test",1,1,1.411,1,1,NA
"765",960,15,"test",1,1,1.617,0,NA,NA
"766",1002,22,"test",1,1,1.364,0,NA,NA
"767",1182,15,"test",1,1,0.95,1,1,NA
"768",1107,11,"test",1,1,2.069,1,NA,NA
"769",1106,37,"test",1,1,1.732,1,NA,NA
"770",1211,13,"test",1,1,2.307,0,NA,NA
"771",1211,14,"test",1,1,1.385,1,1,NA
"772",1119,14,"test",1,1,1.535,0,NA,NA
"773",1054,32,"test",1,1,1.695,0,NA,NA
"774",1086,10,"test",1,1,3.55,1,NA,NA
"775",1010,15,"test",1,1,1.791,1,NA,NA
"776",1073,24,"test",1,1,0.92,1,1,NA
"777",960,27,"test",1,1,1.357,1,1,NA
"778",1041,23,"test",1,1,3.515,0,1,NA
"779",976,6,"test",1,1,1.32,0,1,NA
"780",1223,23,"test",1,1,1.23,0,1,NA
"781",1002,36,"test",1,1,1.212,0,NA,NA
"782",1008,12,"test",1,1,1.096,1,1,NA
"783",1119,31,"test",1,1,3.001,1,NA,NA
"784",1127,21,"test",1,1,1.936,1,1,NA
"785",1185,32,"test",1,1,1.552,0,NA,NA
"786",1198,26,"test",1,1,4.164,0,NA,NA
"787",1119,2,"test",1,1,2.38,0,NA,NA
"788",1130,27,"test",1,1,2.057,0,NA,NA
"789",1178,21,"test",1,1,3.377,1,NA,NA
"790",1119,15,"test",1,1,2.495,0,NA,NA
"791",1155,23,"test",1,1,2.195,1,NA,NA
"792",1211,36,"test",1,1,3.97,0,NA,NA
"793",1018,4,"test",1,1,1.674,0,NA,NA
"794",1119,16,"test",1,1,1.885,0,1,NA
"795",1142,16,"test",1,1,2.265,0,NA,NA
"796",1002,5,"test",1,1,1.49,0,NA,NA
"797",1002,10,"test",1,1,1.537,0,NA,NA
"798",1119,10,"test",1,1,2.203,0,1,NA
"799",1140,21,"test",1,1,1.821,1,NA,NA
"800",1182,19,"test",1,1,1.532,1,1,NA
"801",1107,31,"test",1,1,1.945,1,NA,NA
"802",1211,32,"test",1,1,2.572,0,NA,NA
"803",1010,10,"test",1,1,4.444,1,1,NA
"804",1002,4,"test",1,1,2.047,1,NA,NA
"805",1107,19,"test",1,1,2.83,1,NA,NA
"806",1119,32,"test",1,1,1.628,0,1,NA
"807",960,19,"test",1,1,0.928,0,1,NA
"808",1107,10,"test",1,1,3.226,0,1,NA
"809",1010,21,"test",1,1,3.779,0,NA,NA
"810",1107,17,"test",1,1,2.02,0,1,NA
"811",1211,31,"test",1,1,2.29,0,NA,NA
"812",1002,27,"test",1,1,1.613,1,1,NA
"813",1066,21,"test",1,1,1.988,1,1,NA
"814",1127,23,"test",1,1,1.305,1,1,NA
"815",1130,17,"test",1,1,2.061,0,NA,NA
"816",1220,24,"test",1,1,1.41,0,NA,NA
"817",1002,30,"test",1,1,1.398,1,1,NA
"818",1002,26,"test",1,1,1.755,0,NA,NA
"819",1010,20,"test",1,1,2.089,0,NA,NA
"820",1119,18,"test",1,1,3.013,0,NA,NA
"821",1071,24,"test",1,1,1.547,1,1,NA
"822",1140,38,"test",1,1,2.479,1,NA,NA
"823",1140,17,"test",1,1,2.548,0,NA,NA
"824",1106,14,"test",1,1,1.517,1,NA,NA
"825",1140,37,"test",1,1,1.789,1,NA,NA
"826",1010,18,"test",1,1,2.793,0,NA,NA
"827",1223,26,"test",1,1,1.754,1,NA,NA
"828",960,40,"test",1,1,1.547,1,NA,NA
"829",1002,15,"test",1,1,2.728,0,NA,NA
"830",1127,39,"test",1,1,2.042,0,NA,NA
"831",1178,27,"test",1,1,1.685,1,NA,NA
"832",1127,1,"test",1,1,2.552,1,1,NA
"833",1073,5,"test",1,1,1.274,0,1,NA
"834",1106,31,"test",1,1,3.465,0,NA,NA
"835",1155,39,"test",1,1,1.695,0,NA,NA
"836",1054,2,"test",1,1,1.824,1,1,NA
"837",1107,4,"test",1,1,1.97,1,NA,NA
"838",1140,1,"test",1,1,2.746,1,NA,NA
"839",1211,17,"test",1,1,1.439,1,1,NA
"840",939,23,"test",1,1,1.025,0,1,NA
"841",1119,22,"test",1,1,3.664,1,1,NA
"842",1130,8,"test",1,1,1.382,0,NA,NA
"843",1107,30,"test",1,1,2.977,1,NA,NA
"844",1011,27,"test",1,1,1.238,1,NA,NA
"845",1182,9,"test",1,1,2.11,0,NA,NA
"846",960,2,"test",1,1,1.405,1,1,NA
"847",960,9,"test",1,1,2.551,0,NA,NA
"848",1071,31,"test",1,1,3.031,1,NA,NA
"849",1211,27,"test",1,1,2.132,1,NA,NA
"850",1010,34,"test",1,1,4.135,1,1,NA
"851",960,38,"test",1,1,2.777,0,NA,NA
"852",1029,30,"test",1,1,1.597,0,NA,NA
"853",1119,13,"test",1,1,1.562,0,1,NA
"854",1119,39,"test",1,1,1.813,0,NA,NA
"855",1223,10,"test",1,1,3.105,1,NA,NA
"856",973,24,"test",1,1,4.271,0,NA,NA
"857",1107,26,"test",1,1,2.82,1,1,NA
"858",1002,9,"test",1,1,1.95,1,1,NA
"859",1002,20,"test",1,1,1.392,1,1,NA
"860",1102,14,"test",1,1,3.896,1,NA,NA
"861",1127,34,"test",1,1,1.363,1,NA,NA
"862",1010,26,"test",1,1,3.341,1,NA,NA
"863",1119,8,"test",1,1,3.416,0,NA,NA
"864",1140,19,"test",1,1,1.341,0,NA,NA
"865",1010,19,"test",1,1,2.413,1,NA,NA
"866",1036,23,"test",1,1,1.593,0,1,NA
"867",1119,28,"test",1,1,2.754,0,NA,NA
"868",1142,17,"test",1,1,2.744,0,NA,NA
"869",1220,1,"test",1,1,1.303,1,1,NA
"870",1072,20,"test",1,1,0.989,1,1,NA
"871",1178,19,"test",1,1,1.599,1,NA,NA
"872",1182,27,"test",1,1,6.144,1,NA,NA
"873",1211,6,"test",1,1,1.044,1,1,NA
"874",1211,20,"test",1,1,2.468,0,NA,NA
"875",1223,13,"test",1,1,0.788,0,1,NA
"876",1071,10,"test",1,1,1.686,1,1,NA
"877",1073,16,"test",1,1,2.438,1,1,NA
"878",960,32,"test",1,1,2.375,1,NA,NA
"879",1182,4,"test",1,1,6.262,1,NA,NA
"880",1155,7,"test",1,1,1.891,1,1,NA
"881",1002,17,"test",1,1,3.449,1,NA,NA
"882",1071,5,"test",1,1,1.658,1,1,NA
"883",1073,19,"test",1,1,1.101,0,NA,NA
"884",1211,7,"test",1,1,3.193,1,1,NA
"885",1002,3,"test",1,1,3.401,0,NA,NA
"886",1054,17,"test",1,1,2.052,1,NA,NA
"887",1107,1,"test",1,1,1.784,1,1,NA
"888",1010,9,"test",1,1,2.487,1,NA,NA
"889",1072,24,"test",1,1,1.457,0,NA,NA
"890",960,26,"test",1,1,1.703,1,1,NA
"891",973,38,"test",1,1,2.769,0,NA,NA
"892",1002,6,"test",1,1,2.567,1,1,NA
"893",1211,12,"test",1,1,2.714,0,NA,NA
"894",1106,15,"test",1,1,1.136,1,1,NA
"895",1127,33,"test",1,1,4.149,0,NA,NA
"896",1212,37,"test",1,1,2.033,1,NA,NA
"897",1002,29,"test",1,1,4.769,1,NA,NA
"898",1071,14,"test",1,1,1.441,1,NA,NA
"899",1072,23,"test",1,1,2.657,0,NA,NA
"900",1211,40,"test",1,1,1.971,0,NA,NA
"901",1086,38,"test",1,1,3.54,0,NA,NA
"902",1211,3,"test",1,1,2.092,1,1,NA
"903",1130,37,"test",1,1,2.226,1,1,NA
"904",1010,14,"test",1,1,1.626,1,1,NA
"905",1010,23,"test",1,1,3.272,1,1,NA
"906",1130,36,"test",1,1,1.606,0,NA,NA
"907",1119,33,"test",1,1,4.64,1,NA,NA
"908",1054,7,"test",1,1,2.131,0,NA,NA
"909",966,4,"test",1,1,0.996,1,1,NA
"910",1011,2,"test",1,1,2.333,1,NA,NA
"911",1220,17,"test",1,1,2.509,0,NA,NA
"912",1029,18,"test",1,1,2.098,0,NA,NA
"913",960,3,"test",1,1,1.151,1,1,NA
"914",1119,12,"test",1,1,3.149,0,NA,NA
"915",1212,18,"test",1,1,2.042,0,1,NA
"916",1002,18,"test",1,1,0.95,1,1,NA
"917",1023,13,"test",1,1,2.579,1,NA,NA
"918",1212,15,"test",1,1,1.071,1,1,NA
"919",1220,36,"test",1,1,3.663,1,NA,NA
"920",1220,6,"test",1,1,1.664,0,NA,NA
"921",1002,25,"test",1,1,1.466,1,NA,NA
"922",1211,33,"test",1,1,4.638,1,NA,NA
"923",1029,5,"test",1,1,2.68,0,NA,NA
"924",1130,20,"test",1,1,2.077,0,NA,NA
"925",1142,10,"test",1,1,2.539,1,1,NA
"926",1011,4,"test",1,1,1.38,1,NA,NA
"927",1018,28,"test",1,1,3.715,1,1,NA
"928",1054,35,"test",1,1,2.806,0,NA,NA
"929",1071,39,"test",1,1,1.901,1,NA,NA
"930",1182,3,"test",1,1,1.069,1,1,NA
"931",945,2,"test",1,1,1.627,1,NA,NA
"932",1178,16,"test",1,1,1.391,1,1,NA
"933",1185,15,"test",1,1,1.281,1,1,NA
"934",1220,40,"test",1,1,2.52,1,NA,NA
"935",1072,16,"test",1,1,1.191,1,1,NA
"936",1223,17,"test",1,1,1.791,1,NA,NA
"937",1071,7,"test",1,1,4.19,1,NA,NA
"938",1018,13,"test",1,1,1.766,1,1,NA
"939",1220,22,"test",1,1,3.142,1,1,NA
"940",960,20,"test",1,1,1.385,1,NA,NA
"941",1155,12,"test",1,1,4.43,0,NA,NA
"942",976,24,"test",1,1,2.319,1,NA,NA
"943",1108,20,"test",1,1,1.291,0,1,NA
"944",1002,8,"test",1,1,1.182,1,1,NA
"945",1140,4,"test",1,1,0.866,1,1,NA
"946",1002,34,"test",1,1,4.791,1,NA,NA
"947",1072,19,"test",1,1,3.381,0,NA,NA
"948",1054,10,"test",1,1,1.879,1,1,NA
"949",976,38,"test",1,1,2.625,1,NA,NA
"950",1018,19,"test",1,1,2.838,1,NA,NA
"951",1201,3,"test",1,1,2.594,1,NA,NA
"952",960,12,"test",1,1,2.22,1,1,NA
"953",1018,37,"test",1,1,2.658,1,NA,NA
"954",1130,4,"test",1,1,3.381,0,1,NA
"955",1142,34,"test",1,1,1.803,0,NA,NA
"956",1029,20,"test",1,1,0.978,0,1,NA
"957",1066,12,"test",1,1,2.546,1,1,NA
"958",1212,35,"test",1,1,1.325,1,NA,NA
"959",1119,5,"test",1,1,0.985,0,1,NA
"960",1058,17,"test",1,1,1.476,0,1,NA
"961",1072,27,"test",1,1,3.085,0,NA,NA
"962",1127,32,"test",1,1,2.048,1,NA,NA
"963",1185,21,"test",1,1,3.105,0,1,NA
"964",960,16,"test",1,1,1.988,0,NA,NA
"965",1072,4,"test",1,1,1.162,1,1,NA
"966",1211,24,"test",1,1,1.259,1,1,NA
"967",1220,18,"test",1,1,2.12,1,1,NA
"968",1041,20,"test",1,1,3.313,0,1,NA
"969",1130,26,"test",1,1,1.856,1,1,NA
"970",1066,3,"test",1,1,2.267,1,NA,NA
"971",1071,4,"test",1,1,3.716,0,NA,NA
"972",1127,6,"test",1,1,2.03,1,NA,NA
"973",1211,30,"test",1,1,1.591,1,1,NA
"974",1212,10,"test",1,1,3.318,0,1,NA
"975",960,31,"test",1,1,4.772,1,NA,NA
"976",1071,3,"test",1,1,1.604,0,1,NA
"977",1086,21,"test",1,1,3.986,1,1,NA
"978",1220,30,"test",1,1,1.725,0,1,NA
"979",1107,27,"test",1,1,2.148,1,NA,NA
"980",1127,40,"test",1,1,1.643,1,NA,NA
"981",941,6,"test",1,1,0.088,1,NA,NA
"982",1107,5,"test",1,1,1.413,1,1,NA
"983",1119,6,"test",1,1,1.952,1,1,NA
"984",960,21,"test",1,1,2.739,0,NA,NA
"985",1018,30,"test",1,1,1.863,1,1,NA
"986",1029,4,"test",1,1,1.28,0,1,NA
"987",1073,37,"test",1,1,0.696,0,NA,NA
"988",1223,30,"test",1,1,1.409,0,1,NA
"989",1143,16,"test",1,1,1.319,1,1,NA
"990",1155,10,"test",1,1,1.318,1,1,NA
"991",1211,1,"test",1,1,3.152,1,NA,NA
"992",1011,17,"test",1,1,1.843,1,NA,NA
"993",1012,11,"test",1,1,2.534,0,1,NA
"994",966,19,"test",1,1,2.11,1,NA,NA
"995",976,1,"test",1,1,1.929,0,1,NA
"996",1008,23,"test",1,1,1.685,1,1,NA
"997",1142,22,"test",1,1,3.97,0,NA,NA
"998",1198,35,"test",1,1,1.802,0,NA,NA
"999",1086,5,"test",1,1,1.116,1,1,NA
"1000",960,5,"test",1,1,1.226,1,1,NA
"1001",1178,29,"test",1,1,1.943,1,NA,NA
"1002",1107,32,"test",1,1,1.964,0,NA,NA
"1003",1223,9,"test",1,1,1.178,0,1,NA
"1004",1127,27,"test",1,1,3.045,1,NA,NA
"1005",960,4,"test",1,1,1.936,1,NA,NA
"1006",1029,9,"test",1,1,2.054,0,1,NA
"1007",1106,36,"test",1,1,1.311,1,1,NA
"1008",1072,21,"test",1,1,3.731,1,NA,NA
"1009",1096,24,"test",1,1,2.622,1,NA,NA
"1010",960,18,"test",1,1,3.338,0,NA,NA
"1011",1054,8,"test",1,1,2.174,0,1,NA
"1012",1142,31,"test",1,1,1.972,1,NA,NA
"1013",1220,14,"test",1,1,1.169,1,1,NA
"1014",960,25,"test",1,1,4.436,0,NA,NA
"1015",1130,29,"test",1,1,1.619,0,NA,NA
"1016",1018,26,"test",1,1,2.357,1,NA,NA
"1017",1212,11,"test",1,1,1.928,1,NA,NA
"1018",1107,7,"test",1,1,2.575,1,1,NA
"1019",1119,7,"test",1,1,1.972,0,1,NA
"1020",1127,16,"test",1,1,2.196,0,NA,NA
"1021",1119,24,"test",1,1,2.165,1,1,NA
"1022",966,40,"test",1,1,1.551,1,NA,NA
"1023",1036,13,"test",1,1,1.756,1,NA,NA
"1024",1220,10,"test",1,1,2.423,0,1,NA
"1025",1012,9,"test",1,1,2.623,1,NA,NA
"1026",1127,24,"test",1,1,1.175,1,1,NA
"1027",1198,27,"test",1,1,2.898,1,NA,NA
"1028",1212,39,"test",1,1,2.585,1,NA,NA
"1029",1220,9,"test",1,1,2.876,0,NA,NA
"1030",1107,9,"test",1,1,3.039,0,1,NA
"1031",1018,5,"test",1,1,1.274,0,1,NA
"1032",1029,32,"test",1,1,1.843,1,NA,NA
"1033",1012,28,"test",1,1,3.384,0,NA,NA
"1034",1220,3,"test",1,1,3.97,1,NA,NA
"1035",976,29,"test",1,1,3.349,0,NA,NA
"1036",1018,1,"test",1,1,1.848,0,1,NA
"1037",1212,25,"test",1,1,3.247,1,NA,NA
"1038",1220,31,"test",1,1,2.44,1,1,NA
"1039",1220,23,"test",1,1,2.279,0,NA,NA
"1040",1011,7,"test",1,1,1.954,1,NA,NA
"1041",1074,18,"test",1,1,1.733,0,1,NA
"1042",1071,15,"test",1,1,1.568,0,1,NA
"1043",1211,11,"test",1,1,2.564,1,NA,NA
"1044",1178,9,"test",1,1,1.784,1,NA,NA
"1045",996,2,"test",1,1,2.238,1,NA,NA
"1046",1205,30,"test",1,1,1.711,0,NA,NA
"1047",1211,18,"test",1,1,2.469,1,NA,NA
"1048",1029,39,"test",1,1,5.347,0,NA,NA
"1049",1212,29,"test",1,1,1.766,1,1,NA
"1050",1212,28,"test",1,1,2.66,1,NA,NA
"1051",960,23,"test",1,1,3.388,1,1,NA
"1052",1211,19,"test",1,1,1.187,1,1,NA
"1053",1029,25,"test",1,1,2.617,0,1,NA
"1054",1080,30,"test",1,1,2.39,1,1,NA
"1055",1220,16,"test",1,1,3.271,0,NA,NA
"1056",1010,36,"test",1,1,2.264,1,1,NA
"1057",1054,25,"test",1,1,1.04,0,NA,NA
"1058",1185,13,"test",1,1,1.561,0,1,NA
"1059",1212,27,"test",1,1,3.347,0,NA,NA
"1060",1220,32,"test",1,1,2.099,0,NA,NA
"1061",1029,24,"test",1,1,1.362,1,NA,NA
"1062",1072,33,"test",1,1,2.555,0,NA,NA
"1063",1119,11,"test",1,1,5.297,1,NA,NA
"1064",1134,15,"test",1,1,1.962,1,NA,NA
"1065",1140,34,"test",1,1,1.287,1,1,NA
"1066",1211,23,"test",1,1,2.733,0,NA,NA
"1067",1212,31,"test",1,1,2.778,0,NA,NA
"1068",1074,23,"test",1,1,2.122,0,1,NA
"1069",1127,5,"test",1,1,1.302,1,1,NA
"1070",1155,22,"test",1,1,1.008,0,1,NA
"1071",1072,34,"test",1,1,1.73,1,1,NA
"1072",1002,33,"test",1,1,1.553,0,NA,NA
"1073",1080,26,"test",1,1,2.145,1,1,NA
"1074",1211,10,"test",1,1,2.46,1,1,NA
"1075",1220,13,"test",1,1,1.557,0,NA,NA
"1076",1018,15,"test",1,1,1.362,1,1,NA
"1077",1220,2,"test",1,1,1.316,1,1,NA
"1078",1142,3,"test",1,1,1.988,1,NA,NA
"1079",1223,1,"test",1,1,1.563,0,1,NA
"1080",1182,36,"test",1,1,2.04,0,NA,NA
"1081",1002,7,"test",1,1,6.25,1,NA,NA
"1082",1211,38,"test",1,1,1.933,0,NA,NA
"1083",1143,5,"test",1,1,1.205,0,1,NA
"1084",1182,23,"test",1,1,1.606,1,1,NA
"1085",1011,40,"test",1,1,0.872,1,NA,NA
"1086",1012,14,"test",1,1,2.656,1,1,NA
"1087",1198,34,"test",1,1,1.447,1,NA,NA
"1088",1080,40,"test",1,1,1.786,0,NA,NA
"1089",1130,15,"test",1,1,1.772,1,1,NA
"1090",966,23,"test",1,1,1.47,0,1,NA
"1091",1018,22,"test",1,1,3.039,0,NA,NA
"1092",1223,39,"test",1,1,1.25,1,NA,NA
"1093",960,29,"test",1,1,6.785,0,NA,NA
"1094",1066,13,"test",1,1,1.965,0,1,NA
"1095",1220,28,"test",1,1,5.529,0,NA,NA
"1096",1018,29,"test",1,1,2.955,1,NA,NA
"1097",1029,27,"test",1,1,3.315,0,NA,NA
"1098",1066,19,"test",1,1,2.54,1,1,NA
"1099",1018,34,"test",1,1,2.629,1,NA,NA
"1100",1019,18,"test",1,1,1.323,1,1,NA
"1101",1080,22,"test",1,1,2.88,1,NA,NA
"1102",1080,34,"test",1,1,2.348,0,NA,NA
"1103",1143,24,"test",1,1,4.301,1,NA,NA
"1104",960,28,"test",1,1,3.817,1,NA,NA
"1105",1178,20,"test",1,1,1.234,1,NA,NA
"1106",1198,21,"test",1,1,1.084,1,1,NA
"1107",1212,19,"test",1,1,1.411,1,NA,NA
"1108",1029,35,"test",1,1,1.688,1,NA,NA
"1109",1212,13,"test",1,1,1.169,1,1,NA
"1110",1182,5,"test",1,1,1.063,1,1,NA
"1111",1220,8,"test",1,1,3.301,1,NA,NA
"1112",1018,10,"test",1,1,5.344,1,1,NA
"1113",1119,25,"test",1,1,7.052,1,NA,NA
"1114",1127,20,"test",1,1,1.748,1,NA,NA
"1115",1182,35,"test",1,1,2.198,0,NA,NA
"1116",966,13,"test",1,1,1.54,1,NA,NA
"1117",1080,33,"test",1,1,2.955,1,1,NA
"1118",1211,25,"test",1,1,4.705,0,NA,NA
"1119",1066,33,"test",1,1,3.965,0,NA,NA
"1120",1106,6,"test",1,1,0.999,1,1,NA
"1121",1223,32,"test",1,1,3.052,1,NA,NA
"1122",956,12,"test",1,1,1.506,0,NA,NA
"1123",1071,1,"test",1,1,2.499,0,NA,NA
"1124",1019,40,"test",1,1,2.428,1,NA,NA
"1125",1211,29,"test",1,1,3.72,1,NA,NA
"1126",994,40,"test",1,1,1.904,1,NA,NA
"1127",1008,3,"test",1,1,1.78,1,NA,NA
"1128",1010,16,"test",1,1,1.804,0,1,NA
"1129",1182,26,"test",1,1,6.693,1,NA,NA
"1130",983,24,"test",1,1,1.825,0,NA,NA
"1131",996,19,"test",1,1,1.962,1,1,NA
"1132",1073,35,"test",1,1,0.88,0,NA,NA
"1133",1107,36,"test",1,1,2.678,1,NA,NA
"1134",1108,16,"test",1,1,2.314,0,1,NA
"1135",1008,10,"test",1,1,2.711,0,NA,NA
"1136",1066,2,"test",1,1,1.395,1,1,NA
"1137",1071,21,"test",1,1,1.516,0,1,NA
"1138",1072,12,"test",1,1,1.271,1,1,NA
"1139",1142,14,"test",1,1,1.537,1,1,NA
"1140",956,7,"test",1,1,1.63,0,1,NA
"1141",1112,4,"test",1,1,1.224,1,1,NA
"1142",1223,24,"test",1,1,0.989,1,NA,NA
"1143",1107,21,"test",1,1,5.077,0,NA,NA
"1144",1107,29,"test",1,1,2.999,1,1,NA
"1145",1119,17,"test",1,1,1.406,0,1,NA
"1146",1143,36,"test",1,1,3.325,0,NA,NA
"1147",960,34,"test",1,1,1.955,1,NA,NA
"1148",973,18,"test",1,1,1.39,1,1,NA
"1149",1058,35,"test",1,1,2.612,0,NA,NA
"1150",1080,14,"test",1,1,1.857,1,1,NA
"1151",1182,18,"test",1,1,2.519,0,NA,NA
"1152",976,30,"test",1,1,4.552,1,NA,NA
"1153",1142,23,"test",1,1,2.135,0,NA,NA
"1154",1182,20,"test",1,1,2.964,0,NA,NA
"1155",1220,35,"test",1,1,1.236,1,1,NA
"1156",1029,3,"test",1,1,4.698,1,NA,NA
"1157",1211,9,"test",1,1,2.99,1,NA,NA
"1158",1008,15,"test",1,1,2.783,1,1,NA
"1159",1130,12,"test",1,1,2.266,1,1,NA
"1160",1164,32,"test",1,1,1.349,1,1,NA
"1161",1211,39,"test",1,1,3.505,0,NA,NA
"1162",1223,20,"test",1,1,3.134,1,NA,NA
"1163",1018,23,"test",1,1,5.106,1,NA,NA
"1164",1019,20,"test",1,1,1.272,0,1,NA
"1165",1164,13,"test",1,1,1.937,0,NA,NA
"1166",1029,10,"test",1,1,3.333,0,NA,NA
"1167",1140,25,"test",1,1,1.553,1,1,NA
"1168",1182,38,"test",1,1,3.948,0,NA,NA
"1169",1185,5,"test",1,1,1.58,0,NA,NA
"1170",1029,29,"test",1,1,2.702,0,NA,NA
"1171",1029,21,"test",1,1,2.702,0,NA,NA
"1172",1220,25,"test",1,1,4.834,0,NA,NA
"1173",966,18,"test",1,1,3.391,0,1,NA
"1174",1040,6,"test",1,1,1.412,0,NA,NA
"1175",1119,30,"test",1,1,1.645,0,NA,NA
"1176",1018,32,"test",1,1,2.695,0,NA,NA
"1177",1018,14,"test",1,1,1.417,1,NA,NA
"1178",1127,3,"test",1,1,2.656,1,NA,NA
"1179",1127,18,"test",1,1,2.093,1,1,NA
"1180",1211,34,"test",1,1,1.759,1,1,NA
"1181",1018,2,"test",1,1,1.37,1,1,NA
"1182",1143,27,"test",1,1,3.227,0,NA,NA
"1183",1178,17,"test",1,1,1.561,1,1,NA
"1184",1198,24,"test",1,1,1.039,1,1,NA
"1185",971,13,"test",1,1,1.245,0,1,NA
"1186",1080,24,"test",1,1,1.559,1,1,NA
"1187",1119,1,"test",1,1,1.777,1,1,NA
"1188",1198,37,"test",1,1,2.512,1,NA,NA
"1189",1198,13,"test",1,1,1.764,1,NA,NA
"1190",1041,39,"test",1,1,5.896,1,NA,NA
"1191",1143,34,"test",1,1,1.385,0,1,NA
"1192",1182,34,"test",1,1,4.371,1,NA,NA
"1193",1130,22,"test",1,1,1.879,1,1,NA
"1194",1185,36,"test",1,1,2.179,0,NA,NA
"1195",956,18,"test",1,1,3.527,1,1,NA
"1196",1018,9,"test",1,1,2.188,1,1,NA
"1197",1036,34,"test",1,1,2.214,1,NA,NA
"1198",1066,9,"test",1,1,2.558,1,NA,NA
"1199",1198,23,"test",1,1,2.934,0,NA,NA
"1200",1212,26,"test",1,1,2.508,1,NA,NA
"1201",966,14,"test",1,1,1.136,1,1,NA
"1202",966,26,"test",1,1,1.865,1,1,NA
"1203",976,34,"test",1,1,2.677,0,NA,NA
"1204",983,12,"test",1,1,1.215,1,1,NA
"1205",976,18,"test",1,1,3.707,1,NA,NA
"1206",1019,3,"test",1,1,2.256,1,NA,NA
"1207",1011,28,"test",1,1,1.242,1,NA,NA
"1208",1080,36,"test",1,1,3.038,0,NA,NA
"1209",1178,3,"test",1,1,3.063,1,NA,NA
"1210",1185,24,"test",1,1,1.662,1,NA,NA
"1211",1212,24,"test",1,1,1.409,0,NA,NA
"1212",956,15,"test",1,1,1.96,1,NA,NA
"1213",1142,40,"test",1,1,2.247,1,NA,NA
"1214",1143,10,"test",1,1,1.83,0,1,NA
"1215",1152,15,"test",1,1,2.347,1,1,NA
"1216",1164,30,"test",1,1,1.231,1,1,NA
"1217",1223,18,"test",1,1,1.814,1,NA,NA
"1218",1019,29,"test",1,1,3.431,1,NA,NA
"1219",1127,13,"test",1,1,1.201,1,1,NA
"1220",1220,37,"test",1,1,1.955,1,NA,NA
"1221",971,1,"test",1,1,2.141,1,NA,NA
"1222",983,6,"test",1,1,1.517,1,NA,NA
"1223",1018,31,"test",1,1,2.242,0,NA,NA
"1224",1029,15,"test",1,1,1.816,0,1,NA
"1225",1211,28,"test",1,1,4.069,1,NA,NA
"1226",1066,6,"test",1,1,3.186,1,NA,NA
"1227",1127,38,"test",1,1,1.895,0,NA,NA
"1228",1142,2,"test",1,1,1.027,1,1,NA
"1229",1142,37,"test",1,1,2.267,0,NA,NA
"1230",1125,10,"test",1,1,0.311,0,NA,NA
"1231",1058,40,"test",1,1,3.211,1,NA,NA
"1232",1212,33,"test",1,1,5.789,1,NA,NA
"1233",996,11,"test",1,1,2.883,0,NA,NA
"1234",1019,7,"test",1,1,2.995,1,1,NA
"1235",1127,7,"test",1,1,3.834,0,NA,NA
"1236",1155,14,"test",1,1,1.472,1,1,NA
"1237",1071,17,"test",1,1,1.533,1,NA,NA
"1238",1164,33,"test",1,1,2.496,1,1,NA
"1239",1198,6,"test",1,1,2.535,1,1,NA
"1240",1220,39,"test",1,1,1.694,1,NA,NA
"1241",1054,26,"test",1,1,1.792,1,NA,NA
"1242",1074,27,"test",1,1,3.313,0,NA,NA
"1243",1155,37,"test",1,1,1.884,1,NA,NA
"1244",1164,17,"test",1,1,2.764,1,1,NA
"1245",1002,32,"test",1,1,0.973,1,1,NA
"1246",1074,13,"test",1,1,2.434,1,1,NA
"1247",976,25,"test",1,1,3.354,1,NA,NA
"1248",1185,22,"test",1,1,2.42,1,NA,NA
"1249",1018,38,"test",1,1,2.995,1,NA,NA
"1250",1018,36,"test",1,1,3.26,1,NA,NA
"1251",1198,40,"test",1,1,1.507,1,NA,NA
"1252",971,33,"test",1,1,2.235,1,NA,NA
"1253",983,37,"test",1,1,2.52,0,NA,NA
"1254",1119,21,"test",1,1,3.176,1,1,NA
"1255",1164,9,"test",1,1,4.093,0,NA,NA
"1256",939,21,"test",1,1,1.782,0,1,NA
"1257",1066,30,"test",1,1,2.481,1,1,NA
"1258",1072,14,"test",1,1,2.314,0,NA,NA
"1259",1140,10,"test",1,1,1.66,1,1,NA
"1260",1019,38,"test",1,1,3.078,1,NA,NA
"1261",1127,11,"test",1,1,9.109,1,NA,NA
"1262",1142,12,"test",1,1,1.143,1,1,NA
"1263",956,19,"test",1,1,1.306,1,1,NA
"1264",1185,3,"test",1,1,2.5,0,NA,NA
"1265",1212,14,"test",1,1,1.072,1,1,NA
"1266",984,2,"test",1,1,2.647,1,1,NA
"1267",994,28,"test",1,1,3.583,1,1,NA
"1268",1130,16,"test",1,1,2.173,0,NA,NA
"1269",1185,16,"test",1,1,1.981,0,1,NA
"1270",1142,28,"test",1,1,3.718,0,NA,NA
"1271",1143,11,"test",1,1,4.009,0,NA,NA
"1272",1164,23,"test",1,1,1.83,1,1,NA
"1273",1211,35,"test",1,1,2.081,0,NA,NA
"1274",994,39,"test",1,1,2.732,1,NA,NA
"1275",1054,12,"test",1,1,2.024,0,NA,NA
"1276",1212,22,"test",1,1,1.416,0,1,NA
"1277",1018,18,"test",1,1,3.484,1,NA,NA
"1278",1080,16,"test",1,1,2.343,1,1,NA
"1279",1140,36,"test",1,1,2.126,0,NA,NA
"1280",1174,10,"test",1,1,6.72,1,1,NA
"1281",1198,9,"test",1,1,0.814,1,1,NA
"1282",1198,4,"test",1,1,1.049,1,1,NA
"1283",1178,10,"test",1,1,1.086,0,1,NA
"1284",1185,34,"test",1,1,1.619,1,NA,NA
"1285",1220,11,"test",1,1,1.916,1,1,NA
"1286",984,37,"test",1,1,2.073,1,NA,NA
"1287",1002,35,"test",1,1,2.906,0,NA,NA
"1288",1127,37,"test",1,1,3.046,1,NA,NA
"1289",1142,24,"test",1,1,3.701,0,1,NA
"1290",971,36,"test",1,1,0.802,1,NA,NA
"1291",971,29,"test",1,1,4.278,1,NA,NA
"1292",1106,17,"test",1,1,1.425,1,1,NA
"1293",1018,8,"test",1,1,1.901,0,NA,NA
"1294",1180,3,"test",1,1,3.796,0,NA,NA
"1295",983,20,"test",1,1,2.259,0,NA,NA
"1296",1072,40,"test",1,1,1.807,1,NA,NA
"1297",1072,29,"test",1,1,2.196,1,1,NA
"1298",1073,6,"test",1,1,1.058,1,NA,NA
"1299",1134,19,"test",1,1,2.137,1,NA,NA
"1300",1185,7,"test",1,1,4.711,0,1,NA
"1301",1198,19,"test",1,1,2.096,1,1,NA
"1302",1066,23,"test",1,1,3.654,1,NA,NA
"1303",1072,32,"test",1,1,1.748,0,NA,NA
"1304",1080,11,"test",1,1,2.423,0,NA,NA
"1305",1185,31,"test",1,1,3.614,1,NA,NA
"1306",1142,4,"test",1,1,2.029,0,NA,NA
"1307",1142,27,"test",1,1,1.188,0,1,NA
"1308",1143,19,"test",1,1,2.088,0,NA,NA
"1309",984,3,"test",1,1,1.998,0,NA,NA
"1310",994,22,"test",1,1,3.16,1,NA,NA
"1311",1223,25,"test",1,1,6.725,1,NA,NA
"1312",983,28,"test",1,1,3.362,0,NA,NA
"1313",1185,33,"test",1,1,3.151,1,NA,NA
"1314",1080,38,"test",1,1,2.883,0,NA,NA
"1315",1185,29,"test",1,1,3.776,1,NA,NA
"1316",1036,17,"test",1,1,2.034,1,1,NA
"1317",1108,39,"test",1,1,2.468,1,NA,NA
"1318",1164,14,"test",1,1,1.313,1,1,NA
"1319",1212,16,"test",1,1,2.324,0,NA,NA
"1320",976,36,"test",1,1,1.988,0,NA,NA
"1321",983,25,"test",1,1,1.767,1,1,NA
"1322",1130,33,"test",1,1,1.783,0,NA,NA
"1323",966,28,"test",1,1,1.445,0,1,NA
"1324",1029,6,"test",1,1,1.622,0,NA,NA
"1325",1011,39,"test",1,1,1.332,1,NA,NA
"1326",1119,34,"test",1,1,3.211,0,NA,NA
"1327",1164,12,"test",1,1,1.884,1,1,NA
"1328",1029,13,"test",1,1,1.389,1,NA,NA
"1329",1054,4,"test",1,1,0.979,1,1,NA
"1330",1080,3,"test",1,1,1.988,0,NA,NA
"1331",983,15,"test",1,1,1.576,0,NA,NA
"1332",1010,29,"test",1,1,2.325,1,NA,NA
"1333",1212,40,"test",1,1,1.557,1,NA,NA
"1334",941,7,"test",1,1,0.61,0,1,NA
"1335",1143,3,"test",1,1,4.547,1,NA,NA
"1336",1140,27,"test",1,1,1.285,1,1,NA
"1337",1142,38,"test",1,1,1.532,1,1,NA
"1338",1182,25,"test",1,1,4.911,0,NA,NA
"1339",1054,14,"test",1,1,1.254,1,1,NA
"1340",1211,4,"test",1,1,3.862,1,1,NA
"1341",1223,6,"test",1,1,0.967,0,1,NA
"1342",1029,26,"test",1,1,1.958,0,NA,NA
"1343",1119,29,"test",1,1,4.009,1,NA,NA
"1344",1185,28,"test",1,1,3.702,1,NA,NA
"1345",1198,31,"test",1,1,1.226,1,1,NA
"1346",1058,32,"test",1,1,1.331,0,1,NA
"1347",1182,2,"test",1,1,2.896,1,NA,NA
"1348",1198,28,"test",1,1,2.792,1,NA,NA
"1349",1220,20,"test",1,1,2.631,0,NA,NA
"1350",1029,36,"test",1,1,1.976,0,1,NA
"1351",1071,34,"test",1,1,1.839,0,NA,NA
"1352",1220,19,"test",1,1,1.335,1,1,NA
"1353",1072,36,"test",1,1,1.792,0,NA,NA
"1354",1140,32,"test",1,1,1.848,1,NA,NA
"1355",1182,22,"test",1,1,1.388,1,1,NA
"1356",1140,9,"test",1,1,2.061,0,NA,NA
"1357",1185,19,"test",1,1,1.972,1,NA,NA
"1358",1198,25,"test",1,1,3.397,0,1,NA
"1359",1212,21,"test",1,1,3.645,1,1,NA
"1360",960,14,"test",1,1,2.484,1,1,NA
"1361",1011,16,"test",1,1,1.078,0,1,NA
"1362",1071,23,"test",1,1,2.045,0,NA,NA
"1363",1220,4,"test",1,1,3.955,0,NA,NA
"1364",1125,38,"test",1,1,4.416,1,NA,NA
"1365",1198,17,"test",1,1,5.918,1,NA,NA
"1366",1220,12,"test",1,1,5.893,0,NA,NA
"1367",1008,4,"test",1,1,1.326,1,NA,NA
"1368",1019,11,"test",1,1,2.734,0,NA,NA
"1369",1142,25,"test",1,1,1.68,0,1,NA
"1370",1143,20,"test",1,1,1.545,1,1,NA
"1371",1018,17,"test",1,1,2.471,0,NA,NA
"1372",1054,11,"test",1,1,3.018,1,NA,NA
"1373",1143,6,"test",1,1,1.733,0,1,NA
"1374",1164,24,"test",1,1,1.55,0,NA,NA
"1375",1019,13,"test",1,1,1.144,0,1,NA
"1376",1080,27,"test",1,1,2.683,0,NA,NA
"1377",956,9,"test",1,1,1.731,0,NA,NA
"1378",1074,4,"test",1,1,2.198,1,NA,NA
"1379",1011,12,"test",1,1,1.203,0,NA,NA
"1380",1018,16,"test",1,1,2.625,0,NA,NA
"1381",1155,17,"test",1,1,2.771,1,1,NA
"1382",1080,18,"test",1,1,2.224,1,1,NA
"1383",1058,28,"test",1,1,2.9,1,1,NA
"1384",1073,30,"test",1,1,2.44,1,NA,NA
"1385",1178,39,"test",1,1,1.811,1,NA,NA
"1386",1198,1,"test",1,1,1.009,1,1,NA
"1387",1018,33,"test",1,1,4.101,1,NA,NA
"1388",1054,28,"test",1,1,3.065,0,NA,NA
"1389",1066,8,"test",1,1,3.197,1,NA,NA
"1390",1101,35,"test",1,1,1.111,1,1,NA
"1391",1125,4,"test",1,1,2.089,1,NA,NA
"1392",1127,15,"test",1,1,1.228,1,1,NA
"1393",1143,38,"test",1,1,2.406,1,NA,NA
"1394",983,5,"test",1,1,1.451,1,1,NA
"1395",1212,8,"test",1,1,2.197,0,1,NA
"1396",976,14,"test",1,1,2.502,1,1,NA
"1397",1029,17,"test",1,1,1.065,1,1,NA
"1398",1164,20,"test",1,1,1.883,0,NA,NA
"1399",1164,36,"test",1,1,2.097,1,NA,NA
"1400",1029,8,"test",1,1,5.816,1,NA,NA
"1401",1185,23,"test",1,1,2.337,1,NA,NA
"1402",1080,15,"test",1,1,2,0,NA,NA
"1403",1107,24,"test",1,1,2.596,1,NA,NA
"1404",983,8,"test",1,1,2.577,1,1,NA
"1405",1018,40,"test",1,1,1.337,1,NA,NA
"1406",1072,37,"test",1,1,2.678,1,NA,NA
"1407",1086,27,"test",1,1,1.616,1,1,NA
"1408",1142,26,"test",1,1,1.182,0,1,NA
"1409",983,17,"test",1,1,1.844,0,1,NA
"1410",1019,17,"test",1,1,2.608,0,1,NA
"1411",1080,39,"test",1,1,2.683,0,NA,NA
"1412",1142,19,"test",1,1,2.402,0,NA,NA
"1413",1164,7,"test",1,1,3.851,1,1,NA
"1414",983,38,"test",1,1,2.67,0,NA,NA
"1415",1164,18,"test",1,1,1.301,1,1,NA
"1416",983,3,"test",1,1,1.828,1,1,NA
"1417",1127,25,"test",1,1,1.958,1,1,NA
"1418",983,31,"test",1,1,2.682,0,1,NA
"1419",983,29,"test",1,1,5.528,0,NA,NA
"1420",984,5,"test",1,1,3.307,1,NA,NA
"1421",1029,23,"test",1,1,2.145,0,1,NA
"1422",1072,3,"test",1,1,1.829,1,NA,NA
"1423",1080,19,"test",1,1,1.649,1,1,NA
"1424",1140,31,"test",1,1,4.262,0,NA,NA
"1425",1019,8,"test",1,1,1.784,1,1,NA
"1426",1080,13,"test",1,1,2.258,0,NA,NA
"1427",1130,34,"test",1,1,1.309,0,NA,NA
"1428",983,18,"test",1,1,1.377,1,1,NA
"1429",1106,26,"test",1,1,2.661,1,NA,NA
"1430",1125,31,"test",1,1,1.633,1,1,NA
"1431",1220,15,"test",1,1,2.729,1,NA,NA
"1432",1071,25,"test",1,1,3.562,1,1,NA
"1433",1072,9,"test",1,1,3.988,0,NA,NA
"1434",1178,22,"test",1,1,3.289,1,1,NA
"1435",1198,16,"test",1,1,3.623,1,NA,NA
"1436",966,24,"test",1,1,1.414,0,1,NA
"1437",971,27,"test",1,1,1.831,1,NA,NA
"1438",1106,25,"test",1,1,2.876,0,1,NA
"1439",1108,3,"test",1,1,4.01,0,NA,NA
"1440",1142,15,"test",1,1,2.381,1,1,NA
"1441",1185,9,"test",1,1,4.17,0,1,NA
"1442",983,9,"test",1,1,3.547,1,1,NA
"1443",1142,6,"test",1,1,1.144,0,NA,NA
"1444",983,16,"test",1,1,1.681,1,1,NA
"1445",1072,15,"test",1,1,1.366,1,1,NA
"1446",1140,20,"test",1,1,1.587,1,1,NA
"1447",1143,14,"test",1,1,1.476,0,1,NA
"1448",1220,27,"test",1,1,1.839,1,1,NA
"1449",1041,27,"test",1,1,3.976,1,1,NA
"1450",1011,29,"test",1,1,3.758,1,NA,NA
"1451",1106,1,"test",1,1,0.859,1,1,NA
"1452",1143,8,"test",1,1,3.581,1,NA,NA
"1453",1011,38,"test",1,1,2.831,1,NA,NA
"1454",1125,26,"test",1,1,2.761,0,NA,NA
"1455",1155,8,"test",1,1,1.122,1,1,NA
"1456",976,23,"test",1,1,3.064,0,1,NA
"1457",1010,30,"test",1,1,1.861,1,NA,NA
"1458",1066,36,"test",1,1,3.082,1,NA,NA
"1459",1080,37,"test",1,1,2.532,0,NA,NA
"1460",1125,7,"test",1,1,3.895,0,NA,NA
"1461",1164,1,"test",1,1,1.868,1,1,NA
"1462",1198,3,"test",1,1,5.076,1,NA,NA
"1463",960,11,"test",1,1,2.166,1,NA,NA
"1464",1071,28,"test",1,1,2.413,1,NA,NA
"1465",1072,17,"test",1,1,2.982,0,NA,NA
"1466",1080,23,"test",1,1,3.088,0,NA,NA
"1467",1108,27,"test",1,1,2.9,0,NA,NA
"1468",1198,20,"test",1,1,3.402,1,1,NA
"1469",976,7,"test",1,1,4.037,1,1,NA
"1470",984,6,"test",1,1,1.855,0,1,NA
"1471",1212,34,"test",1,1,2.164,1,1,NA
"1472",956,16,"test",1,1,0.74,1,1,NA
"1473",1142,13,"test",1,1,2.726,1,NA,NA
"1474",1164,19,"test",1,1,3.324,1,NA,NA
"1475",1185,39,"test",1,1,1.81,1,1,NA
"1476",1164,11,"test",1,1,1.543,1,1,NA
"1477",1185,14,"test",1,1,3.085,1,NA,NA
"1478",1019,22,"test",1,1,2.427,1,NA,NA
"1479",1073,8,"test",1,1,1.946,0,1,NA
"1480",1142,9,"test",1,1,2.578,1,1,NA
"1481",1143,17,"test",1,1,3.023,1,NA,NA
"1482",1198,39,"test",1,1,3.009,0,NA,NA
"1483",1198,32,"test",1,1,2.789,0,NA,NA
"1484",1029,33,"test",1,1,2.443,0,1,NA
"1485",1142,39,"test",1,1,1.903,1,NA,NA
"1486",1142,1,"test",1,1,2.763,0,1,NA
"1487",1198,10,"test",1,1,6.118,0,NA,NA
"1488",1142,5,"test",1,1,7.359,1,NA,NA
"1489",1220,21,"test",1,1,1.636,1,1,NA
"1490",1142,18,"test",1,1,5.713,0,NA,NA
"1491",994,32,"test",1,1,3.253,0,NA,NA
"1492",1066,37,"test",1,1,2.754,1,NA,NA
"1493",1212,32,"test",1,1,4.909,0,NA,NA
"1494",1178,36,"test",1,1,2.388,1,NA,NA
"1495",996,26,"test",1,1,2.543,1,NA,NA
"1496",996,8,"test",1,1,2.808,0,NA,NA
"1497",1080,9,"test",1,1,2.223,1,1,NA
"1498",1130,9,"test",1,1,1.864,0,NA,NA
"1499",983,30,"test",1,1,2.397,0,NA,NA
"1500",984,13,"test",1,1,1.764,0,NA,NA
"1501",1029,7,"test",1,1,6.874,0,1,NA
"1502",1073,33,"test",1,1,1.695,0,NA,NA
"1503",1080,10,"test",1,1,3.818,0,NA,NA
"1504",1143,31,"test",1,1,3.676,1,NA,NA
"1505",1019,35,"test",1,1,2.143,1,NA,NA
"1506",1029,16,"test",1,1,1.881,0,1,NA
"1507",1071,40,"test",1,1,1.716,1,NA,NA
"1508",1140,35,"test",1,1,2.074,0,NA,NA
"1509",1211,37,"test",1,1,2.817,1,NA,NA
"1510",1019,25,"test",1,1,6.7,0,NA,NA
"1511",996,20,"test",1,1,1.424,0,1,NA
"1512",1036,8,"test",1,1,1.775,0,NA,NA
"1513",1164,34,"test",1,1,2.209,1,1,NA
"1514",1182,28,"test",1,1,1.179,1,1,NA
"1515",1185,6,"test",1,1,2.068,0,NA,NA
"1516",983,13,"test",1,1,3.355,0,NA,NA
"1517",1080,20,"test",1,1,2.034,0,NA,NA
"1518",971,9,"test",1,1,1.904,1,NA,NA
"1519",1080,28,"test",1,1,3.342,0,NA,NA
"1520",1093,3,"test",1,1,2.662,1,NA,NA
"1521",1125,27,"test",1,1,2.236,1,NA,NA
"1522",956,21,"test",1,1,2.038,1,NA,NA
"1523",1011,26,"test",1,1,4.257,1,NA,NA
"1524",1058,37,"test",1,1,2.658,1,NA,NA
"1525",1174,21,"test",1,1,3.349,1,NA,NA
"1526",1028,34,"test",1,1,1.934,1,NA,NA
"1527",1029,37,"test",1,1,3.621,0,NA,NA
"1528",1080,21,"test",1,1,3.052,0,NA,NA
"1529",1212,20,"test",1,1,1.75,1,NA,NA
"1530",1142,29,"test",1,1,1.628,0,1,NA
"1531",1142,21,"test",1,1,3.291,0,1,NA
"1532",983,34,"test",1,1,4.097,1,NA,NA
"1533",1029,34,"test",1,1,2.069,0,1,NA
"1534",1093,20,"test",1,1,1.8,0,NA,NA
"1535",1143,33,"test",1,1,5.531,0,NA,NA
"1536",1002,12,"test",1,1,0.971,1,1,NA
"1537",1178,1,"test",1,1,2.481,1,NA,NA
"1538",1164,26,"test",1,1,3.986,0,NA,NA
"1539",1011,9,"test",1,1,1.933,0,1,NA
"1540",994,1,"test",1,1,5.077,0,NA,NA
"1541",1058,1,"test",1,1,1.876,1,1,NA
"1542",1125,23,"test",1,1,1.111,1,NA,NA
"1543",1127,4,"test",1,1,2.313,1,NA,NA
"1544",1212,36,"test",1,1,1.993,0,NA,NA
"1545",996,21,"test",1,1,3.568,1,1,NA
"1546",1058,23,"test",1,1,2.025,1,1,NA
"1547",1106,13,"test",1,1,1.423,0,NA,NA
"1548",1125,22,"test",1,1,3.225,1,1,NA
"1549",1152,4,"test",1,1,1.585,0,NA,NA
"1550",1164,31,"test",1,1,4.044,0,NA,NA
"1551",1140,14,"test",1,1,3.281,1,NA,NA
"1552",1072,39,"test",1,1,4.638,0,NA,NA
"1553",1140,5,"test",1,1,1.381,1,1,NA
"1554",983,39,"test",1,1,2.349,0,NA,NA
"1555",1019,39,"test",1,1,2.135,1,NA,NA
"1556",1029,28,"test",1,1,3.215,1,NA,NA
"1557",1080,32,"test",1,1,3.146,0,NA,NA
"1558",1119,9,"test",1,1,2.597,0,NA,NA
"1559",1125,19,"test",1,1,4.947,0,1,NA
"1560",958,39,"test",1,1,2.166,1,NA,NA
"1561",966,2,"test",1,1,1.385,1,1,NA
"1562",1066,27,"test",1,1,3.602,1,1,NA
"1563",1073,4,"test",1,1,3.431,1,NA,NA
"1564",983,2,"test",1,1,2.668,1,NA,NA
"1565",1142,30,"test",1,1,4.657,1,1,NA
"1566",1142,35,"test",1,1,2.61,1,1,NA
"1567",1211,2,"test",1,1,1.624,1,1,NA
"1568",1093,4,"test",1,1,1.631,0,NA,NA
"1569",960,17,"test",1,1,2.249,1,NA,NA
"1570",1142,7,"test",1,1,3.261,1,NA,NA
"1571",1178,14,"test",1,1,0.951,1,1,NA
"1572",1029,40,"test",1,1,3.841,1,NA,NA
"1573",1134,20,"test",1,1,1.187,0,1,NA
"1574",1223,5,"test",1,1,1.063,0,1,NA
"1575",983,14,"test",1,1,2.582,1,NA,NA
"1576",1107,34,"test",1,1,3.28,1,NA,NA
"1577",1164,8,"test",1,1,3.227,0,NA,NA
"1578",966,39,"test",1,1,2.124,1,NA,NA
"1579",1029,11,"test",1,1,4.285,1,NA,NA
"1580",1142,33,"test",1,1,5.917,0,NA,NA
"1581",1028,21,"test",1,1,1.213,1,1,NA
"1582",1185,25,"test",1,1,5.021,1,NA,NA
"1583",1002,14,"test",1,1,1.506,0,NA,NA
"1584",1058,4,"test",1,1,1.561,1,NA,NA
"1585",1140,13,"test",1,1,1.287,0,1,NA
"1586",1164,40,"test",1,1,2.006,1,NA,NA
"1587",1130,21,"test",1,1,2.321,1,1,NA
"1588",1182,7,"test",1,1,2.078,0,NA,NA
"1589",1198,36,"test",1,1,2.497,1,NA,NA
"1590",971,21,"test",1,1,1.479,1,NA,NA
"1591",1108,11,"test",1,1,3.537,1,1,NA
"1592",1198,18,"test",1,1,2.668,0,NA,NA
"1593",994,15,"test",1,1,1.984,0,NA,NA
"1594",1180,23,"test",1,1,3.182,0,1,NA
"1595",1185,26,"test",1,1,6.435,0,NA,NA
"1596",1058,33,"test",1,1,2.335,0,1,NA
"1597",1093,35,"test",1,1,1.269,1,1,NA
"1598",1019,6,"test",1,1,1.934,0,NA,NA
"1599",1054,1,"test",1,1,4.879,1,1,NA
"1600",983,4,"test",1,1,2.756,0,1,NA
"1601",958,13,"test",1,1,2.021,0,1,NA
"1602",983,22,"test",1,1,2.644,1,1,NA
"1603",1029,2,"test",1,1,2.549,1,1,NA
"1604",1130,19,"test",1,1,1.532,0,NA,NA
"1605",1143,32,"test",1,1,2.081,0,NA,NA
"1606",1010,39,"test",1,1,2.313,1,NA,NA
"1607",1080,7,"test",1,1,3.628,0,NA,NA
"1608",1152,19,"test",1,1,1.531,1,1,NA
"1609",983,7,"test",1,1,4.829,0,NA,NA
"1610",1142,11,"test",1,1,4.337,0,1,NA
"1611",1152,37,"test",1,1,3.452,0,NA,NA
"1612",984,8,"test",1,1,4.771,0,NA,NA
"1613",1108,30,"test",1,1,3.321,0,NA,NA
"1614",1127,12,"test",1,1,0.859,1,1,NA
"1615",1018,39,"test",1,1,2.076,0,NA,NA
"1616",1058,19,"test",1,1,2.293,0,NA,NA
"1617",1071,12,"test",1,1,4.553,0,NA,NA
"1618",1073,18,"test",1,1,1.488,1,1,NA
"1619",939,34,"test",1,1,1.85,0,NA,NA
"1620",996,36,"test",1,1,1.992,0,NA,NA
"1621",1058,26,"test",1,1,3.924,1,NA,NA
"1622",956,29,"test",1,1,1.056,1,1,NA
"1623",983,23,"test",1,1,3.874,1,NA,NA
"1624",1011,33,"test",1,1,1.524,1,NA,NA
"1625",1198,2,"test",1,1,2.351,1,NA,NA
"1626",1058,11,"test",1,1,3.406,1,1,NA
"1627",1080,29,"test",1,1,2.954,1,1,NA
"1628",1093,40,"test",1,1,1.447,0,1,NA
"1629",1212,2,"test",1,1,1.312,1,NA,NA
"1630",983,40,"test",1,1,1.926,1,NA,NA
"1631",1152,18,"test",1,1,1.684,0,1,NA
"1632",1054,24,"test",1,1,1.149,0,1,NA
"1633",1058,36,"test",1,1,3.573,0,NA,NA
"1634",1071,22,"test",1,1,2.406,0,NA,NA
"1635",1164,22,"test",1,1,4.742,0,NA,NA
"1636",1198,38,"test",1,1,1.104,1,1,NA
"1637",1018,12,"test",1,1,0.959,1,1,NA
"1638",983,27,"test",1,1,2.954,1,NA,NA
"1639",996,7,"test",1,1,4.255,1,NA,NA
"1640",1058,15,"test",1,1,4.337,0,NA,NA
"1641",1119,23,"test",1,1,3.038,0,NA,NA
"1642",1019,12,"test",1,1,0.936,1,1,NA
"1643",1130,2,"test",1,1,2.083,1,NA,NA
"1644",1130,23,"test",1,1,4.196,1,1,NA
"1645",1040,39,"test",1,1,1.615,0,NA,NA
"1646",1072,5,"test",1,1,2.715,0,1,NA
"1647",996,40,"test",1,1,2.222,1,NA,NA
"1648",958,24,"test",1,1,1.176,1,1,NA
"1649",1185,2,"test",1,1,2.235,0,1,NA
"1650",1058,27,"test",1,1,1.686,1,1,NA
"1651",1093,11,"test",1,1,2.709,0,NA,NA
"1652",1018,35,"test",1,1,1.958,0,NA,NA
"1653",1019,14,"test",1,1,1.727,1,1,NA
"1654",1029,38,"test",1,1,2.27,1,NA,NA
"1655",1019,9,"test",1,1,4.97,0,NA,NA
"1656",1093,14,"test",1,1,1.42,1,1,NA
"1657",1198,7,"test",1,1,3.253,1,NA,NA
"1658",1205,7,"test",1,1,3.604,1,1,NA
"1659",1088,16,"test",1,1,2.747,1,NA,NA
"1660",1198,33,"test",1,1,4.414,0,NA,NA
"1661",983,32,"test",1,1,1.577,0,NA,NA
"1662",1074,36,"test",1,1,2.468,0,NA,NA
"1663",1093,9,"test",1,1,2.024,0,NA,NA
"1664",1058,22,"test",1,1,3.607,1,NA,NA
"1665",1072,31,"test",1,1,1.545,0,NA,NA
"1666",1074,22,"test",1,1,2.848,1,NA,NA
"1667",1029,22,"test",1,1,3.333,1,1,NA
"1668",1212,12,"test",1,1,2.411,1,NA,NA
"1669",966,6,"test",1,1,1.952,1,NA,NA
"1670",1164,10,"test",1,1,2.399,1,1,NA
"1671",1164,4,"test",1,1,2.903,1,NA,NA
"1672",1198,29,"test",1,1,2.99,1,NA,NA
"1673",996,39,"test",1,1,2.363,1,NA,NA
"1674",996,30,"test",1,1,1.974,1,1,NA
"1675",1071,33,"test",1,1,2.67,1,NA,NA
"1676",1106,10,"test",1,1,4.018,0,NA,NA
"1677",960,10,"test",1,1,1.442,1,1,NA
"1678",1028,36,"test",1,1,1.608,0,NA,NA
"1679",1028,16,"test",1,1,2.902,0,NA,NA
"1680",1125,14,"test",1,1,0.955,1,NA,NA
"1681",1152,14,"test",1,1,2.63,1,NA,NA
"1682",941,20,"test",1,1,0.254,1,1,NA
"1683",1143,40,"test",1,1,1.557,0,NA,NA
"1684",1184,3,"test",1,1,2.606,1,NA,NA
"1685",1220,29,"test",1,1,4.691,1,NA,NA
"1686",971,10,"test",1,1,1.723,0,1,NA
"1687",1080,4,"test",1,1,2.375,1,1,NA
"1688",996,29,"test",1,1,3.818,1,1,NA
"1689",1074,16,"test",1,1,3.664,0,NA,NA
"1690",1058,31,"test",1,1,4.672,0,NA,NA
"1691",1074,29,"test",1,1,2.552,0,NA,NA
"1692",1178,2,"test",1,1,2.139,1,NA,NA
"1693",1093,37,"test",1,1,4.005,1,NA,NA
"1694",1119,4,"test",1,1,1.47,0,1,NA
"1695",1152,20,"test",1,1,1.7,0,NA,NA
"1696",983,10,"test",1,1,4.27,0,NA,NA
"1697",1164,38,"test",1,1,4.057,1,NA,NA
"1698",983,1,"test",1,1,2.907,1,1,NA
"1699",986,24,"test",1,1,2.474,1,1,NA
"1700",1152,2,"test",1,1,2.625,1,NA,NA
"1701",1152,39,"test",1,1,4.234,1,NA,NA
"1702",966,12,"test",1,1,2.449,1,NA,NA
"1703",1071,9,"test",1,1,1.603,1,1,NA
"1704",1182,39,"test",1,1,2.178,0,NA,NA
"1705",1184,32,"test",1,1,1.031,0,NA,NA
"1706",1088,24,"test",1,1,2.045,1,NA,NA
"1707",1010,12,"test",1,1,1.378,1,1,NA
"1708",1074,24,"test",1,1,1.432,1,1,NA
"1709",996,35,"test",1,1,2.438,0,NA,NA
"1710",1093,28,"test",1,1,3.819,0,1,NA
"1711",1140,3,"test",1,1,2.736,1,NA,NA
"1712",1140,7,"test",1,1,4.058,0,NA,NA
"1713",996,6,"test",1,1,2.925,0,NA,NA
"1714",1074,20,"test",1,1,2.015,0,1,NA
"1715",1106,40,"test",1,1,1.935,0,NA,NA
"1716",1152,27,"test",1,1,1.353,1,1,NA
"1717",1002,13,"test",1,1,1.097,1,1,NA
"1718",1164,16,"test",1,1,2.46,1,NA,NA
"1719",984,22,"test",1,1,2.907,1,1,NA
"1720",1019,37,"test",1,1,2.304,1,1,NA
"1721",1185,10,"test",1,1,6.218,1,NA,NA
"1722",983,33,"test",1,1,3.167,1,NA,NA
"1723",1093,5,"test",1,1,1.522,0,1,NA
"1724",1041,3,"test",1,1,4.809,0,1,NA
"1725",1093,34,"test",1,1,2.379,1,1,NA
"1726",1164,6,"test",1,1,1.486,1,1,NA
"1727",1019,32,"test",1,1,3.068,1,NA,NA
"1728",1212,5,"test",1,1,1.085,1,1,NA
"1729",960,33,"test",1,1,3.214,0,NA,NA
"1730",1140,12,"test",1,1,2.607,1,NA,NA
"1731",1220,5,"test",1,1,2.751,1,1,NA
"1732",966,27,"test",1,1,2.723,1,NA,NA
"1733",996,31,"test",1,1,3.768,0,NA,NA
"1734",1018,11,"test",1,1,3.399,1,NA,NA
"1735",984,34,"test",1,1,2.417,1,NA,NA
"1736",1011,11,"test",1,1,1.364,0,1,NA
"1737",966,29,"test",1,1,3.45,1,NA,NA
"1738",983,36,"test",1,1,3.129,0,1,NA
"1739",996,17,"test",1,1,3.804,0,NA,NA
"1740",1058,18,"test",1,1,1.224,0,1,NA
"1741",1130,18,"test",1,1,1.515,0,1,NA
"1742",1178,13,"test",1,1,1.718,0,NA,NA
"1743",940,19,"test",1,1,1.214,1,1,NA
"1744",1058,25,"test",1,1,1.543,1,1,NA
"1745",1058,16,"test",1,1,2.448,0,NA,NA
"1746",1090,1,"test",1,1,2.187,0,NA,NA
"1747",1164,35,"test",1,1,2.345,1,NA,NA
"1748",1185,11,"test",1,1,2.321,1,1,NA
"1749",1212,3,"test",1,1,6.67,0,NA,NA
"1750",956,22,"test",1,1,1.456,0,NA,NA
"1751",966,1,"test",1,1,2.022,1,1,NA
"1752",1073,40,"test",1,1,1.155,1,NA,NA
"1753",1073,13,"test",1,1,0.958,1,1,NA
"1754",1074,32,"test",1,1,4.346,1,NA,NA
"1755",1185,8,"test",1,1,3.297,1,1,NA
"1756",958,9,"test",1,1,1.7,1,1,NA
"1757",1140,18,"test",1,1,1.204,0,1,NA
"1758",966,11,"test",1,1,2.998,1,NA,NA
"1759",996,13,"test",1,1,1.784,1,NA,NA
"1760",1019,15,"test",1,1,4.117,0,NA,NA
"1761",1028,11,"test",1,1,2.458,1,1,NA
"1762",1080,8,"test",1,1,2.053,1,1,NA
"1763",1008,6,"test",1,1,0.934,1,1,NA
"1764",1090,24,"test",1,1,1.486,1,1,NA
"1765",1212,4,"test",1,1,5.744,1,1,NA
"1766",966,35,"test",1,1,1.118,1,1,NA
"1767",976,8,"test",1,1,2.835,0,NA,NA
"1768",984,35,"test",1,1,2.207,1,NA,NA
"1769",1019,30,"test",1,1,2.473,1,NA,NA
"1770",1152,22,"test",1,1,2.613,0,NA,NA
"1771",1155,26,"test",1,1,4.329,1,NA,NA
"1772",1185,17,"test",1,1,3.216,0,NA,NA
"1773",1029,1,"test",1,1,3.597,1,1,NA
"1774",1074,33,"test",1,1,3.175,1,NA,NA
"1775",1086,34,"test",1,1,1.863,1,NA,NA
"1776",1140,26,"test",1,1,1.79,1,1,NA
"1777",971,34,"test",1,1,1.373,1,NA,NA
"1778",1140,6,"test",1,1,5.279,1,NA,NA
"1779",976,17,"test",1,1,2.697,1,NA,NA
"1780",1185,38,"test",1,1,3.806,1,NA,NA
"1781",1223,14,"test",1,1,1.042,1,NA,NA
"1782",1073,34,"test",1,1,1.98,1,1,NA
"1783",1093,8,"test",1,1,2.701,0,NA,NA
"1784",1164,37,"test",1,1,3.931,0,NA,NA
"1785",976,2,"test",1,1,3.109,1,NA,NA
"1786",1002,2,"test",1,1,3.332,0,NA,NA
"1787",1036,33,"test",1,1,2.01,0,NA,NA
"1788",1152,8,"test",1,1,4.597,1,NA,NA
"1789",984,27,"test",1,1,1.846,0,1,NA
"1790",1073,29,"test",1,1,3.16,0,NA,NA
"1791",1074,5,"test",1,1,2.661,0,NA,NA
"1792",1130,38,"test",1,1,2.131,1,NA,NA
"1793",1185,35,"test",1,1,3.446,0,1,NA
"1794",1028,17,"test",1,1,1.68,1,1,NA
"1795",1220,38,"test",1,1,2.409,0,NA,NA
"1796",1125,16,"test",1,1,7.149,0,NA,NA
"1797",1090,9,"test",1,1,3.406,1,NA,NA
"1798",1152,13,"test",1,1,1.269,0,1,NA
"1799",1178,25,"test",1,1,3.484,0,NA,NA
"1800",1093,26,"test",1,1,1.441,1,1,NA
"1801",1019,27,"test",1,1,2.704,0,NA,NA
"1802",1152,31,"test",1,1,1.853,0,NA,NA
"1803",1155,5,"test",1,1,1.062,0,1,NA
"1804",976,22,"test",1,1,1.622,0,1,NA
"1805",1080,5,"test",1,1,2.637,0,NA,NA
"1806",1142,32,"test",1,1,4.808,0,NA,NA
"1807",1074,11,"test",1,1,4.958,1,NA,NA
"1808",1074,9,"test",1,1,1.973,0,NA,NA
"1809",984,4,"test",1,1,1.637,0,1,NA
"1810",994,34,"test",1,1,4.055,1,NA,NA
"1811",1010,37,"test",1,1,2.339,1,1,NA
"1812",1074,28,"test",1,1,2.824,1,NA,NA
"1813",1164,28,"test",1,1,3.461,1,NA,NA
"1814",1184,6,"test",1,1,1.134,0,NA,NA
"1815",1019,19,"test",1,1,3.705,1,1,NA
"1816",997,38,"test",1,1,1.414,0,1,NA
"1817",1002,37,"test",1,1,3.474,1,NA,NA
"1818",1074,35,"test",1,1,2.7,1,NA,NA
"1819",1182,13,"test",1,1,4.665,1,NA,NA
"1820",966,8,"test",1,1,2.815,1,1,NA
"1821",1093,29,"test",1,1,6.426,1,NA,NA
"1822",1182,37,"test",1,1,1.93,0,NA,NA
"1823",958,30,"test",1,1,1.87,1,NA,NA
"1824",1018,20,"test",1,1,2.476,1,NA,NA
"1825",1073,1,"test",1,1,3.321,1,NA,NA
"1826",1152,3,"test",1,1,1.952,1,1,NA
"1827",966,7,"test",1,1,2.389,0,1,NA
"1828",1002,21,"test",1,1,3.023,1,1,NA
"1829",1185,18,"test",1,1,2.669,1,NA,NA
"1830",1125,15,"test",1,1,0.757,1,1,NA
"1831",1143,9,"test",1,1,2.273,0,NA,NA
"1832",958,33,"test",1,1,2.583,0,1,NA
"1833",1074,1,"test",1,1,4.589,1,1,NA
"1834",1093,6,"test",1,1,2.235,1,NA,NA
"1835",1106,21,"test",1,1,1.637,1,1,NA
"1836",976,28,"test",1,1,3.534,1,NA,NA
"1837",976,4,"test",1,1,2.495,1,NA,NA
"1838",984,11,"test",1,1,2.842,1,1,NA
"1839",1074,14,"test",1,1,2.492,1,1,NA
"1840",1101,24,"test",1,1,1.739,0,1,NA
"1841",1178,15,"test",1,1,1.904,1,1,NA
"1842",1097,16,"test",1,1,2.769,0,NA,NA
"1843",1155,11,"test",1,1,3.162,0,NA,NA
"1844",1185,12,"test",1,1,4.305,0,1,NA
"1845",1058,38,"test",1,1,2.941,1,NA,NA
"1846",996,27,"test",1,1,2.673,1,NA,NA
"1847",956,37,"test",1,1,1.737,1,1,NA
"1848",984,33,"test",1,1,4.417,0,1,NA
"1849",1058,24,"test",1,1,1.804,1,NA,NA
"1850",1071,36,"test",1,1,1.677,0,NA,NA
"1851",1072,11,"test",1,1,1.4,1,1,NA
"1852",1185,30,"test",1,1,1.477,0,NA,NA
"1853",1058,7,"test",1,1,2.554,1,1,NA
"1854",1178,26,"test",1,1,1.259,0,1,NA
"1855",958,2,"test",1,1,1.411,1,1,NA
"1856",996,1,"test",1,1,2.005,0,NA,NA
"1857",1090,33,"test",1,1,2.565,0,NA,NA
"1858",1097,26,"test",1,1,1.506,1,1,NA
"1859",1185,40,"test",1,1,3.554,0,NA,NA
"1860",976,33,"test",1,1,2.658,1,NA,NA
"1861",984,40,"test",1,1,2.131,1,NA,NA
"1862",976,3,"test",1,1,2.745,1,1,NA
"1863",1028,19,"test",1,1,1.71,1,1,NA
"1864",1152,21,"test",1,1,3.891,1,NA,NA
"1865",1058,8,"test",1,1,4.578,0,1,NA
"1866",1127,22,"test",1,1,2.611,0,1,NA
"1867",996,5,"test",1,1,1.524,0,1,NA
"1868",1058,13,"test",1,1,3.563,0,NA,NA
"1869",1080,31,"test",1,1,3.409,0,NA,NA
"1870",1130,6,"test",1,1,2.538,1,1,NA
"1871",966,38,"test",1,1,1.934,1,NA,NA
"1872",1074,2,"test",1,1,2.826,1,1,NA
"1873",1090,17,"test",1,1,5.124,0,NA,NA
"1874",1090,2,"test",1,1,2.99,1,1,NA
"1875",1011,19,"test",1,1,1.804,0,1,NA
"1876",1029,12,"test",1,1,3.249,0,NA,NA
"1877",1066,38,"test",1,1,1.485,1,1,NA
"1878",1074,30,"test",1,1,2.152,1,NA,NA
"1879",966,16,"test",1,1,3.024,1,NA,NA
"1880",971,28,"test",1,1,1.51,1,NA,NA
"1881",976,11,"test",1,1,2.482,1,NA,NA
"1882",1140,40,"test",1,1,1.656,1,NA,NA
"1883",1152,10,"test",1,1,2.857,0,NA,NA
"1884",984,23,"test",1,1,6.109,1,NA,NA
"1885",986,32,"test",1,1,0.897,1,1,NA
"1886",1090,30,"test",1,1,2.06,0,NA,NA
"1887",958,34,"test",1,1,2.221,1,NA,NA
"1888",958,10,"test",1,1,3.852,0,NA,NA
"1889",976,12,"test",1,1,2.352,1,NA,NA
"1890",984,20,"test",1,1,2.551,1,NA,NA
"1891",1058,9,"test",1,1,3.501,1,NA,NA
"1892",1074,12,"test",1,1,3.593,1,NA,NA
"1893",1185,4,"test",1,1,3.538,1,1,NA
"1894",958,27,"test",1,1,3.059,0,1,NA
"1895",1018,7,"test",1,1,4.898,1,1,NA
"1896",1152,24,"test",1,1,1.509,0,NA,NA
"1897",966,31,"test",1,1,3.126,1,1,NA
"1898",1130,14,"test",1,1,1.897,1,NA,NA
"1899",1152,11,"test",1,1,3.408,1,1,NA
"1900",997,13,"test",1,1,1.297,1,1,NA
"1901",996,24,"test",1,1,3.44,0,1,NA
"1902",1164,27,"test",1,1,2.283,0,NA,NA
"1903",1142,20,"test",1,1,2.266,0,NA,NA
"1904",1143,1,"test",1,1,1.776,0,1,NA
"1905",1184,34,"test",1,1,1.544,0,NA,NA
"1906",1073,9,"test",1,1,1.226,1,NA,NA
"1907",984,26,"test",1,1,1.905,1,1,NA
"1908",1184,25,"test",1,1,3.107,0,NA,NA
"1909",976,13,"test",1,1,2.327,0,1,NA
"1910",976,20,"test",1,1,4.244,1,NA,NA
"1911",1054,39,"test",1,1,2.296,0,NA,NA
"1912",1090,16,"test",1,1,2.658,0,NA,NA
"1913",1018,21,"test",1,1,2.408,1,1,NA
"1914",1019,2,"test",1,1,1.46,1,1,NA
"1915",1090,11,"test",1,1,1.604,1,1,NA
"1916",1093,10,"test",1,1,1.331,0,1,NA
"1917",966,30,"test",1,1,2.933,1,NA,NA
"1918",1073,39,"test",1,1,1.931,1,NA,NA
"1919",1127,2,"test",1,1,1.012,1,1,NA
"1920",1164,2,"test",1,1,2.962,1,1,NA
"1921",1097,29,"test",1,1,1.885,1,1,NA
"1922",958,3,"test",1,1,2.142,1,NA,NA
"1923",986,2,"test",1,1,1.561,1,NA,NA
"1924",1152,23,"test",1,1,1.247,0,1,NA
"1925",1019,36,"test",1,1,2.268,0,NA,NA
"1926",1106,33,"test",1,1,2.03,1,1,NA
"1927",1090,27,"test",1,1,3.993,0,NA,NA
"1928",1164,25,"test",1,1,1.726,1,1,NA
"1929",956,4,"test",1,1,1.761,1,1,NA
"1930",1078,28,"test",1,1,4.069,0,NA,NA
"1931",976,15,"test",1,1,2.885,1,NA,NA
"1932",1130,5,"test",1,1,2.054,0,NA,NA
"1933",940,18,"test",1,1,1.374,1,1,NA
"1934",958,15,"test",1,1,1.385,1,1,NA
"1935",1130,7,"test",1,1,4.838,0,NA,NA
"1936",976,40,"test",1,1,1.587,1,NA,NA
"1937",984,21,"test",1,1,1.931,1,1,NA
"1938",1152,16,"test",1,1,1.425,0,NA,NA
"1939",1028,9,"test",1,1,2.509,1,NA,NA
"1940",976,5,"test",1,1,4.32,1,NA,NA
"1941",984,30,"test",1,1,3.097,0,NA,NA
"1942",1090,34,"test",1,1,3.482,0,NA,NA
"1943",1074,6,"test",1,1,1.995,0,1,NA
"1944",996,12,"test",1,1,1.309,1,1,NA
"1945",1058,34,"test",1,1,2.374,1,1,NA
"1946",984,31,"test",1,1,1.779,0,1,NA
"1947",1040,3,"test",1,1,2.038,0,1,NA
"1948",1066,5,"test",1,1,2.66,1,NA,NA
"1949",958,36,"test",1,1,4.109,1,NA,NA
"1950",976,39,"test",1,1,4.373,0,NA,NA
"1951",1198,11,"test",1,1,2.161,1,1,NA
"1952",952,21,"test",1,1,1.46,1,1,NA
"1953",1029,31,"test",1,1,2.749,0,NA,NA
"1954",1074,7,"test",1,1,6.743,0,1,NA
"1955",1058,30,"test",1,1,1.223,1,1,NA
"1956",1074,38,"test",1,1,3.834,1,NA,NA
"1957",940,15,"test",1,1,3.197,1,NA,NA
"1958",1220,33,"test",1,1,4.204,1,NA,NA
"1959",966,34,"test",1,1,2.531,0,NA,NA
"1960",994,24,"test",1,1,1.043,0,1,NA
"1961",955,4,"test",1,1,1.276,0,1,NA
"1962",1028,40,"test",1,1,2.006,0,NA,NA
"1963",1108,6,"test",1,1,3.029,0,1,NA
"1964",939,31,"test",1,1,2.959,0,NA,NA
"1965",966,25,"test",1,1,2.819,1,NA,NA
"1966",984,29,"test",1,1,2.161,1,1,NA
"1967",1090,40,"test",1,1,4.328,0,NA,NA
"1968",1093,12,"test",1,1,1.075,1,1,NA
"1969",1093,18,"test",1,1,2.247,0,NA,NA
"1970",971,20,"test",1,1,1.37,1,NA,NA
"1971",1041,7,"test",1,1,14.777,0,NA,NA
"1972",1097,36,"test",1,1,4.683,0,NA,NA
"1973",1164,21,"test",1,1,4.627,1,NA,NA
"1974",1223,16,"test",1,1,0.997,0,1,NA
"1975",966,32,"test",1,1,1.676,1,1,NA
"1976",1011,23,"test",1,1,1.968,0,1,NA
"1977",952,6,"test",1,1,2.381,0,1,NA
"1978",1028,26,"test",1,1,2.502,1,NA,NA
"1979",997,3,"test",1,1,2.636,0,NA,NA
"1980",1184,24,"test",1,1,1.312,1,1,NA
"1981",955,20,"test",1,1,3,0,NA,NA
"1982",958,35,"test",1,1,2.309,0,NA,NA
"1983",960,30,"test",1,1,2.13,1,NA,NA
"1984",1058,2,"test",1,1,2.058,1,NA,NA
"1985",1097,33,"test",1,1,3.738,0,NA,NA
"1986",1106,35,"test",1,1,3.552,1,NA,NA
"1987",955,34,"test",1,1,1.855,1,1,NA
"1988",1073,14,"test",1,1,1.755,1,NA,NA
"1989",1198,14,"test",1,1,2.146,1,NA,NA
"1990",984,36,"test",1,1,3.591,0,NA,NA
"1991",996,33,"test",1,1,4.122,1,NA,NA
"1992",1066,7,"test",1,1,8.42,1,NA,NA
"1993",1071,16,"test",1,1,1.269,1,1,NA
"1994",1097,8,"test",1,1,3.083,1,1,NA
"1995",966,21,"test",1,1,5.193,0,NA,NA
"1996",966,10,"test",1,1,5.383,1,NA,NA
"1997",1080,25,"test",1,1,2.487,1,NA,NA
"1998",1112,13,"test",1,1,4.474,1,1,NA
"1999",1125,30,"test",1,1,1.124,0,NA,NA
"2000",986,20,"test",1,1,2.899,1,NA,NA
"2001",1066,11,"test",1,1,4.29,0,1,NA
"2002",1198,8,"test",1,1,3.088,0,1,NA
"2003",939,35,"test",1,1,0.976,0,1,NA
"2004",1008,21,"test",1,1,2.649,1,NA,NA
"2005",1044,40,"test",1,1,2.161,1,NA,NA
"2006",1088,4,"test",1,1,2.908,0,NA,NA
"2007",1093,33,"test",1,1,4.641,0,NA,NA
"2008",986,15,"test",1,1,1.417,1,NA,NA
"2009",986,18,"test",1,1,2.129,0,NA,NA
"2010",997,11,"test",1,1,1.049,0,1,NA
"2011",1058,20,"test",1,1,2.527,0,NA,NA
"2012",1130,39,"test",1,1,2.219,0,NA,NA
"2013",1097,17,"test",1,1,1.881,0,1,NA
"2014",1152,40,"test",1,1,5.609,1,NA,NA
"2015",1080,35,"test",1,1,3.096,0,NA,NA
"2016",1178,24,"test",1,1,1.091,0,1,NA
"2017",1178,11,"test",1,1,2,1,1,NA
"2018",958,40,"test",1,1,1.764,1,NA,NA
"2019",994,5,"test",1,1,1.663,1,1,NA
"2020",1090,4,"test",1,1,1.491,1,1,NA
"2021",1112,30,"test",1,1,1.672,1,1,NA
"2022",1182,29,"test",1,1,1.672,1,1,NA
"2023",984,17,"test",1,1,1.895,1,1,NA
"2024",1097,37,"test",1,1,1.454,1,1,NA
"2025",1140,24,"test",1,1,2.827,0,1,NA
"2026",956,40,"test",1,1,1.49,1,NA,NA
"2027",1036,32,"test",1,1,2.532,1,NA,NA
"2028",1044,38,"test",1,1,1.918,1,NA,NA
"2029",1073,32,"test",1,1,1.078,0,1,NA
"2030",1058,29,"test",1,1,3.513,1,1,NA
"2031",952,24,"test",1,1,1.62,0,NA,NA
"2032",1101,30,"test",1,1,5.806,1,NA,NA
"2033",1174,11,"test",1,1,2.474,1,1,NA
"2034",1160,5,"test",1,1,30.534,1,NA,NA
"2035",1011,31,"test",1,1,1.73,1,1,NA
"2036",1097,34,"test",1,1,2.305,0,NA,NA
"2037",1066,17,"test",1,1,2.849,0,NA,NA
"2038",1074,21,"test",1,1,3.382,1,NA,NA
"2039",1066,15,"test",1,1,1.878,1,1,NA
"2040",955,40,"test",1,1,2.473,0,NA,NA
"2041",966,36,"test",1,1,2.288,1,NA,NA
"2042",1028,29,"test",1,1,2.2,0,NA,NA
"2043",1054,6,"test",1,1,1.534,1,NA,NA
"2044",1155,6,"test",1,1,0.983,1,1,NA
"2045",984,10,"test",1,1,4.373,1,1,NA
"2046",1018,3,"test",1,1,2.373,1,NA,NA
"2047",1044,19,"test",1,1,1.221,1,1,NA
"2048",976,21,"test",1,1,5.178,1,NA,NA
"2049",1074,17,"test",1,1,2.795,0,1,NA
"2050",1097,24,"test",1,1,1.816,0,NA,NA
"2051",1073,28,"test",1,1,1.836,0,NA,NA
"2052",1140,22,"test",1,1,2.21,1,1,NA
"2053",945,30,"test",1,1,3.798,0,NA,NA
"2054",952,15,"test",1,1,1.216,0,1,NA
"2055",1184,22,"test",1,1,30.618,1,NA,NA
"2056",1028,20,"test",1,1,1.642,0,NA,NA
"2057",1033,11,"test",1,1,3.062,1,1,NA
"2058",1097,25,"test",1,1,2.371,0,NA,NA
"2059",1143,21,"test",1,1,1.343,0,1,NA
"2060",955,33,"test",1,1,3.685,0,NA,NA
"2061",1097,9,"test",1,1,3.372,1,NA,NA
"2062",1199,35,"test",1,1,2.446,0,NA,NA
"2063",1066,29,"test",1,1,3.574,1,NA,NA
"2064",958,8,"test",1,1,3.472,0,NA,NA
"2065",941,30,"test",1,1,0.522,0,NA,NA
"2066",952,23,"test",1,1,1.72,0,NA,NA
"2067",1093,15,"test",1,1,3.909,1,NA,NA
"2068",976,16,"test",1,1,2.251,1,1,NA
"2069",984,12,"test",1,1,2.923,1,1,NA
"2070",958,25,"test",1,1,4.842,1,NA,NA
"2071",1010,2,"test",1,1,2.113,1,NA,NA
"2072",1178,18,"test",1,1,1.331,1,1,NA
"2073",986,26,"test",1,1,1.51,1,1,NA
"2074",1106,7,"test",1,1,3.054,1,NA,NA
"2075",1002,28,"test",1,1,10.303,0,NA,NA
"2076",1044,20,"test",1,1,1.884,1,NA,NA
"2077",1058,14,"test",1,1,3.742,1,NA,NA
"2078",1088,6,"test",1,1,1.64,0,1,NA
"2079",1106,32,"test",1,1,1.67,0,NA,NA
"2080",1072,7,"test",1,1,2.067,1,1,NA
"2081",984,16,"test",1,1,2.727,1,1,NA
"2082",1074,39,"test",1,1,2.824,1,NA,NA
"2083",994,13,"test",1,1,1.629,1,NA,NA
"2084",1011,30,"test",1,1,3.471,0,1,NA
"2085",1097,28,"test",1,1,3.913,0,NA,NA
"2086",1112,37,"test",1,1,3.262,1,NA,NA
"2087",955,3,"test",1,1,2.972,0,NA,NA
"2088",984,24,"test",1,1,1.724,0,NA,NA
"2089",994,37,"test",1,1,2.271,1,NA,NA
"2090",1174,5,"test",1,1,1.182,0,1,NA
"2091",1019,33,"test",1,1,2.258,1,1,NA
"2092",1097,11,"test",1,1,3.662,1,NA,NA
"2093",1097,27,"test",1,1,2.495,1,1,NA
"2094",1011,3,"test",1,1,3.235,0,1,NA
"2095",1199,11,"test",1,1,1.871,0,1,NA
"2096",1214,30,"test",1,1,2.408,0,NA,NA
"2097",955,38,"test",1,1,2.857,1,NA,NA
"2098",996,14,"test",1,1,2.249,1,NA,NA
"2099",1086,29,"test",1,1,2.24,1,1,NA
"2100",1199,30,"test",1,1,2.081,0,NA,NA
"2101",1040,10,"test",1,1,7.757,0,1,NA
"2102",1074,37,"test",1,1,3.055,1,NA,NA
"2103",1028,28,"test",1,1,2.366,0,1,NA
"2104",1152,6,"test",1,1,1.902,1,NA,NA
"2105",1178,33,"test",1,1,4.975,1,NA,NA
"2106",1044,12,"test",1,1,3.623,0,NA,NA
"2107",1058,3,"test",1,1,1.341,1,1,NA
"2108",1074,40,"test",1,1,1.752,1,NA,NA
"2109",1152,30,"test",1,1,2.218,1,NA,NA
"2110",1184,1,"test",1,1,1.574,1,1,NA
"2111",955,7,"test",1,1,3.961,1,1,NA
"2112",984,18,"test",1,1,3.018,1,1,NA
"2113",1074,34,"test",1,1,4.134,1,NA,NA
"2114",976,19,"test",1,1,2.074,1,1,NA
"2115",1058,6,"test",1,1,3.753,0,NA,NA
"2116",1097,10,"test",1,1,4.613,0,NA,NA
"2117",955,6,"test",1,1,1.739,0,1,NA
"2118",994,21,"test",1,1,2.331,1,1,NA
"2119",976,10,"test",1,1,8.878,0,NA,NA
"2120",976,32,"test",1,1,3.004,0,NA,NA
"2121",984,1,"test",1,1,3.007,0,NA,NA
"2122",984,32,"test",1,1,4.497,1,NA,NA
"2123",994,17,"test",1,1,3.127,0,NA,NA
"2124",1044,18,"test",1,1,3.335,0,1,NA
"2125",1028,15,"test",1,1,3.276,1,NA,NA
"2126",1130,1,"test",1,1,2.02,0,1,NA
"2127",976,26,"test",1,1,4.092,0,NA,NA
"2128",1010,33,"test",1,1,4.746,0,NA,NA
"2129",1097,7,"test",1,1,4.599,1,1,NA
"2130",955,27,"test",1,1,2.16,1,NA,NA
"2131",986,30,"test",1,1,1.477,1,1,NA
"2132",1108,40,"test",1,1,2.191,0,NA,NA
"2133",984,38,"test",1,1,2.455,1,NA,NA
"2134",1097,40,"test",1,1,3.301,0,NA,NA
"2135",1028,5,"test",1,1,1.092,1,1,NA
"2136",1174,15,"test",1,1,5.01,1,NA,NA
"2137",952,35,"test",1,1,1.628,0,NA,NA
"2138",1019,10,"test",1,1,4.118,0,NA,NA
"2139",994,14,"test",1,1,1.934,1,1,NA
"2140",1028,23,"test",1,1,4.671,1,NA,NA
"2141",1108,2,"test",1,1,1.438,0,1,NA
"2142",1143,2,"test",1,1,1.738,0,NA,NA
"2143",1178,35,"test",1,1,1.013,0,1,NA
"2144",997,5,"test",1,1,1.395,0,1,NA
"2145",996,37,"test",1,1,2.694,0,1,NA
"2146",1108,34,"test",1,1,2.188,1,NA,NA
"2147",952,33,"test",1,1,5.498,1,NA,NA
"2148",958,14,"test",1,1,1.823,1,1,NA
"2149",1097,3,"test",1,1,2.334,1,1,NA
"2150",1112,35,"test",1,1,2.905,1,NA,NA
"2151",1143,29,"test",1,1,3.154,0,NA,NA
"2152",1205,40,"test",1,1,1.795,1,NA,NA
"2153",966,9,"test",1,1,1.399,1,1,NA
"2154",1130,32,"test",1,1,2.333,1,NA,NA
"2155",1152,33,"test",1,1,3.416,0,NA,NA
"2156",956,30,"test",1,1,0.817,1,1,NA
"2157",1090,22,"test",1,1,2.604,0,NA,NA
"2158",1090,3,"test",1,1,3.09,0,NA,NA
"2159",966,37,"test",1,1,2.926,1,NA,NA
"2160",1073,3,"test",1,1,3.108,0,NA,NA
"2161",1093,17,"test",1,1,3.949,0,1,NA
"2162",1199,9,"test",1,1,2.818,1,NA,NA
"2163",976,35,"test",1,1,2.056,1,NA,NA
"2164",994,12,"test",1,1,5.129,0,NA,NA
"2165",1019,31,"test",1,1,2.791,0,NA,NA
"2166",1028,27,"test",1,1,2.385,0,NA,NA
"2167",1140,39,"test",1,1,6.566,0,NA,NA
"2168",952,29,"test",1,1,3.071,0,NA,NA
"2169",955,19,"test",1,1,1.959,0,1,NA
"2170",1008,2,"test",1,1,1.414,1,1,NA
"2171",1093,13,"test",1,1,2.292,1,NA,NA
"2172",952,39,"test",1,1,4.75,0,NA,NA
"2173",973,10,"test",1,1,1.133,1,1,NA
"2174",986,25,"test",1,1,7.638,0,NA,NA
"2175",1028,8,"test",1,1,3.458,0,1,NA
"2176",1125,32,"test",1,1,0.73,0,1,NA
"2177",1140,15,"test",1,1,2.952,1,NA,NA
"2178",994,18,"test",1,1,3.313,0,NA,NA
"2179",1041,13,"test",1,1,7.372,1,NA,NA
"2180",1088,15,"test",1,1,1.737,1,1,NA
"2181",1097,6,"test",1,1,2.38,1,1,NA
"2182",1130,40,"test",1,1,2.278,1,NA,NA
"2183",994,16,"test",1,1,1.509,1,1,NA
"2184",1199,32,"test",1,1,2.595,1,NA,NA
"2185",1093,23,"test",1,1,1.689,1,1,NA
"2186",1101,37,"test",1,1,2.312,1,NA,NA
"2187",976,27,"test",1,1,5.105,1,1,NA
"2188",1199,34,"test",1,1,1.954,1,1,NA
"2189",1066,39,"test",1,1,4.908,1,NA,NA
"2190",1093,36,"test",1,1,2.659,0,NA,NA
"2191",1108,22,"test",1,1,3.635,0,NA,NA
"2192",1178,8,"test",1,1,0.977,1,1,NA
"2193",966,15,"test",1,1,2.018,1,NA,NA
"2194",1011,10,"test",1,1,2.795,0,NA,NA
"2195",996,3,"test",1,1,3.07,1,NA,NA
"2196",1112,14,"test",1,1,3.805,1,NA,NA
"2197",1036,15,"test",1,1,1.071,1,1,NA
"2198",994,35,"test",1,1,1.526,1,NA,NA
"2199",1222,34,"test",1,1,2.224,1,1,NA
"2200",984,19,"test",1,1,3.032,0,NA,NA
"2201",996,10,"test",1,1,2.423,0,1,NA
"2202",1090,13,"test",1,1,2.117,0,NA,NA
"2203",1097,32,"test",1,1,2.339,1,1,NA
"2204",1199,39,"test",1,1,1.751,0,NA,NA
"2205",955,5,"test",1,1,1.309,0,1,NA
"2206",960,22,"test",1,1,4.204,1,NA,NA
"2207",994,27,"test",1,1,5.17,1,NA,NA
"2208",1097,13,"test",1,1,1.683,0,1,NA
"2209",1214,38,"test",1,1,1.899,0,NA,NA
"2210",940,22,"test",1,1,1.09,1,1,NA
"2211",940,13,"test",1,1,3.134,0,NA,NA
"2212",984,7,"test",1,1,5.802,1,NA,NA
"2213",1127,30,"test",1,1,2.097,1,1,NA
"2214",1130,28,"test",1,1,5.428,1,1,NA
"2215",1184,13,"test",1,1,1.186,1,1,NA
"2216",1019,5,"test",1,1,3.554,1,NA,NA
"2217",1140,2,"test",1,1,1.644,1,NA,NA
"2218",1018,27,"test",1,1,3.118,0,1,NA
"2219",1028,33,"test",1,1,4.311,1,NA,NA
"2220",1108,12,"test",1,1,1.129,1,1,NA
"2221",1112,2,"test",1,1,2.924,1,NA,NA
"2222",955,22,"test",1,1,2.918,0,NA,NA
"2223",1018,25,"test",1,1,7.467,0,NA,NA
"2224",1108,14,"test",1,1,1.649,1,1,NA
"2225",1108,10,"test",1,1,3.667,0,1,NA
"2226",996,22,"test",1,1,2.22,1,1,NA
"2227",1058,39,"test",1,1,3.919,1,NA,NA
"2228",1083,19,"test",1,1,3.07,1,NA,NA
"2229",940,3,"test",1,1,4.513,1,NA,NA
"2230",955,12,"test",1,1,1.378,0,1,NA
"2231",1083,30,"test",1,1,2.211,0,1,NA
"2232",1108,35,"test",1,1,2.682,1,NA,NA
"2233",1152,5,"test",1,1,1.783,0,NA,NA
"2234",1178,40,"test",1,1,2.55,1,NA,NA
"2235",1011,32,"test",1,1,1.405,1,NA,NA
"2236",1044,4,"test",1,1,1.974,0,NA,NA
"2237",1074,19,"test",1,1,2.505,0,1,NA
"2238",1083,40,"test",1,1,1.622,1,NA,NA
"2239",1108,19,"test",1,1,3.282,1,1,NA
"2240",955,21,"test",1,1,6.688,1,NA,NA
"2241",1071,30,"test",1,1,2.184,1,NA,NA
"2242",1143,35,"test",1,1,1.693,0,NA,NA
"2243",1152,28,"test",1,1,1.874,0,1,NA
"2244",1212,17,"test",1,1,2.692,0,NA,NA
"2245",955,25,"test",1,1,5.093,1,NA,NA
"2246",983,26,"test",1,1,2.018,1,1,NA
"2247",1072,38,"test",1,1,2.703,1,NA,NA
"2248",952,13,"test",1,1,1.627,0,1,NA
"2249",986,6,"test",1,1,1.042,1,1,NA
"2250",1090,21,"test",1,1,2.101,0,NA,NA
"2251",1101,26,"test",1,1,2.744,1,1,NA
"2252",1106,12,"test",1,1,0.917,1,1,NA
"2253",1223,29,"test",1,1,1.242,1,NA,NA
"2254",1140,28,"test",1,1,1.487,1,1,NA
"2255",1073,21,"test",1,1,1.682,0,NA,NA
"2256",997,32,"test",1,1,2.901,0,NA,NA
"2257",1198,5,"test",1,1,4.051,0,NA,NA
"2258",1080,1,"test",1,1,3.024,1,1,NA
"2259",1112,36,"test",1,1,3.674,1,NA,NA
"2260",994,31,"test",1,1,2.667,1,NA,NA
"2261",997,8,"test",1,1,2.709,1,NA,NA
"2262",1199,26,"test",1,1,1.743,1,1,NA
"2263",1044,25,"test",1,1,3.979,0,NA,NA
"2264",1044,24,"test",1,1,1.48,0,1,NA
"2265",1073,26,"test",1,1,1.333,1,1,NA
"2266",1093,38,"test",1,1,3.811,0,NA,NA
"2267",1093,2,"test",1,1,2.615,0,NA,NA
"2268",1093,21,"test",1,1,4.017,1,NA,NA
"2269",1130,31,"test",1,1,3.515,0,NA,NA
"2270",983,19,"test",1,1,3.155,0,NA,NA
"2271",994,29,"test",1,1,5.86,0,1,NA
"2272",1074,26,"test",1,1,3.138,1,NA,NA
"2273",1101,17,"test",1,1,2.253,1,1,NA
"2274",997,1,"test",1,1,3.268,0,1,NA
"2275",1074,8,"test",1,1,2.202,0,1,NA
"2276",1029,19,"test",1,1,2.293,1,NA,NA
"2277",1174,16,"test",1,1,1.362,1,1,NA
"2278",1215,34,"test",1,1,1.604,0,NA,NA
"2279",1093,1,"test",1,1,3.27,1,NA,NA
"2280",958,28,"test",1,1,2.946,1,NA,NA
"2281",1097,2,"test",1,1,2.852,1,1,NA
"2282",1101,31,"test",1,1,3.858,1,NA,NA
"2283",1143,13,"test",1,1,1.659,0,NA,NA
"2284",1198,15,"test",1,1,1.659,1,1,NA
"2285",955,32,"test",1,1,4.148,1,NA,NA
"2286",1108,4,"test",1,1,1.503,1,NA,NA
"2287",1093,27,"test",1,1,3.397,1,1,NA
"2288",1112,34,"test",1,1,2.971,1,1,NA
"2289",994,23,"test",1,1,3.576,0,1,NA
"2290",996,23,"test",1,1,4.54,0,NA,NA
"2291",997,40,"test",1,1,2.775,0,NA,NA
"2292",1108,38,"test",1,1,2.476,1,NA,NA
"2293",1199,22,"test",1,1,6.839,0,1,NA
"2294",1019,4,"test",1,1,1.767,0,NA,NA
"2295",1090,35,"test",1,1,3.733,0,NA,NA
"2296",952,31,"test",1,1,1.778,0,NA,NA
"2297",966,3,"test",1,1,4.217,0,NA,NA
"2298",994,11,"test",1,1,3.014,0,NA,NA
"2299",1108,26,"test",1,1,4.977,1,NA,NA
"2300",1178,23,"test",1,1,4.52,1,NA,NA
"2301",1083,10,"test",1,1,4.875,0,NA,NA
"2302",958,23,"test",1,1,2.911,1,1,NA
"2303",1066,25,"test",1,1,6.005,0,1,NA
"2304",932,28,"test",1,1,1.205,0,NA,NA
"2305",940,35,"test",1,1,5.474,0,NA,NA
"2306",1058,5,"test",1,1,2.465,1,1,NA
"2307",1134,36,"test",1,1,1.624,0,NA,NA
"2308",1174,12,"test",1,1,1.201,0,1,NA
"2309",1008,28,"test",1,1,4.091,0,NA,NA
"2310",1098,30,"test",1,1,1.56,1,1,NA
"2311",1143,4,"test",1,1,4.029,1,1,NA
"2312",1093,24,"test",1,1,1.739,1,NA,NA
"2313",1097,23,"test",1,1,4.159,1,NA,NA
"2314",994,38,"test",1,1,2.379,1,NA,NA
"2315",1101,21,"test",1,1,1.573,1,1,NA
"2316",1155,29,"test",1,1,6.383,1,NA,NA
"2317",1072,6,"test",1,1,1.068,1,1,NA
"2318",1130,24,"test",1,1,1.845,0,NA,NA
"2319",1044,2,"test",1,1,4.526,1,NA,NA
"2320",1106,24,"test",1,1,1.208,0,NA,NA
"2321",993,40,"test",1,1,1.933,1,NA,NA
"2322",997,39,"test",1,1,2.766,0,NA,NA
"2323",993,5,"test",1,1,2.691,1,NA,NA
"2324",1093,25,"test",1,1,3.475,0,NA,NA
"2325",1101,38,"test",1,1,2.533,1,NA,NA
"2326",1080,6,"test",1,1,2.652,1,1,NA
"2327",1097,39,"test",1,1,3.139,1,NA,NA
"2328",1097,5,"test",1,1,5.542,1,NA,NA
"2329",1101,2,"test",1,1,4.617,0,1,NA
"2330",993,34,"test",1,1,3.326,0,NA,NA
"2331",1074,15,"test",1,1,2.684,1,1,NA
"2332",1097,20,"test",1,1,2.433,0,NA,NA
"2333",1097,14,"test",1,1,2.055,1,1,NA
"2334",952,2,"test",1,1,2.282,1,1,NA
"2335",958,22,"test",1,1,1.997,0,1,NA
"2336",994,9,"test",1,1,1.982,0,1,NA
"2337",1097,21,"test",1,1,2.563,1,1,NA
"2338",1182,21,"test",1,1,1.877,0,NA,NA
"2339",1093,22,"test",1,1,3.579,0,NA,NA
"2340",1130,25,"test",1,1,2.372,1,1,NA
"2341",956,26,"test",1,1,0.935,0,NA,NA
"2342",1028,1,"test",1,1,2.588,0,NA,NA
"2343",1090,37,"test",1,1,2.21,0,NA,NA
"2344",1214,23,"test",1,1,2.854,0,NA,NA
"2345",955,14,"test",1,1,2.817,0,NA,NA
"2346",1184,31,"test",1,1,1.586,0,NA,NA
"2347",1044,8,"test",1,1,5.439,1,1,NA
"2348",1090,39,"test",1,1,2.892,0,NA,NA
"2349",993,35,"test",1,1,3.562,0,NA,NA
"2350",997,2,"test",1,1,2.483,0,NA,NA
"2351",1054,13,"test",1,1,1.142,0,1,NA
"2352",952,37,"test",1,1,3.909,0,NA,NA
"2353",1220,26,"test",1,1,2.856,0,NA,NA
"2354",1002,16,"test",1,1,4.157,0,NA,NA
"2355",1178,5,"test",1,1,2.04,1,NA,NA
"2356",1073,25,"test",1,1,4.627,0,NA,NA
"2357",1101,36,"test",1,1,3.114,1,NA,NA
"2358",1108,25,"test",1,1,5.501,0,1,NA
"2359",1199,8,"test",1,1,2.768,1,1,NA
"2360",1127,35,"test",1,1,1.581,1,NA,NA
"2361",1078,5,"test",1,1,0.498,1,1,NA
"2362",1215,23,"test",1,1,2.108,0,1,NA
"2363",1044,31,"test",1,1,3.403,1,NA,NA
"2364",1101,11,"test",1,1,4.021,1,NA,NA
"2365",955,31,"test",1,1,4.449,1,NA,NA
"2366",996,32,"test",1,1,2.574,1,NA,NA
"2367",1071,26,"test",1,1,1.25,0,1,NA
"2368",1179,21,"test",1,1,1.418,0,1,NA
"2369",994,2,"test",1,1,3.481,0,NA,NA
"2370",994,3,"test",1,1,2.304,1,NA,NA
"2371",1071,8,"test",1,1,2.904,0,NA,NA
"2372",1083,38,"test",1,1,2.547,0,NA,NA
"2373",1127,8,"test",1,1,1.497,0,NA,NA
"2374",1174,7,"test",1,1,7.024,0,NA,NA
"2375",1090,7,"test",1,1,3.533,0,NA,NA
"2376",1212,38,"test",1,1,1.249,0,1,NA
"2377",955,10,"test",1,1,3.781,1,1,NA
"2378",994,26,"test",1,1,2.73,0,1,NA
"2379",1108,18,"test",1,1,4.174,1,1,NA
"2380",1125,40,"test",1,1,0.921,1,NA,NA
"2381",1152,35,"test",1,1,2.176,0,NA,NA
"2382",1178,6,"test",1,1,1.218,1,1,NA
"2383",994,4,"test",1,1,1.604,0,1,NA
"2384",1058,12,"test",1,1,3.681,1,NA,NA
"2385",1214,12,"test",1,1,1.576,1,1,NA
"2386",1108,7,"test",1,1,4.548,0,NA,NA
"2387",966,22,"test",1,1,4.567,0,NA,NA
"2388",986,1,"test",1,1,1.828,1,1,NA
"2389",1078,22,"test",1,1,2.043,0,1,NA
"2390",1074,25,"test",1,1,4.352,0,1,NA
"2391",1088,22,"test",1,1,3.025,1,NA,NA
"2392",956,38,"test",1,1,1.836,0,NA,NA
"2393",1083,20,"test",1,1,3.06,1,NA,NA
"2394",1199,4,"test",1,1,1.368,1,NA,NA
"2395",993,39,"test",1,1,2.267,0,NA,NA
"2396",1052,39,"test",1,1,1.205,1,1,NA
"2397",1101,33,"test",1,1,5.243,0,NA,NA
"2398",1108,24,"test",1,1,1.435,1,NA,NA
"2399",1143,23,"test",1,1,3.738,1,NA,NA
"2400",1178,38,"test",1,1,3.335,1,NA,NA
"2401",966,20,"test",1,1,3.3,0,NA,NA
"2402",997,18,"test",1,1,1.586,1,1,NA
"2403",952,30,"test",1,1,1.27,0,NA,NA
"2404",955,39,"test",1,1,3.601,0,NA,NA
"2405",1214,9,"test",1,1,3.737,0,NA,NA
"2406",1074,31,"test",1,1,2.095,1,1,NA
"2407",952,40,"test",1,1,4.202,0,NA,NA
"2408",1028,14,"test",1,1,1.933,1,1,NA
"2409",1112,24,"test",1,1,2.124,0,NA,NA
"2410",1052,9,"test",1,1,1.624,0,1,NA
"2411",1086,24,"test",1,1,3.155,1,1,NA
"2412",1108,37,"test",1,1,3.195,0,NA,NA
"2413",966,5,"test",1,1,3.014,0,NA,NA
"2414",1083,1,"test",1,1,4.583,0,1,NA
"2415",1108,29,"test",1,1,5.823,0,NA,NA
"2416",1108,9,"test",1,1,2.75,0,NA,NA
"2417",1152,32,"test",1,1,2.387,0,NA,NA
"2418",1214,16,"test",1,1,1.756,1,1,NA
"2419",1146,36,"test",1,1,2.143,0,NA,NA
"2420",1215,36,"test",1,1,2.27,1,NA,NA
"2421",994,30,"test",1,1,3.771,0,NA,NA
"2422",1073,23,"test",1,1,1.633,1,1,NA
"2423",1101,19,"test",1,1,2.861,0,NA,NA
"2424",955,15,"test",1,1,2.366,1,NA,NA
"2425",1215,20,"test",1,1,3.363,0,NA,NA
"2426",1214,27,"test",1,1,2.912,1,1,NA
"2427",1101,32,"test",1,1,2.721,0,NA,NA
"2428",1146,12,"test",1,1,2.38,1,1,NA
"2429",955,23,"test",1,1,1.714,0,1,NA
"2430",1058,10,"test",1,1,8.294,1,NA,NA
"2431",986,29,"test",1,1,3.1,1,NA,NA
"2432",1097,12,"test",1,1,3.833,1,NA,NA
"2433",1098,33,"test",1,1,2.454,1,NA,NA
"2434",1152,38,"test",1,1,2.224,1,NA,NA
"2435",1152,1,"test",1,1,5.433,1,1,NA
"2436",1086,6,"test",1,1,2.361,1,NA,NA
"2437",1179,22,"test",1,1,3.654,0,NA,NA
"2438",955,17,"test",1,1,1.834,0,1,NA
"2439",1108,8,"test",1,1,4.05,0,NA,NA
"2440",1143,28,"test",1,1,4.066,1,1,NA
"2441",955,16,"test",1,1,2.557,1,NA,NA
"2442",1143,30,"test",1,1,2.611,0,NA,NA
"2443",986,28,"test",1,1,1.994,1,1,NA
"2444",1044,6,"test",1,1,1.661,1,1,NA
"2445",1101,40,"test",1,1,1.97,0,NA,NA
"2446",993,11,"test",1,1,1.74,1,1,NA
"2447",1078,31,"test",1,1,1.634,0,1,NA
"2448",1090,8,"test",1,1,2.122,1,1,NA
"2449",1101,15,"test",1,1,3.167,0,NA,NA
"2450",1152,36,"test",1,1,5.161,1,NA,NA
"2451",1174,32,"test",1,1,1.854,0,1,NA
"2452",1174,34,"test",1,1,4.175,1,NA,NA
"2453",994,8,"test",1,1,5.165,0,NA,NA
"2454",966,17,"test",1,1,3.906,0,NA,NA
"2455",996,4,"test",1,1,12.942,0,NA,NA
"2456",1011,36,"test",1,1,1.44,0,1,NA
"2457",1184,7,"test",1,1,1.614,1,1,NA
"2458",1101,14,"test",1,1,2.64,1,NA,NA
"2459",1174,27,"test",1,1,3.319,1,NA,NA
"2460",1041,1,"test",1,1,4.814,1,NA,NA
"2461",1052,6,"test",1,1,1.943,1,1,NA
"2462",941,1,"test",1,1,0.274,0,1,NA
"2463",958,4,"test",1,1,2.941,1,NA,NA
"2464",1044,14,"test",1,1,3.066,1,NA,NA
"2465",1044,30,"test",1,1,2.255,1,NA,NA
"2466",1130,3,"test",1,1,3.683,0,NA,NA
"2467",1214,5,"test",1,1,3.828,0,NA,NA
"2468",955,36,"test",1,1,3.461,0,NA,NA
"2469",1083,6,"test",1,1,3.84,0,NA,NA
"2470",996,38,"test",1,1,3.342,1,NA,NA
"2471",1097,22,"test",1,1,3.935,1,NA,NA
"2472",1215,29,"test",1,1,3.158,0,NA,NA
"2473",1174,35,"test",1,1,1.224,1,1,NA
"2474",1028,2,"test",1,1,1.046,1,1,NA
"2475",955,11,"test",1,1,4.644,0,NA,NA
"2476",1215,30,"test",1,1,2.117,0,NA,NA
"2477",1088,33,"test",1,1,4.674,0,NA,NA
"2478",1083,37,"test",1,1,3.226,0,NA,NA
"2479",1143,39,"test",1,1,2.038,0,NA,NA
"2480",1223,34,"test",1,1,1.623,0,NA,NA
"2481",986,39,"test",1,1,3.965,0,NA,NA
"2482",1044,29,"test",1,1,2.699,1,NA,NA
"2483",1083,11,"test",1,1,4.326,0,1,NA
"2484",1146,18,"test",1,1,3.837,0,1,NA
"2485",993,3,"test",1,1,1.877,1,1,NA
"2486",1083,16,"test",1,1,3.124,0,1,NA
"2487",1083,4,"test",1,1,1.435,1,1,NA
"2488",1178,7,"test",1,1,4.976,0,NA,NA
"2489",1108,13,"test",1,1,1.097,1,1,NA
"2490",1152,12,"test",1,1,3.783,1,1,NA
"2491",1164,5,"test",1,1,2.354,1,NA,NA
"2492",1098,3,"test",1,1,1.593,0,1,NA
"2493",1108,21,"test",1,1,2.736,1,NA,NA
"2494",958,20,"test",1,1,1.336,0,1,NA
"2495",1112,8,"test",1,1,2.439,1,1,NA
"2496",1044,7,"test",1,1,4.748,0,NA,NA
"2497",1071,32,"test",1,1,3.137,0,1,NA
"2498",1088,10,"test",1,1,6.35,1,1,NA
"2499",1078,10,"test",1,1,4.079,1,NA,NA
"2500",984,15,"test",1,1,1.999,1,NA,NA
"2501",1078,38,"test",1,1,0.663,1,NA,NA
"2502",1101,20,"test",1,1,2.132,1,1,NA
"2503",932,18,"test",1,1,2.475,1,1,NA
"2504",994,36,"test",1,1,2.632,0,NA,NA
"2505",959,11,"test",1,1,1.437,1,1,NA
"2506",1083,3,"test",1,1,3.411,1,NA,NA
"2507",1044,26,"test",1,1,4.936,1,NA,NA
"2508",1098,38,"test",1,1,2.484,1,NA,NA
"2509",1101,27,"test",1,1,4.079,0,NA,NA
"2510",1146,35,"test",1,1,1.883,1,NA,NA
"2511",1052,24,"test",1,1,1.754,1,NA,NA
"2512",952,9,"test",1,1,1.483,0,1,NA
"2513",997,17,"test",1,1,2.62,0,NA,NA
"2514",1199,2,"test",1,1,1.701,1,NA,NA
"2515",1199,10,"test",1,1,2.301,0,1,NA
"2516",956,27,"test",1,1,0.781,1,NA,NA
"2517",1052,33,"test",1,1,5.015,1,NA,NA
"2518",1078,24,"test",1,1,2.749,1,NA,NA
"2519",1101,6,"test",1,1,2.139,0,NA,NA
"2520",1088,21,"test",1,1,2.505,1,1,NA
"2521",1098,16,"test",1,1,3.597,0,NA,NA
"2522",1108,33,"test",1,1,6.68,0,1,NA
"2523",1146,29,"test",1,1,2.769,0,NA,NA
"2524",986,17,"test",1,1,1.576,1,1,NA
"2525",1025,13,"test",1,1,1.372,0,1,NA
"2526",1101,34,"test",1,1,3.559,0,NA,NA
"2527",967,15,"test",1,1,1.706,1,1,NA
"2528",993,31,"test",1,1,4.125,0,NA,NA
"2529",1052,11,"test",1,1,5.614,0,1,NA
"2530",1152,34,"test",1,1,1.756,1,1,NA
"2531",1215,16,"test",1,1,1.376,0,1,NA
"2532",1215,27,"test",1,1,3.333,1,NA,NA
"2533",1028,31,"test",1,1,3.913,0,1,NA
"2534",1044,28,"test",1,1,4.954,0,NA,NA
"2535",1073,11,"test",1,1,8.951,1,NA,NA
"2536",1073,17,"test",1,1,1.467,1,1,NA
"2537",1066,16,"test",1,1,2.39,0,1,NA
"2538",1174,31,"test",1,1,4.497,0,NA,NA
"2539",997,16,"test",1,1,1.719,0,1,NA
"2540",1174,6,"test",1,1,1.184,1,1,NA
"2541",1088,12,"test",1,1,3.098,1,NA,NA
"2542",1130,10,"test",1,1,3.589,1,1,NA
"2543",1146,14,"test",1,1,3.417,1,NA,NA
"2544",959,22,"test",1,1,1.351,1,1,NA
"2545",1044,34,"test",1,1,3.604,0,NA,NA
"2546",1044,13,"test",1,1,3.278,0,NA,NA
"2547",1044,39,"test",1,1,3.187,1,NA,NA
"2548",1098,15,"test",1,1,2.153,1,NA,NA
"2549",952,10,"test",1,1,2.83,1,NA,NA
"2550",1108,5,"test",1,1,2.888,0,1,NA
"2551",959,20,"test",1,1,1.19,1,1,NA
"2552",1044,17,"test",1,1,1.509,0,NA,NA
"2553",1052,21,"test",1,1,2.455,1,1,NA
"2554",1101,5,"test",1,1,3.665,0,1,NA
"2555",959,31,"test",1,1,3.319,1,NA,NA
"2556",1071,27,"test",1,1,4.616,1,1,NA
"2557",1078,27,"test",1,1,4.121,0,NA,NA
"2558",1098,11,"test",1,1,1.194,1,1,NA
"2559",1174,17,"test",1,1,3.572,0,NA,NA
"2560",1184,21,"test",1,1,1.343,1,1,NA
"2561",959,17,"test",1,1,3.47,1,NA,NA
"2562",994,19,"test",1,1,1.707,1,1,NA
"2563",1044,21,"test",1,1,3.499,1,1,NA
"2564",960,39,"test",1,1,3.3,0,NA,NA
"2565",997,34,"test",1,1,3.539,0,NA,NA
"2566",1078,15,"test",1,1,3.214,1,1,NA
"2567",959,14,"test",1,1,1.555,0,1,NA
"2568",993,7,"test",1,1,2.746,1,1,NA
"2569",1052,1,"test",1,1,2.944,0,NA,NA
"2570",1078,6,"test",1,1,2.727,1,NA,NA
"2571",1090,10,"test",1,1,2.221,1,1,NA
"2572",1125,25,"test",1,1,2.21,1,1,NA
"2573",959,36,"test",1,1,2.865,0,NA,NA
"2574",1088,32,"test",1,1,3.01,0,NA,NA
"2575",1073,36,"test",1,1,2.538,0,1,NA
"2576",1074,10,"test",1,1,6.326,0,1,NA
"2577",1010,11,"test",1,1,2.928,1,1,NA
"2578",1174,20,"test",1,1,1.134,1,1,NA
"2579",1097,1,"test",1,1,3.216,1,NA,NA
"2580",1066,26,"test",1,1,1.935,1,1,NA
"2581",1178,12,"test",1,1,6.475,1,NA,NA
"2582",993,26,"test",1,1,1.865,1,1,NA
"2583",1152,7,"test",1,1,3.611,0,1,NA
"2584",1199,7,"test",1,1,4.261,0,NA,NA
