"","subject","presentation_identifier","statement_identifier","within_identifier","between_identifier","rt","response","repeated","trial"
"1",1,"immediate","M1_BR","myth","CFC",NA,6,1,NA
"2",1,"immediate","M2_BR","myth","CFC",NA,0,1,NA
"3",1,"immediate","M3_BR","myth","CFC",NA,0,1,NA
"4",1,"immediate","M4_BR","myth","CFC",NA,1,1,NA
"5",1,"immediate","M5_BR","myth","CFC",NA,0,1,NA
"6",1,"immediate","M6_BR","myth","CFC",NA,0,1,NA
"7",1,"immediate","F1_BR","fact","CFC",NA,10,1,NA
"8",1,"immediate","F2_BR","fact","CFC",NA,2,1,NA
"9",1,"immediate","F3_BR","fact","CFC",NA,9,1,NA
"10",1,"immediate","F4_BR","fact","CFC",NA,0,1,NA
"11",1,"immediate","F5_BR","fact","CFC",NA,7,1,NA
"12",1,"immediate","F6_BR","fact","CFC",NA,3,1,NA
"13",2,"immediate","M1_BR","myth","CFC",NA,0,1,NA
"14",2,"immediate","M2_BR","myth","CFC",NA,0,1,NA
"15",2,"immediate","M3_BR","myth","CFC",NA,0,1,NA
"16",2,"immediate","M4_BR","myth","CFC",NA,0,1,NA
"17",2,"immediate","M5_BR","myth","CFC",NA,0,1,NA
"18",2,"immediate","M6_BR","myth","CFC",NA,0,1,NA
"19",2,"immediate","F1_BR","fact","CFC",NA,10,1,NA
"20",2,"immediate","F2_BR","fact","CFC",NA,10,1,NA
"21",2,"immediate","F3_BR","fact","CFC",NA,10,1,NA
"22",2,"immediate","F4_BR","fact","CFC",NA,10,1,NA
"23",2,"immediate","F5_BR","fact","CFC",NA,10,1,NA
"24",2,"immediate","F6_BR","fact","CFC",NA,10,1,NA
"25",3,"immediate","M1_BR","myth","NE",NA,9,0,NA
"26",3,"immediate","M2_BR","myth","NE",NA,7,0,NA
"27",3,"immediate","M3_BR","myth","NE",NA,1,0,NA
"28",3,"immediate","M4_BR","myth","NE",NA,3,0,NA
"29",3,"immediate","M5_BR","myth","NE",NA,2,0,NA
"30",3,"immediate","M6_BR","myth","NE",NA,0,0,NA
"31",3,"immediate","F1_BR","fact","NE",NA,0,0,NA
"32",3,"immediate","F2_BR","fact","NE",NA,5,0,NA
"33",3,"immediate","F3_BR","fact","NE",NA,1,0,NA
"34",3,"immediate","F4_BR","fact","NE",NA,0,0,NA
"35",3,"immediate","F5_BR","fact","NE",NA,0,0,NA
"36",3,"immediate","F6_BR","fact","NE",NA,8,0,NA
"37",4,"immediate","M1_BR","myth","NE",NA,10,0,NA
"38",4,"immediate","M2_BR","myth","NE",NA,5,0,NA
"39",4,"immediate","M3_BR","myth","NE",NA,3,0,NA
"40",4,"immediate","M4_BR","myth","NE",NA,0,0,NA
"41",4,"immediate","M5_BR","myth","NE",NA,0,0,NA
"42",4,"immediate","M6_BR","myth","NE",NA,5,0,NA
"43",4,"immediate","F1_BR","fact","NE",NA,0,0,NA
"44",4,"immediate","F2_BR","fact","NE",NA,0,0,NA
"45",4,"immediate","F3_BR","fact","NE",NA,8,0,NA
"46",4,"immediate","F4_BR","fact","NE",NA,0,0,NA
"47",4,"immediate","F5_BR","fact","NE",NA,5,0,NA
"48",4,"immediate","F6_BR","fact","NE",NA,4,0,NA
"49",5,"immediate","M1_BR","myth","NE",NA,4,0,NA
"50",5,"immediate","M2_BR","myth","NE",NA,4,0,NA
"51",5,"immediate","M3_BR","myth","NE",NA,4,0,NA
"52",5,"immediate","M4_BR","myth","NE",NA,5,0,NA
"53",5,"immediate","M5_BR","myth","NE",NA,5,0,NA
"54",5,"immediate","M6_BR","myth","NE",NA,5,0,NA
"55",5,"immediate","F1_BR","fact","NE",NA,4,0,NA
"56",5,"immediate","F2_BR","fact","NE",NA,4,0,NA
"57",5,"immediate","F3_BR","fact","NE",NA,4,0,NA
"58",5,"immediate","F4_BR","fact","NE",NA,4,0,NA
"59",5,"immediate","F5_BR","fact","NE",NA,5,0,NA
"60",5,"immediate","F6_BR","fact","NE",NA,4,0,NA
"61",6,"delayed","M1_BR","myth","CFC",NA,0,1,NA
"62",6,"delayed","M2_BR","myth","CFC",NA,10,1,NA
"63",6,"delayed","M3_BR","myth","CFC",NA,5,1,NA
"64",6,"delayed","M4_BR","myth","CFC",NA,0,1,NA
"65",6,"delayed","M5_BR","myth","CFC",NA,10,1,NA
"66",6,"delayed","M6_BR","myth","CFC",NA,0,1,NA
"67",6,"delayed","F1_BR","fact","CFC",NA,5,1,NA
"68",6,"delayed","F2_BR","fact","CFC",NA,3,1,NA
"69",6,"delayed","F3_BR","fact","CFC",NA,10,1,NA
"70",6,"delayed","F4_BR","fact","CFC",NA,10,1,NA
"71",6,"delayed","F5_BR","fact","CFC",NA,10,1,NA
"72",6,"delayed","F6_BR","fact","CFC",NA,6,1,NA
"73",7,"delayed","M1_BR","myth","FCO",NA,5,1,NA
"74",7,"delayed","M2_BR","myth","FCO",NA,8,1,NA
"75",7,"delayed","M3_BR","myth","FCO",NA,8,1,NA
"76",7,"delayed","M4_BR","myth","FCO",NA,0,1,NA
"77",7,"delayed","M5_BR","myth","FCO",NA,4,1,NA
"78",7,"delayed","M6_BR","myth","FCO",NA,2,1,NA
"79",7,"delayed","F1_BR","fact","FCO",NA,0,1,NA
"80",7,"delayed","F2_BR","fact","FCO",NA,5,1,NA
"81",7,"delayed","F3_BR","fact","FCO",NA,3,1,NA
"82",7,"delayed","F4_BR","fact","FCO",NA,6,1,NA
"83",7,"delayed","F5_BR","fact","FCO",NA,5,1,NA
"84",7,"delayed","F6_BR","fact","FCO",NA,1,1,NA
"85",8,"immediate","M1_BR","myth","NE",NA,5,0,NA
"86",8,"immediate","M2_BR","myth","NE",NA,3,0,NA
"87",8,"immediate","M3_BR","myth","NE",NA,6,0,NA
"88",8,"immediate","M4_BR","myth","NE",NA,6,0,NA
"89",8,"immediate","M5_BR","myth","NE",NA,8,0,NA
"90",8,"immediate","M6_BR","myth","NE",NA,4,0,NA
"91",8,"immediate","F1_BR","fact","NE",NA,1,0,NA
"92",8,"immediate","F2_BR","fact","NE",NA,9,0,NA
"93",8,"immediate","F3_BR","fact","NE",NA,10,0,NA
"94",8,"immediate","F4_BR","fact","NE",NA,4,0,NA
"95",8,"immediate","F5_BR","fact","NE",NA,10,0,NA
"96",8,"immediate","F6_BR","fact","NE",NA,8,0,NA
"97",9,"immediate","M1_BR","myth","CFC",NA,0,1,NA
"98",9,"immediate","M2_BR","myth","CFC",NA,3,1,NA
"99",9,"immediate","M3_BR","myth","CFC",NA,0,1,NA
"100",9,"immediate","M4_BR","myth","CFC",NA,0,1,NA
"101",9,"immediate","M5_BR","myth","CFC",NA,0,1,NA
"102",9,"immediate","M6_BR","myth","CFC",NA,0,1,NA
"103",9,"immediate","F1_BR","fact","CFC",NA,10,1,NA
"104",9,"immediate","F2_BR","fact","CFC",NA,3,1,NA
"105",9,"immediate","F3_BR","fact","CFC",NA,10,1,NA
"106",9,"immediate","F4_BR","fact","CFC",NA,10,1,NA
"107",9,"immediate","F5_BR","fact","CFC",NA,3,1,NA
"108",9,"immediate","F6_BR","fact","CFC",NA,5,1,NA
"109",10,"immediate","M1_BR","myth","NE",NA,0,0,NA
"110",10,"immediate","M2_BR","myth","NE",NA,6,0,NA
"111",10,"immediate","M3_BR","myth","NE",NA,0,0,NA
"112",10,"immediate","M4_BR","myth","NE",NA,0,0,NA
"113",10,"immediate","M5_BR","myth","NE",NA,0,0,NA
"114",10,"immediate","M6_BR","myth","NE",NA,5,0,NA
"115",10,"immediate","F1_BR","fact","NE",NA,0,0,NA
"116",10,"immediate","F2_BR","fact","NE",NA,0,0,NA
"117",10,"immediate","F3_BR","fact","NE",NA,0,0,NA
"118",10,"immediate","F4_BR","fact","NE",NA,0,0,NA
"119",10,"immediate","F5_BR","fact","NE",NA,0,0,NA
"120",10,"immediate","F6_BR","fact","NE",NA,0,0,NA
"121",11,"delayed","M1_BR","myth","CO",NA,5,1,NA
"122",11,"delayed","M2_BR","myth","CO",NA,5,1,NA
"123",11,"delayed","M3_BR","myth","CO",NA,5,1,NA
"124",11,"delayed","M4_BR","myth","CO",NA,5,1,NA
"125",11,"delayed","M5_BR","myth","CO",NA,5,1,NA
"126",11,"delayed","M6_BR","myth","CO",NA,5,1,NA
"127",11,"delayed","F1_BR","fact","CO",NA,5,1,NA
"128",11,"delayed","F2_BR","fact","CO",NA,5,1,NA
"129",11,"delayed","F3_BR","fact","CO",NA,5,1,NA
"130",11,"delayed","F4_BR","fact","CO",NA,5,1,NA
"131",11,"delayed","F5_BR","fact","CO",NA,5,1,NA
"132",11,"delayed","F6_BR","fact","CO",NA,5,1,NA
"133",12,"immediate","M1_BR","myth","NE",NA,5,0,NA
"134",12,"immediate","M2_BR","myth","NE",NA,4,0,NA
"135",12,"immediate","M3_BR","myth","NE",NA,7,0,NA
"136",12,"immediate","M4_BR","myth","NE",NA,4,0,NA
"137",12,"immediate","M5_BR","myth","NE",NA,10,0,NA
"138",12,"immediate","M6_BR","myth","NE",NA,3,0,NA
"139",12,"immediate","F1_BR","fact","NE",NA,0,0,NA
"140",12,"immediate","F2_BR","fact","NE",NA,2,0,NA
"141",12,"immediate","F3_BR","fact","NE",NA,6,0,NA
"142",12,"immediate","F4_BR","fact","NE",NA,4,0,NA
"143",12,"immediate","F5_BR","fact","NE",NA,7,0,NA
"144",12,"immediate","F6_BR","fact","NE",NA,2,0,NA
"145",13,"delayed","M1_BR","myth","CFC",NA,0,1,NA
"146",13,"delayed","M2_BR","myth","CFC",NA,0,1,NA
"147",13,"delayed","M3_BR","myth","CFC",NA,10,1,NA
"148",13,"delayed","M4_BR","myth","CFC",NA,0,1,NA
"149",13,"delayed","M5_BR","myth","CFC",NA,0,1,NA
"150",13,"delayed","M6_BR","myth","CFC",NA,10,1,NA
"151",13,"delayed","F1_BR","fact","CFC",NA,0,1,NA
"152",13,"delayed","F2_BR","fact","CFC",NA,10,1,NA
"153",13,"delayed","F3_BR","fact","CFC",NA,10,1,NA
"154",13,"delayed","F4_BR","fact","CFC",NA,10,1,NA
"155",13,"delayed","F5_BR","fact","CFC",NA,10,1,NA
"156",13,"delayed","F6_BR","fact","CFC",NA,0,1,NA
"157",14,"immediate","M1_BR","myth","FCO",NA,3,1,NA
"158",14,"immediate","M2_BR","myth","FCO",NA,6,1,NA
"159",14,"immediate","M3_BR","myth","FCO",NA,5,1,NA
"160",14,"immediate","M4_BR","myth","FCO",NA,4,1,NA
"161",14,"immediate","M5_BR","myth","FCO",NA,4,1,NA
"162",14,"immediate","M6_BR","myth","FCO",NA,3,1,NA
"163",14,"immediate","F1_BR","fact","FCO",NA,5,1,NA
"164",14,"immediate","F2_BR","fact","FCO",NA,5,1,NA
"165",14,"immediate","F3_BR","fact","FCO",NA,4,1,NA
"166",14,"immediate","F4_BR","fact","FCO",NA,7,1,NA
"167",14,"immediate","F5_BR","fact","FCO",NA,6,1,NA
"168",14,"immediate","F6_BR","fact","FCO",NA,6,1,NA
"169",15,"immediate","M1_BR","myth","NE",NA,3,0,NA
"170",15,"immediate","M2_BR","myth","NE",NA,1,0,NA
"171",15,"immediate","M3_BR","myth","NE",NA,5,0,NA
"172",15,"immediate","M4_BR","myth","NE",NA,2,0,NA
"173",15,"immediate","M5_BR","myth","NE",NA,7,0,NA
"174",15,"immediate","M6_BR","myth","NE",NA,8,0,NA
"175",15,"immediate","F1_BR","fact","NE",NA,1,0,NA
"176",15,"immediate","F2_BR","fact","NE",NA,5,0,NA
"177",15,"immediate","F3_BR","fact","NE",NA,8,0,NA
"178",15,"immediate","F4_BR","fact","NE",NA,2,0,NA
"179",15,"immediate","F5_BR","fact","NE",NA,2,0,NA
"180",15,"immediate","F6_BR","fact","NE",NA,5,0,NA
"181",16,"delayed","M1_BR","myth","CFC",NA,6,1,NA
"182",16,"delayed","M2_BR","myth","CFC",NA,1,1,NA
"183",16,"delayed","M3_BR","myth","CFC",NA,3,1,NA
"184",16,"delayed","M4_BR","myth","CFC",NA,8,1,NA
"185",16,"delayed","M5_BR","myth","CFC",NA,9,1,NA
"186",16,"delayed","M6_BR","myth","CFC",NA,4,1,NA
"187",16,"delayed","F1_BR","fact","CFC",NA,7,1,NA
"188",16,"delayed","F2_BR","fact","CFC",NA,1,1,NA
"189",16,"delayed","F3_BR","fact","CFC",NA,6,1,NA
"190",16,"delayed","F4_BR","fact","CFC",NA,2,1,NA
"191",16,"delayed","F5_BR","fact","CFC",NA,7,1,NA
"192",16,"delayed","F6_BR","fact","CFC",NA,1,1,NA
"193",17,"delayed","M1_BR","myth","CFC",NA,0,1,NA
"194",17,"delayed","M2_BR","myth","CFC",NA,2,1,NA
"195",17,"delayed","M3_BR","myth","CFC",NA,1,1,NA
"196",17,"delayed","M4_BR","myth","CFC",NA,10,1,NA
"197",17,"delayed","M5_BR","myth","CFC",NA,0,1,NA
"198",17,"delayed","M6_BR","myth","CFC",NA,0,1,NA
"199",17,"delayed","F1_BR","fact","CFC",NA,0,1,NA
"200",17,"delayed","F2_BR","fact","CFC",NA,6,1,NA
"201",17,"delayed","F3_BR","fact","CFC",NA,7,1,NA
"202",17,"delayed","F4_BR","fact","CFC",NA,3,1,NA
"203",17,"delayed","F5_BR","fact","CFC",NA,2,1,NA
"204",17,"delayed","F6_BR","fact","CFC",NA,4,1,NA
"205",18,"delayed","M1_BR","myth","FCO",NA,2,1,NA
"206",18,"delayed","M2_BR","myth","FCO",NA,8,1,NA
"207",18,"delayed","M3_BR","myth","FCO",NA,3,1,NA
"208",18,"delayed","M4_BR","myth","FCO",NA,1,1,NA
"209",18,"delayed","M5_BR","myth","FCO",NA,2,1,NA
"210",18,"delayed","M6_BR","myth","FCO",NA,2,1,NA
"211",18,"delayed","F1_BR","fact","FCO",NA,7,1,NA
"212",18,"delayed","F2_BR","fact","FCO",NA,2,1,NA
"213",18,"delayed","F3_BR","fact","FCO",NA,8,1,NA
"214",18,"delayed","F4_BR","fact","FCO",NA,7,1,NA
"215",18,"delayed","F5_BR","fact","FCO",NA,2,1,NA
"216",18,"delayed","F6_BR","fact","FCO",NA,6,1,NA
"217",19,"delayed","M1_BR","myth","FCO",NA,2,1,NA
"218",19,"delayed","M2_BR","myth","FCO",NA,1,1,NA
"219",19,"delayed","M3_BR","myth","FCO",NA,6,1,NA
"220",19,"delayed","M4_BR","myth","FCO",NA,3,1,NA
"221",19,"delayed","M5_BR","myth","FCO",NA,2,1,NA
"222",19,"delayed","M6_BR","myth","FCO",NA,4,1,NA
"223",19,"delayed","F1_BR","fact","FCO",NA,6,1,NA
"224",19,"delayed","F2_BR","fact","FCO",NA,5,1,NA
"225",19,"delayed","F3_BR","fact","FCO",NA,7,1,NA
"226",19,"delayed","F4_BR","fact","FCO",NA,2,1,NA
"227",19,"delayed","F5_BR","fact","FCO",NA,10,1,NA
"228",19,"delayed","F6_BR","fact","FCO",NA,7,1,NA
"229",20,"delayed","M1_BR","myth","CFC",NA,0,1,NA
"230",20,"delayed","M2_BR","myth","CFC",NA,6,1,NA
"231",20,"delayed","M3_BR","myth","CFC",NA,5,1,NA
"232",20,"delayed","M4_BR","myth","CFC",NA,1,1,NA
"233",20,"delayed","M5_BR","myth","CFC",NA,0,1,NA
"234",20,"delayed","M6_BR","myth","CFC",NA,10,1,NA
"235",20,"delayed","F1_BR","fact","CFC",NA,7,1,NA
"236",20,"delayed","F2_BR","fact","CFC",NA,3,1,NA
"237",20,"delayed","F3_BR","fact","CFC",NA,8,1,NA
"238",20,"delayed","F4_BR","fact","CFC",NA,3,1,NA
"239",20,"delayed","F5_BR","fact","CFC",NA,6,1,NA
"240",20,"delayed","F6_BR","fact","CFC",NA,2,1,NA
"241",21,"delayed","M1_BR","myth","CFC",NA,3,1,NA
"242",21,"delayed","M2_BR","myth","CFC",NA,6,1,NA
"243",21,"delayed","M3_BR","myth","CFC",NA,3,1,NA
"244",21,"delayed","M4_BR","myth","CFC",NA,6,1,NA
"245",21,"delayed","M5_BR","myth","CFC",NA,3,1,NA
"246",21,"delayed","M6_BR","myth","CFC",NA,4,1,NA
"247",21,"delayed","F1_BR","fact","CFC",NA,10,1,NA
"248",21,"delayed","F2_BR","fact","CFC",NA,5,1,NA
"249",21,"delayed","F3_BR","fact","CFC",NA,6,1,NA
"250",21,"delayed","F4_BR","fact","CFC",NA,6,1,NA
"251",21,"delayed","F5_BR","fact","CFC",NA,6,1,NA
"252",21,"delayed","F6_BR","fact","CFC",NA,2,1,NA
"253",22,"delayed","M1_BR","myth","CFC",NA,6,1,NA
"254",22,"delayed","M2_BR","myth","CFC",NA,9,1,NA
"255",22,"delayed","M3_BR","myth","CFC",NA,0,1,NA
"256",22,"delayed","M4_BR","myth","CFC",NA,0,1,NA
"257",22,"delayed","M5_BR","myth","CFC",NA,9,1,NA
"258",22,"delayed","M6_BR","myth","CFC",NA,2,1,NA
"259",22,"delayed","F1_BR","fact","CFC",NA,7,1,NA
"260",22,"delayed","F2_BR","fact","CFC",NA,3,1,NA
"261",22,"delayed","F3_BR","fact","CFC",NA,0,1,NA
"262",22,"delayed","F4_BR","fact","CFC",NA,10,1,NA
"263",22,"delayed","F5_BR","fact","CFC",NA,10,1,NA
"264",22,"delayed","F6_BR","fact","CFC",NA,1,1,NA
"265",23,"delayed","M1_BR","myth","FCO",NA,5,1,NA
"266",23,"delayed","M2_BR","myth","FCO",NA,6,1,NA
"267",23,"delayed","M3_BR","myth","FCO",NA,3,1,NA
"268",23,"delayed","M4_BR","myth","FCO",NA,5,1,NA
"269",23,"delayed","M5_BR","myth","FCO",NA,7,1,NA
"270",23,"delayed","M6_BR","myth","FCO",NA,5,1,NA
"271",23,"delayed","F1_BR","fact","FCO",NA,2,1,NA
"272",23,"delayed","F2_BR","fact","FCO",NA,5,1,NA
"273",23,"delayed","F3_BR","fact","FCO",NA,6,1,NA
"274",23,"delayed","F4_BR","fact","FCO",NA,5,1,NA
"275",23,"delayed","F5_BR","fact","FCO",NA,7,1,NA
"276",23,"delayed","F6_BR","fact","FCO",NA,5,1,NA
"277",24,"immediate","M1_BR","myth","FCO",NA,0,1,NA
"278",24,"immediate","M2_BR","myth","FCO",NA,2,1,NA
"279",24,"immediate","M3_BR","myth","FCO",NA,5,1,NA
"280",24,"immediate","M4_BR","myth","FCO",NA,0,1,NA
"281",24,"immediate","M5_BR","myth","FCO",NA,0,1,NA
"282",24,"immediate","M6_BR","myth","FCO",NA,4,1,NA
"283",24,"immediate","F1_BR","fact","FCO",NA,5,1,NA
"284",24,"immediate","F2_BR","fact","FCO",NA,5,1,NA
"285",24,"immediate","F3_BR","fact","FCO",NA,5,1,NA
"286",24,"immediate","F4_BR","fact","FCO",NA,6,1,NA
"287",24,"immediate","F5_BR","fact","FCO",NA,6,1,NA
"288",24,"immediate","F6_BR","fact","FCO",NA,4,1,NA
"289",25,"immediate","M1_BR","myth","FCO",NA,0,1,NA
"290",25,"immediate","M2_BR","myth","FCO",NA,0,1,NA
"291",25,"immediate","M3_BR","myth","FCO",NA,0,1,NA
"292",25,"immediate","M4_BR","myth","FCO",NA,1,1,NA
"293",25,"immediate","M5_BR","myth","FCO",NA,10,1,NA
"294",25,"immediate","M6_BR","myth","FCO",NA,0,1,NA
"295",25,"immediate","F1_BR","fact","FCO",NA,1,1,NA
"296",25,"immediate","F2_BR","fact","FCO",NA,8,1,NA
"297",25,"immediate","F3_BR","fact","FCO",NA,6,1,NA
"298",25,"immediate","F4_BR","fact","FCO",NA,6,1,NA
"299",25,"immediate","F5_BR","fact","FCO",NA,7,1,NA
"300",25,"immediate","F6_BR","fact","FCO",NA,10,1,NA
"301",26,"immediate","M1_BR","myth","FCO",NA,3,1,NA
"302",26,"immediate","M2_BR","myth","FCO",NA,3,1,NA
"303",26,"immediate","M3_BR","myth","FCO",NA,2,1,NA
"304",26,"immediate","M4_BR","myth","FCO",NA,2,1,NA
"305",26,"immediate","M5_BR","myth","FCO",NA,2,1,NA
"306",26,"immediate","M6_BR","myth","FCO",NA,1,1,NA
"307",26,"immediate","F1_BR","fact","FCO",NA,0,1,NA
"308",26,"immediate","F2_BR","fact","FCO",NA,7,1,NA
"309",26,"immediate","F3_BR","fact","FCO",NA,8,1,NA
"310",26,"immediate","F4_BR","fact","FCO",NA,5,1,NA
"311",26,"immediate","F5_BR","fact","FCO",NA,6,1,NA
"312",26,"immediate","F6_BR","fact","FCO",NA,7,1,NA
"313",27,"immediate","M1_BR","myth","CFC",NA,2,1,NA
"314",27,"immediate","M2_BR","myth","CFC",NA,5,1,NA
"315",27,"immediate","M3_BR","myth","CFC",NA,2,1,NA
"316",27,"immediate","M4_BR","myth","CFC",NA,0,1,NA
"317",27,"immediate","M5_BR","myth","CFC",NA,1,1,NA
"318",27,"immediate","M6_BR","myth","CFC",NA,4,1,NA
"319",27,"immediate","F1_BR","fact","CFC",NA,6,1,NA
"320",27,"immediate","F2_BR","fact","CFC",NA,4,1,NA
"321",27,"immediate","F3_BR","fact","CFC",NA,5,1,NA
"322",27,"immediate","F4_BR","fact","CFC",NA,4,1,NA
"323",27,"immediate","F5_BR","fact","CFC",NA,5,1,NA
"324",27,"immediate","F6_BR","fact","CFC",NA,3,1,NA
"325",28,"immediate","M1_BR","myth","FCO",NA,8,1,NA
"326",28,"immediate","M2_BR","myth","FCO",NA,0,1,NA
"327",28,"immediate","M3_BR","myth","FCO",NA,3,1,NA
"328",28,"immediate","M4_BR","myth","FCO",NA,0,1,NA
"329",28,"immediate","M5_BR","myth","FCO",NA,5,1,NA
"330",28,"immediate","M6_BR","myth","FCO",NA,2,1,NA
"331",28,"immediate","F1_BR","fact","FCO",NA,0,1,NA
"332",28,"immediate","F2_BR","fact","FCO",NA,3,1,NA
"333",28,"immediate","F3_BR","fact","FCO",NA,8,1,NA
"334",28,"immediate","F4_BR","fact","FCO",NA,5,1,NA
"335",28,"immediate","F5_BR","fact","FCO",NA,6,1,NA
"336",28,"immediate","F6_BR","fact","FCO",NA,2,1,NA
"337",29,"immediate","M1_BR","myth","CFC",NA,0,1,NA
"338",29,"immediate","M2_BR","myth","CFC",NA,3,1,NA
"339",29,"immediate","M3_BR","myth","CFC",NA,6,1,NA
"340",29,"immediate","M4_BR","myth","CFC",NA,0,1,NA
"341",29,"immediate","M5_BR","myth","CFC",NA,6,1,NA
"342",29,"immediate","M6_BR","myth","CFC",NA,7,1,NA
"343",29,"immediate","F1_BR","fact","CFC",NA,0,1,NA
"344",29,"immediate","F2_BR","fact","CFC",NA,6,1,NA
"345",29,"immediate","F3_BR","fact","CFC",NA,10,1,NA
"346",29,"immediate","F4_BR","fact","CFC",NA,7,1,NA
"347",29,"immediate","F5_BR","fact","CFC",NA,8,1,NA
"348",29,"immediate","F6_BR","fact","CFC",NA,6,1,NA
"349",30,"delayed","M1_BR","myth","FCO",NA,0,1,NA
"350",30,"delayed","M2_BR","myth","FCO",NA,7,1,NA
"351",30,"delayed","M3_BR","myth","FCO",NA,7,1,NA
"352",30,"delayed","M4_BR","myth","FCO",NA,7,1,NA
"353",30,"delayed","M5_BR","myth","FCO",NA,5,1,NA
"354",30,"delayed","M6_BR","myth","FCO",NA,0,1,NA
"355",30,"delayed","F1_BR","fact","FCO",NA,10,1,NA
"356",30,"delayed","F2_BR","fact","FCO",NA,7,1,NA
"357",30,"delayed","F3_BR","fact","FCO",NA,8,1,NA
"358",30,"delayed","F4_BR","fact","FCO",NA,5,1,NA
"359",30,"delayed","F5_BR","fact","FCO",NA,10,1,NA
"360",30,"delayed","F6_BR","fact","FCO",NA,8,1,NA
"361",31,"immediate","M1_BR","myth","NE",NA,6,0,NA
"362",31,"immediate","M2_BR","myth","NE",NA,8,0,NA
"363",31,"immediate","M3_BR","myth","NE",NA,3,0,NA
"364",31,"immediate","M4_BR","myth","NE",NA,2,0,NA
"365",31,"immediate","M5_BR","myth","NE",NA,7,0,NA
"366",31,"immediate","M6_BR","myth","NE",NA,7,0,NA
"367",31,"immediate","F1_BR","fact","NE",NA,1,0,NA
"368",31,"immediate","F2_BR","fact","NE",NA,8,0,NA
"369",31,"immediate","F3_BR","fact","NE",NA,3,0,NA
"370",31,"immediate","F4_BR","fact","NE",NA,2,0,NA
"371",31,"immediate","F5_BR","fact","NE",NA,7,0,NA
"372",31,"immediate","F6_BR","fact","NE",NA,1,0,NA
"373",32,"immediate","M1_BR","myth","FCO",NA,0,1,NA
"374",32,"immediate","M2_BR","myth","FCO",NA,0,1,NA
"375",32,"immediate","M3_BR","myth","FCO",NA,0,1,NA
"376",32,"immediate","M4_BR","myth","FCO",NA,0,1,NA
"377",32,"immediate","M5_BR","myth","FCO",NA,0,1,NA
"378",32,"immediate","M6_BR","myth","FCO",NA,0,1,NA
"379",32,"immediate","F1_BR","fact","FCO",NA,10,1,NA
"380",32,"immediate","F2_BR","fact","FCO",NA,9,1,NA
"381",32,"immediate","F3_BR","fact","FCO",NA,5,1,NA
"382",32,"immediate","F4_BR","fact","FCO",NA,5,1,NA
"383",32,"immediate","F5_BR","fact","FCO",NA,7,1,NA
"384",32,"immediate","F6_BR","fact","FCO",NA,6,1,NA
"385",33,"delayed","M1_BR","myth","CO",NA,0,1,NA
"386",33,"delayed","M2_BR","myth","CO",NA,0,1,NA
"387",33,"delayed","M3_BR","myth","CO",NA,5,1,NA
"388",33,"delayed","M4_BR","myth","CO",NA,0,1,NA
"389",33,"delayed","M5_BR","myth","CO",NA,0,1,NA
"390",33,"delayed","M6_BR","myth","CO",NA,0,1,NA
"391",33,"delayed","F1_BR","fact","CO",NA,0,1,NA
"392",33,"delayed","F2_BR","fact","CO",NA,5,1,NA
"393",33,"delayed","F3_BR","fact","CO",NA,0,1,NA
"394",33,"delayed","F4_BR","fact","CO",NA,0,1,NA
"395",33,"delayed","F5_BR","fact","CO",NA,0,1,NA
"396",33,"delayed","F6_BR","fact","CO",NA,0,1,NA
"397",34,"immediate","M1_BR","myth","CFC",NA,0,1,NA
"398",34,"immediate","M2_BR","myth","CFC",NA,0,1,NA
"399",34,"immediate","M3_BR","myth","CFC",NA,2,1,NA
"400",34,"immediate","M4_BR","myth","CFC",NA,0,1,NA
"401",34,"immediate","M5_BR","myth","CFC",NA,3,1,NA
"402",34,"immediate","M6_BR","myth","CFC",NA,2,1,NA
"403",34,"immediate","F1_BR","fact","CFC",NA,6,1,NA
"404",34,"immediate","F2_BR","fact","CFC",NA,6,1,NA
"405",34,"immediate","F3_BR","fact","CFC",NA,7,1,NA
"406",34,"immediate","F4_BR","fact","CFC",NA,9,1,NA
"407",34,"immediate","F5_BR","fact","CFC",NA,6,1,NA
"408",34,"immediate","F6_BR","fact","CFC",NA,7,1,NA
"409",35,"delayed","M1_BR","myth","CFC",NA,7,1,NA
"410",35,"delayed","M2_BR","myth","CFC",NA,1,1,NA
"411",35,"delayed","M3_BR","myth","CFC",NA,5,1,NA
"412",35,"delayed","M4_BR","myth","CFC",NA,0,1,NA
"413",35,"delayed","M5_BR","myth","CFC",NA,0,1,NA
"414",35,"delayed","M6_BR","myth","CFC",NA,2,1,NA
"415",35,"delayed","F1_BR","fact","CFC",NA,0,1,NA
"416",35,"delayed","F2_BR","fact","CFC",NA,0,1,NA
"417",35,"delayed","F3_BR","fact","CFC",NA,0,1,NA
"418",35,"delayed","F4_BR","fact","CFC",NA,0,1,NA
"419",35,"delayed","F5_BR","fact","CFC",NA,5,1,NA
"420",35,"delayed","F6_BR","fact","CFC",NA,0,1,NA
"421",36,"delayed","M1_BR","myth","CO",NA,0,1,NA
"422",36,"delayed","M2_BR","myth","CO",NA,3,1,NA
"423",36,"delayed","M3_BR","myth","CO",NA,5,1,NA
"424",36,"delayed","M4_BR","myth","CO",NA,2,1,NA
"425",36,"delayed","M5_BR","myth","CO",NA,3,1,NA
"426",36,"delayed","M6_BR","myth","CO",NA,7,1,NA
"427",36,"delayed","F1_BR","fact","CO",NA,7,1,NA
"428",36,"delayed","F2_BR","fact","CO",NA,0,1,NA
"429",36,"delayed","F3_BR","fact","CO",NA,0,1,NA
"430",36,"delayed","F4_BR","fact","CO",NA,0,1,NA
"431",36,"delayed","F5_BR","fact","CO",NA,0,1,NA
"432",36,"delayed","F6_BR","fact","CO",NA,0,1,NA
"433",37,"delayed","M1_BR","myth","FCO",NA,2,1,NA
"434",37,"delayed","M2_BR","myth","FCO",NA,9,1,NA
"435",37,"delayed","M3_BR","myth","FCO",NA,4,1,NA
"436",37,"delayed","M4_BR","myth","FCO",NA,4,1,NA
"437",37,"delayed","M5_BR","myth","FCO",NA,0,1,NA
"438",37,"delayed","M6_BR","myth","FCO",NA,3,1,NA
"439",37,"delayed","F1_BR","fact","FCO",NA,8,1,NA
"440",37,"delayed","F2_BR","fact","FCO",NA,10,1,NA
"441",37,"delayed","F3_BR","fact","FCO",NA,7,1,NA
"442",37,"delayed","F4_BR","fact","FCO",NA,1,1,NA
"443",37,"delayed","F5_BR","fact","FCO",NA,1,1,NA
"444",37,"delayed","F6_BR","fact","FCO",NA,3,1,NA
"445",38,"delayed","M1_BR","myth","FCO",NA,3,1,NA
"446",38,"delayed","M2_BR","myth","FCO",NA,2,1,NA
"447",38,"delayed","M3_BR","myth","FCO",NA,4,1,NA
"448",38,"delayed","M4_BR","myth","FCO",NA,6,1,NA
"449",38,"delayed","M5_BR","myth","FCO",NA,6,1,NA
"450",38,"delayed","M6_BR","myth","FCO",NA,4,1,NA
"451",38,"delayed","F1_BR","fact","FCO",NA,10,1,NA
"452",38,"delayed","F2_BR","fact","FCO",NA,3,1,NA
"453",38,"delayed","F3_BR","fact","FCO",NA,5,1,NA
"454",38,"delayed","F4_BR","fact","FCO",NA,10,1,NA
"455",38,"delayed","F5_BR","fact","FCO",NA,5,1,NA
"456",38,"delayed","F6_BR","fact","FCO",NA,5,1,NA
"457",39,"immediate","M1_BR","myth","CO",NA,3,1,NA
"458",39,"immediate","M2_BR","myth","CO",NA,2,1,NA
"459",39,"immediate","M3_BR","myth","CO",NA,4,1,NA
"460",39,"immediate","M4_BR","myth","CO",NA,5,1,NA
"461",39,"immediate","M5_BR","myth","CO",NA,6,1,NA
"462",39,"immediate","M6_BR","myth","CO",NA,5,1,NA
"463",39,"immediate","F1_BR","fact","CO",NA,2,1,NA
"464",39,"immediate","F2_BR","fact","CO",NA,5,1,NA
"465",39,"immediate","F3_BR","fact","CO",NA,4,1,NA
"466",39,"immediate","F4_BR","fact","CO",NA,5,1,NA
"467",39,"immediate","F5_BR","fact","CO",NA,5,1,NA
"468",39,"immediate","F6_BR","fact","CO",NA,6,1,NA
"469",40,"delayed","M1_BR","myth","FCO",NA,4,1,NA
"470",40,"delayed","M2_BR","myth","FCO",NA,7,1,NA
"471",40,"delayed","M3_BR","myth","FCO",NA,7,1,NA
"472",40,"delayed","M4_BR","myth","FCO",NA,1,1,NA
"473",40,"delayed","M5_BR","myth","FCO",NA,5,1,NA
"474",40,"delayed","M6_BR","myth","FCO",NA,10,1,NA
"475",40,"delayed","F1_BR","fact","FCO",NA,8,1,NA
"476",40,"delayed","F2_BR","fact","FCO",NA,10,1,NA
"477",40,"delayed","F3_BR","fact","FCO",NA,9,1,NA
"478",40,"delayed","F4_BR","fact","FCO",NA,10,1,NA
"479",40,"delayed","F5_BR","fact","FCO",NA,5,1,NA
"480",40,"delayed","F6_BR","fact","FCO",NA,6,1,NA
"481",41,"delayed","M1_BR","myth","FCO",NA,9,1,NA
"482",41,"delayed","M2_BR","myth","FCO",NA,5,1,NA
"483",41,"delayed","M3_BR","myth","FCO",NA,6,1,NA
"484",41,"delayed","M4_BR","myth","FCO",NA,5,1,NA
"485",41,"delayed","M5_BR","myth","FCO",NA,5,1,NA
"486",41,"delayed","M6_BR","myth","FCO",NA,9,1,NA
"487",41,"delayed","F1_BR","fact","FCO",NA,5,1,NA
"488",41,"delayed","F2_BR","fact","FCO",NA,7,1,NA
"489",41,"delayed","F3_BR","fact","FCO",NA,8,1,NA
"490",41,"delayed","F4_BR","fact","FCO",NA,2,1,NA
"491",41,"delayed","F5_BR","fact","FCO",NA,8,1,NA
"492",41,"delayed","F6_BR","fact","FCO",NA,3,1,NA
"493",42,"delayed","M1_BR","myth","CO",NA,7,1,NA
"494",42,"delayed","M2_BR","myth","CO",NA,6,1,NA
"495",42,"delayed","M3_BR","myth","CO",NA,5,1,NA
"496",42,"delayed","M4_BR","myth","CO",NA,7,1,NA
"497",42,"delayed","M5_BR","myth","CO",NA,9,1,NA
"498",42,"delayed","M6_BR","myth","CO",NA,8,1,NA
"499",42,"delayed","F1_BR","fact","CO",NA,9,1,NA
"500",42,"delayed","F2_BR","fact","CO",NA,7,1,NA
"501",42,"delayed","F3_BR","fact","CO",NA,6,1,NA
"502",42,"delayed","F4_BR","fact","CO",NA,8,1,NA
"503",42,"delayed","F5_BR","fact","CO",NA,7,1,NA
"504",42,"delayed","F6_BR","fact","CO",NA,5,1,NA
"505",43,"immediate","M1_BR","myth","FCO",NA,1,1,NA
"506",43,"immediate","M2_BR","myth","FCO",NA,4,1,NA
"507",43,"immediate","M3_BR","myth","FCO",NA,3,1,NA
"508",43,"immediate","M4_BR","myth","FCO",NA,0,1,NA
"509",43,"immediate","M5_BR","myth","FCO",NA,5,1,NA
"510",43,"immediate","M6_BR","myth","FCO",NA,4,1,NA
"511",43,"immediate","F1_BR","fact","FCO",NA,0,1,NA
"512",43,"immediate","F2_BR","fact","FCO",NA,1,1,NA
"513",43,"immediate","F3_BR","fact","FCO",NA,0,1,NA
"514",43,"immediate","F4_BR","fact","FCO",NA,0,1,NA
"515",43,"immediate","F5_BR","fact","FCO",NA,5,1,NA
"516",43,"immediate","F6_BR","fact","FCO",NA,4,1,NA
"517",44,"delayed","M1_BR","myth","FCO",NA,2,1,NA
"518",44,"delayed","M2_BR","myth","FCO",NA,5,1,NA
"519",44,"delayed","M3_BR","myth","FCO",NA,4,1,NA
"520",44,"delayed","M4_BR","myth","FCO",NA,3,1,NA
"521",44,"delayed","M5_BR","myth","FCO",NA,1,1,NA
"522",44,"delayed","M6_BR","myth","FCO",NA,3,1,NA
"523",44,"delayed","F1_BR","fact","FCO",NA,3,1,NA
"524",44,"delayed","F2_BR","fact","FCO",NA,4,1,NA
"525",44,"delayed","F3_BR","fact","FCO",NA,3,1,NA
"526",44,"delayed","F4_BR","fact","FCO",NA,4,1,NA
"527",44,"delayed","F5_BR","fact","FCO",NA,1,1,NA
"528",44,"delayed","F6_BR","fact","FCO",NA,3,1,NA
"529",45,"immediate","M1_BR","myth","CO",NA,6,1,NA
"530",45,"immediate","M2_BR","myth","CO",NA,3,1,NA
"531",45,"immediate","M3_BR","myth","CO",NA,4,1,NA
"532",45,"immediate","M4_BR","myth","CO",NA,4,1,NA
"533",45,"immediate","M5_BR","myth","CO",NA,0,1,NA
"534",45,"immediate","M6_BR","myth","CO",NA,2,1,NA
"535",45,"immediate","F1_BR","fact","CO",NA,1,1,NA
"536",45,"immediate","F2_BR","fact","CO",NA,5,1,NA
"537",45,"immediate","F3_BR","fact","CO",NA,7,1,NA
"538",45,"immediate","F4_BR","fact","CO",NA,5,1,NA
"539",45,"immediate","F5_BR","fact","CO",NA,4,1,NA
"540",45,"immediate","F6_BR","fact","CO",NA,2,1,NA
"541",46,"immediate","M1_BR","myth","CFC",NA,10,1,NA
"542",46,"immediate","M2_BR","myth","CFC",NA,10,1,NA
"543",46,"immediate","M3_BR","myth","CFC",NA,0,1,NA
"544",46,"immediate","M4_BR","myth","CFC",NA,0,1,NA
"545",46,"immediate","M5_BR","myth","CFC",NA,0,1,NA
"546",46,"immediate","M6_BR","myth","CFC",NA,0,1,NA
"547",46,"immediate","F1_BR","fact","CFC",NA,0,1,NA
"548",46,"immediate","F2_BR","fact","CFC",NA,0,1,NA
"549",46,"immediate","F3_BR","fact","CFC",NA,10,1,NA
"550",46,"immediate","F4_BR","fact","CFC",NA,10,1,NA
"551",46,"immediate","F5_BR","fact","CFC",NA,10,1,NA
"552",46,"immediate","F6_BR","fact","CFC",NA,0,1,NA
"553",47,"immediate","M1_BR","myth","FCO",NA,1,1,NA
"554",47,"immediate","M2_BR","myth","FCO",NA,6,1,NA
"555",47,"immediate","M3_BR","myth","FCO",NA,6,1,NA
"556",47,"immediate","M4_BR","myth","FCO",NA,4,1,NA
"557",47,"immediate","M5_BR","myth","FCO",NA,7,1,NA
"558",47,"immediate","M6_BR","myth","FCO",NA,4,1,NA
"559",47,"immediate","F1_BR","fact","FCO",NA,2,1,NA
"560",47,"immediate","F2_BR","fact","FCO",NA,2,1,NA
"561",47,"immediate","F3_BR","fact","FCO",NA,7,1,NA
"562",47,"immediate","F4_BR","fact","FCO",NA,0,1,NA
"563",47,"immediate","F5_BR","fact","FCO",NA,5,1,NA
"564",47,"immediate","F6_BR","fact","FCO",NA,6,1,NA
"565",48,"immediate","M1_BR","myth","NE",NA,0,0,NA
"566",48,"immediate","M2_BR","myth","NE",NA,0,0,NA
"567",48,"immediate","M3_BR","myth","NE",NA,2,0,NA
"568",48,"immediate","M4_BR","myth","NE",NA,0,0,NA
"569",48,"immediate","M5_BR","myth","NE",NA,0,0,NA
"570",48,"immediate","M6_BR","myth","NE",NA,0,0,NA
"571",48,"immediate","F1_BR","fact","NE",NA,0,0,NA
"572",48,"immediate","F2_BR","fact","NE",NA,0,0,NA
"573",48,"immediate","F3_BR","fact","NE",NA,10,0,NA
"574",48,"immediate","F4_BR","fact","NE",NA,9,0,NA
"575",48,"immediate","F5_BR","fact","NE",NA,0,0,NA
"576",48,"immediate","F6_BR","fact","NE",NA,0,0,NA
"577",49,"delayed","M1_BR","myth","FCO",NA,0,1,NA
"578",49,"delayed","M2_BR","myth","FCO",NA,2,1,NA
"579",49,"delayed","M3_BR","myth","FCO",NA,4,1,NA
"580",49,"delayed","M4_BR","myth","FCO",NA,0,1,NA
"581",49,"delayed","M5_BR","myth","FCO",NA,5,1,NA
"582",49,"delayed","M6_BR","myth","FCO",NA,1,1,NA
"583",49,"delayed","F1_BR","fact","FCO",NA,5,1,NA
"584",49,"delayed","F2_BR","fact","FCO",NA,6,1,NA
"585",49,"delayed","F3_BR","fact","FCO",NA,5,1,NA
"586",49,"delayed","F4_BR","fact","FCO",NA,10,1,NA
"587",49,"delayed","F5_BR","fact","FCO",NA,2,1,NA
"588",49,"delayed","F6_BR","fact","FCO",NA,8,1,NA
"589",50,"delayed","M1_BR","myth","FCO",NA,0,1,NA
"590",50,"delayed","M2_BR","myth","FCO",NA,0,1,NA
"591",50,"delayed","M3_BR","myth","FCO",NA,7,1,NA
"592",50,"delayed","M4_BR","myth","FCO",NA,3,1,NA
"593",50,"delayed","M5_BR","myth","FCO",NA,0,1,NA
"594",50,"delayed","M6_BR","myth","FCO",NA,3,1,NA
"595",50,"delayed","F1_BR","fact","FCO",NA,9,1,NA
"596",50,"delayed","F2_BR","fact","FCO",NA,10,1,NA
"597",50,"delayed","F3_BR","fact","FCO",NA,5,1,NA
"598",50,"delayed","F4_BR","fact","FCO",NA,10,1,NA
"599",50,"delayed","F5_BR","fact","FCO",NA,9,1,NA
"600",50,"delayed","F6_BR","fact","FCO",NA,7,1,NA
"601",51,"delayed","M1_BR","myth","CO",NA,0,1,NA
"602",51,"delayed","M2_BR","myth","CO",NA,1,1,NA
"603",51,"delayed","M3_BR","myth","CO",NA,2,1,NA
"604",51,"delayed","M4_BR","myth","CO",NA,3,1,NA
"605",51,"delayed","M5_BR","myth","CO",NA,1,1,NA
"606",51,"delayed","M6_BR","myth","CO",NA,7,1,NA
"607",51,"delayed","F1_BR","fact","CO",NA,7,1,NA
"608",51,"delayed","F2_BR","fact","CO",NA,5,1,NA
"609",51,"delayed","F3_BR","fact","CO",NA,7,1,NA
"610",51,"delayed","F4_BR","fact","CO",NA,9,1,NA
"611",51,"delayed","F5_BR","fact","CO",NA,8,1,NA
"612",51,"delayed","F6_BR","fact","CO",NA,8,1,NA
"613",52,"immediate","M1_BR","myth","FCO",NA,10,1,NA
"614",52,"immediate","M2_BR","myth","FCO",NA,0,1,NA
"615",52,"immediate","M3_BR","myth","FCO",NA,0,1,NA
"616",52,"immediate","M4_BR","myth","FCO",NA,5,1,NA
"617",52,"immediate","M5_BR","myth","FCO",NA,0,1,NA
"618",52,"immediate","M6_BR","myth","FCO",NA,0,1,NA
"619",52,"immediate","F1_BR","fact","FCO",NA,10,1,NA
"620",52,"immediate","F2_BR","fact","FCO",NA,10,1,NA
"621",52,"immediate","F3_BR","fact","FCO",NA,10,1,NA
"622",52,"immediate","F4_BR","fact","FCO",NA,10,1,NA
"623",52,"immediate","F5_BR","fact","FCO",NA,10,1,NA
"624",52,"immediate","F6_BR","fact","FCO",NA,10,1,NA
"625",53,"immediate","M1_BR","myth","NE",NA,0,0,NA
"626",53,"immediate","M2_BR","myth","NE",NA,7,0,NA
"627",53,"immediate","M3_BR","myth","NE",NA,0,0,NA
"628",53,"immediate","M4_BR","myth","NE",NA,2,0,NA
"629",53,"immediate","M5_BR","myth","NE",NA,3,0,NA
"630",53,"immediate","M6_BR","myth","NE",NA,4,0,NA
"631",53,"immediate","F1_BR","fact","NE",NA,3,0,NA
"632",53,"immediate","F2_BR","fact","NE",NA,4,0,NA
"633",53,"immediate","F3_BR","fact","NE",NA,7,0,NA
"634",53,"immediate","F4_BR","fact","NE",NA,10,0,NA
"635",53,"immediate","F5_BR","fact","NE",NA,2,0,NA
"636",53,"immediate","F6_BR","fact","NE",NA,3,0,NA
"637",54,"immediate","M1_BR","myth","NE",NA,2,0,NA
"638",54,"immediate","M2_BR","myth","NE",NA,8,0,NA
"639",54,"immediate","M3_BR","myth","NE",NA,2,0,NA
"640",54,"immediate","M4_BR","myth","NE",NA,2,0,NA
"641",54,"immediate","M5_BR","myth","NE",NA,2,0,NA
"642",54,"immediate","M6_BR","myth","NE",NA,1,0,NA
"643",54,"immediate","F1_BR","fact","NE",NA,2,0,NA
"644",54,"immediate","F2_BR","fact","NE",NA,1,0,NA
"645",54,"immediate","F3_BR","fact","NE",NA,7,0,NA
"646",54,"immediate","F4_BR","fact","NE",NA,2,0,NA
"647",54,"immediate","F5_BR","fact","NE",NA,3,0,NA
"648",54,"immediate","F6_BR","fact","NE",NA,1,0,NA
"649",55,"delayed","M1_BR","myth","CFC",NA,2,1,NA
"650",55,"delayed","M2_BR","myth","CFC",NA,5,1,NA
"651",55,"delayed","M3_BR","myth","CFC",NA,3,1,NA
"652",55,"delayed","M4_BR","myth","CFC",NA,0,1,NA
"653",55,"delayed","M5_BR","myth","CFC",NA,7,1,NA
"654",55,"delayed","M6_BR","myth","CFC",NA,1,1,NA
"655",55,"delayed","F1_BR","fact","CFC",NA,3,1,NA
"656",55,"delayed","F2_BR","fact","CFC",NA,2,1,NA
"657",55,"delayed","F3_BR","fact","CFC",NA,2,1,NA
"658",55,"delayed","F4_BR","fact","CFC",NA,10,1,NA
"659",55,"delayed","F5_BR","fact","CFC",NA,6,1,NA
"660",55,"delayed","F6_BR","fact","CFC",NA,1,1,NA
"661",56,"immediate","M1_BR","myth","CO",NA,0,1,NA
"662",56,"immediate","M2_BR","myth","CO",NA,8,1,NA
"663",56,"immediate","M3_BR","myth","CO",NA,7,1,NA
"664",56,"immediate","M4_BR","myth","CO",NA,0,1,NA
"665",56,"immediate","M5_BR","myth","CO",NA,8,1,NA
"666",56,"immediate","M6_BR","myth","CO",NA,0,1,NA
"667",56,"immediate","F1_BR","fact","CO",NA,0,1,NA
"668",56,"immediate","F2_BR","fact","CO",NA,4,1,NA
"669",56,"immediate","F3_BR","fact","CO",NA,0,1,NA
"670",56,"immediate","F4_BR","fact","CO",NA,2,1,NA
"671",56,"immediate","F5_BR","fact","CO",NA,4,1,NA
"672",56,"immediate","F6_BR","fact","CO",NA,0,1,NA
"673",57,"immediate","M1_BR","myth","CFC",NA,6,1,NA
"674",57,"immediate","M2_BR","myth","CFC",NA,0,1,NA
"675",57,"immediate","M3_BR","myth","CFC",NA,6,1,NA
"676",57,"immediate","M4_BR","myth","CFC",NA,2,1,NA
"677",57,"immediate","M5_BR","myth","CFC",NA,8,1,NA
"678",57,"immediate","M6_BR","myth","CFC",NA,2,1,NA
"679",57,"immediate","F1_BR","fact","CFC",NA,8,1,NA
"680",57,"immediate","F2_BR","fact","CFC",NA,10,1,NA
"681",57,"immediate","F3_BR","fact","CFC",NA,7,1,NA
"682",57,"immediate","F4_BR","fact","CFC",NA,10,1,NA
"683",57,"immediate","F5_BR","fact","CFC",NA,5,1,NA
"684",57,"immediate","F6_BR","fact","CFC",NA,6,1,NA
"685",58,"immediate","M1_BR","myth","CO",NA,3,1,NA
"686",58,"immediate","M2_BR","myth","CO",NA,4,1,NA
"687",58,"immediate","M3_BR","myth","CO",NA,4,1,NA
"688",58,"immediate","M4_BR","myth","CO",NA,3,1,NA
"689",58,"immediate","M5_BR","myth","CO",NA,6,1,NA
"690",58,"immediate","M6_BR","myth","CO",NA,5,1,NA
"691",58,"immediate","F1_BR","fact","CO",NA,3,1,NA
"692",58,"immediate","F2_BR","fact","CO",NA,4,1,NA
"693",58,"immediate","F3_BR","fact","CO",NA,5,1,NA
"694",58,"immediate","F4_BR","fact","CO",NA,4,1,NA
"695",58,"immediate","F5_BR","fact","CO",NA,3,1,NA
"696",58,"immediate","F6_BR","fact","CO",NA,5,1,NA
"697",59,"immediate","M1_BR","myth","CO",NA,0,1,NA
"698",59,"immediate","M2_BR","myth","CO",NA,5,1,NA
"699",59,"immediate","M3_BR","myth","CO",NA,5,1,NA
"700",59,"immediate","M4_BR","myth","CO",NA,1,1,NA
"701",59,"immediate","M5_BR","myth","CO",NA,10,1,NA
"702",59,"immediate","M6_BR","myth","CO",NA,5,1,NA
"703",59,"immediate","F1_BR","fact","CO",NA,0,1,NA
"704",59,"immediate","F2_BR","fact","CO",NA,0,1,NA
"705",59,"immediate","F3_BR","fact","CO",NA,4,1,NA
"706",59,"immediate","F4_BR","fact","CO",NA,3,1,NA
"707",59,"immediate","F5_BR","fact","CO",NA,8,1,NA
"708",59,"immediate","F6_BR","fact","CO",NA,3,1,NA
"709",60,"delayed","M1_BR","myth","CO",NA,5,1,NA
"710",60,"delayed","M2_BR","myth","CO",NA,5,1,NA
"711",60,"delayed","M3_BR","myth","CO",NA,5,1,NA
"712",60,"delayed","M4_BR","myth","CO",NA,5,1,NA
"713",60,"delayed","M5_BR","myth","CO",NA,4,1,NA
"714",60,"delayed","M6_BR","myth","CO",NA,6,1,NA
"715",60,"delayed","F1_BR","fact","CO",NA,5,1,NA
"716",60,"delayed","F2_BR","fact","CO",NA,0,1,NA
"717",60,"delayed","F3_BR","fact","CO",NA,5,1,NA
"718",60,"delayed","F4_BR","fact","CO",NA,0,1,NA
"719",60,"delayed","F5_BR","fact","CO",NA,4,1,NA
"720",60,"delayed","F6_BR","fact","CO",NA,2,1,NA
"721",61,"immediate","M1_BR","myth","CO",NA,2,1,NA
"722",61,"immediate","M2_BR","myth","CO",NA,9,1,NA
"723",61,"immediate","M3_BR","myth","CO",NA,5,1,NA
"724",61,"immediate","M4_BR","myth","CO",NA,0,1,NA
"725",61,"immediate","M5_BR","myth","CO",NA,8,1,NA
"726",61,"immediate","M6_BR","myth","CO",NA,10,1,NA
"727",61,"immediate","F1_BR","fact","CO",NA,7,1,NA
"728",61,"immediate","F2_BR","fact","CO",NA,1,1,NA
"729",61,"immediate","F3_BR","fact","CO",NA,7,1,NA
"730",61,"immediate","F4_BR","fact","CO",NA,0,1,NA
"731",61,"immediate","F5_BR","fact","CO",NA,2,1,NA
"732",61,"immediate","F6_BR","fact","CO",NA,3,1,NA
"733",62,"delayed","M1_BR","myth","FCO",NA,7,1,NA
"734",62,"delayed","M2_BR","myth","FCO",NA,4,1,NA
"735",62,"delayed","M3_BR","myth","FCO",NA,6,1,NA
"736",62,"delayed","M4_BR","myth","FCO",NA,6,1,NA
"737",62,"delayed","M5_BR","myth","FCO",NA,9,1,NA
"738",62,"delayed","M6_BR","myth","FCO",NA,10,1,NA
"739",62,"delayed","F1_BR","fact","FCO",NA,6,1,NA
"740",62,"delayed","F2_BR","fact","FCO",NA,5,1,NA
"741",62,"delayed","F3_BR","fact","FCO",NA,6,1,NA
"742",62,"delayed","F4_BR","fact","FCO",NA,5,1,NA
"743",62,"delayed","F5_BR","fact","FCO",NA,8,1,NA
"744",62,"delayed","F6_BR","fact","FCO",NA,3,1,NA
"745",63,"immediate","M1_BR","myth","FCO",NA,0,1,NA
"746",63,"immediate","M2_BR","myth","FCO",NA,6,1,NA
"747",63,"immediate","M3_BR","myth","FCO",NA,0,1,NA
"748",63,"immediate","M4_BR","myth","FCO",NA,0,1,NA
"749",63,"immediate","M5_BR","myth","FCO",NA,0,1,NA
"750",63,"immediate","M6_BR","myth","FCO",NA,1,1,NA
"751",63,"immediate","F1_BR","fact","FCO",NA,0,1,NA
"752",63,"immediate","F2_BR","fact","FCO",NA,7,1,NA
"753",63,"immediate","F3_BR","fact","FCO",NA,6,1,NA
"754",63,"immediate","F4_BR","fact","FCO",NA,1,1,NA
"755",63,"immediate","F5_BR","fact","FCO",NA,8,1,NA
"756",63,"immediate","F6_BR","fact","FCO",NA,5,1,NA
"757",64,"immediate","M1_BR","myth","CFC",NA,1,1,NA
"758",64,"immediate","M2_BR","myth","CFC",NA,0,1,NA
"759",64,"immediate","M3_BR","myth","CFC",NA,3,1,NA
"760",64,"immediate","M4_BR","myth","CFC",NA,2,1,NA
"761",64,"immediate","M5_BR","myth","CFC",NA,8,1,NA
"762",64,"immediate","M6_BR","myth","CFC",NA,6,1,NA
"763",64,"immediate","F1_BR","fact","CFC",NA,3,1,NA
"764",64,"immediate","F2_BR","fact","CFC",NA,7,1,NA
"765",64,"immediate","F3_BR","fact","CFC",NA,3,1,NA
"766",64,"immediate","F4_BR","fact","CFC",NA,0,1,NA
"767",64,"immediate","F5_BR","fact","CFC",NA,5,1,NA
"768",64,"immediate","F6_BR","fact","CFC",NA,7,1,NA
"769",65,"immediate","M1_BR","myth","CO",NA,0,1,NA
"770",65,"immediate","M2_BR","myth","CO",NA,8,1,NA
"771",65,"immediate","M3_BR","myth","CO",NA,3,1,NA
"772",65,"immediate","M4_BR","myth","CO",NA,2,1,NA
"773",65,"immediate","M5_BR","myth","CO",NA,6,1,NA
"774",65,"immediate","M6_BR","myth","CO",NA,6,1,NA
"775",65,"immediate","F1_BR","fact","CO",NA,1,1,NA
"776",65,"immediate","F2_BR","fact","CO",NA,0,1,NA
"777",65,"immediate","F3_BR","fact","CO",NA,8,1,NA
"778",65,"immediate","F4_BR","fact","CO",NA,10,1,NA
"779",65,"immediate","F5_BR","fact","CO",NA,2,1,NA
"780",65,"immediate","F6_BR","fact","CO",NA,6,1,NA
"781",66,"delayed","M1_BR","myth","FCO",NA,0,1,NA
"782",66,"delayed","M2_BR","myth","FCO",NA,7,1,NA
"783",66,"delayed","M3_BR","myth","FCO",NA,3,1,NA
"784",66,"delayed","M4_BR","myth","FCO",NA,6,1,NA
"785",66,"delayed","M5_BR","myth","FCO",NA,4,1,NA
"786",66,"delayed","M6_BR","myth","FCO",NA,6,1,NA
"787",66,"delayed","F1_BR","fact","FCO",NA,8,1,NA
"788",66,"delayed","F2_BR","fact","FCO",NA,3,1,NA
"789",66,"delayed","F3_BR","fact","FCO",NA,5,1,NA
"790",66,"delayed","F4_BR","fact","FCO",NA,10,1,NA
"791",66,"delayed","F5_BR","fact","FCO",NA,4,1,NA
"792",66,"delayed","F6_BR","fact","FCO",NA,5,1,NA
"793",67,"immediate","M1_BR","myth","NE",NA,5,0,NA
"794",67,"immediate","M2_BR","myth","NE",NA,8,0,NA
"795",67,"immediate","M3_BR","myth","NE",NA,2,0,NA
"796",67,"immediate","M4_BR","myth","NE",NA,0,0,NA
"797",67,"immediate","M5_BR","myth","NE",NA,10,0,NA
"798",67,"immediate","M6_BR","myth","NE",NA,8,0,NA
"799",67,"immediate","F1_BR","fact","NE",NA,5,0,NA
"800",67,"immediate","F2_BR","fact","NE",NA,10,0,NA
"801",67,"immediate","F3_BR","fact","NE",NA,8,0,NA
"802",67,"immediate","F4_BR","fact","NE",NA,10,0,NA
"803",67,"immediate","F5_BR","fact","NE",NA,10,0,NA
"804",67,"immediate","F6_BR","fact","NE",NA,6,0,NA
"805",68,"delayed","M1_BR","myth","CFC",NA,7,1,NA
"806",68,"delayed","M2_BR","myth","CFC",NA,8,1,NA
"807",68,"delayed","M3_BR","myth","CFC",NA,4,1,NA
"808",68,"delayed","M4_BR","myth","CFC",NA,4,1,NA
"809",68,"delayed","M5_BR","myth","CFC",NA,4,1,NA
"810",68,"delayed","M6_BR","myth","CFC",NA,6,1,NA
"811",68,"delayed","F1_BR","fact","CFC",NA,0,1,NA
"812",68,"delayed","F2_BR","fact","CFC",NA,0,1,NA
"813",68,"delayed","F3_BR","fact","CFC",NA,4,1,NA
"814",68,"delayed","F4_BR","fact","CFC",NA,4,1,NA
"815",68,"delayed","F5_BR","fact","CFC",NA,0,1,NA
"816",68,"delayed","F6_BR","fact","CFC",NA,3,1,NA
"817",69,"immediate","M1_BR","myth","FCO",NA,7,1,NA
"818",69,"immediate","M2_BR","myth","FCO",NA,7,1,NA
"819",69,"immediate","M3_BR","myth","FCO",NA,6,1,NA
"820",69,"immediate","M4_BR","myth","FCO",NA,6,1,NA
"821",69,"immediate","M5_BR","myth","FCO",NA,4,1,NA
"822",69,"immediate","M6_BR","myth","FCO",NA,4,1,NA
"823",69,"immediate","F1_BR","fact","FCO",NA,6,1,NA
"824",69,"immediate","F2_BR","fact","FCO",NA,7,1,NA
"825",69,"immediate","F3_BR","fact","FCO",NA,4,1,NA
"826",69,"immediate","F4_BR","fact","FCO",NA,6,1,NA
"827",69,"immediate","F5_BR","fact","FCO",NA,7,1,NA
"828",69,"immediate","F6_BR","fact","FCO",NA,6,1,NA
"829",70,"immediate","M1_BR","myth","NE",NA,4,0,NA
"830",70,"immediate","M2_BR","myth","NE",NA,9,0,NA
"831",70,"immediate","M3_BR","myth","NE",NA,7,0,NA
"832",70,"immediate","M4_BR","myth","NE",NA,8,0,NA
"833",70,"immediate","M5_BR","myth","NE",NA,7,0,NA
"834",70,"immediate","M6_BR","myth","NE",NA,7,0,NA
"835",70,"immediate","F1_BR","fact","NE",NA,4,0,NA
"836",70,"immediate","F2_BR","fact","NE",NA,6,0,NA
"837",70,"immediate","F3_BR","fact","NE",NA,5,0,NA
"838",70,"immediate","F4_BR","fact","NE",NA,4,0,NA
"839",70,"immediate","F5_BR","fact","NE",NA,7,0,NA
"840",70,"immediate","F6_BR","fact","NE",NA,5,0,NA
"841",71,"immediate","M1_BR","myth","FCO",NA,1,1,NA
"842",71,"immediate","M2_BR","myth","FCO",NA,6,1,NA
"843",71,"immediate","M3_BR","myth","FCO",NA,4,1,NA
"844",71,"immediate","M4_BR","myth","FCO",NA,3,1,NA
"845",71,"immediate","M5_BR","myth","FCO",NA,5,1,NA
"846",71,"immediate","M6_BR","myth","FCO",NA,3,1,NA
"847",71,"immediate","F1_BR","fact","FCO",NA,8,1,NA
"848",71,"immediate","F2_BR","fact","FCO",NA,5,1,NA
"849",71,"immediate","F3_BR","fact","FCO",NA,6,1,NA
"850",71,"immediate","F4_BR","fact","FCO",NA,6,1,NA
"851",71,"immediate","F5_BR","fact","FCO",NA,10,1,NA
"852",71,"immediate","F6_BR","fact","FCO",NA,8,1,NA
"853",72,"immediate","M1_BR","myth","NE",NA,2,0,NA
"854",72,"immediate","M2_BR","myth","NE",NA,5,0,NA
"855",72,"immediate","M3_BR","myth","NE",NA,7,0,NA
"856",72,"immediate","M4_BR","myth","NE",NA,2,0,NA
"857",72,"immediate","M5_BR","myth","NE",NA,7,0,NA
"858",72,"immediate","M6_BR","myth","NE",NA,2,0,NA
"859",72,"immediate","F1_BR","fact","NE",NA,3,0,NA
"860",72,"immediate","F2_BR","fact","NE",NA,3,0,NA
"861",72,"immediate","F3_BR","fact","NE",NA,5,0,NA
"862",72,"immediate","F4_BR","fact","NE",NA,7,0,NA
"863",72,"immediate","F5_BR","fact","NE",NA,4,0,NA
"864",72,"immediate","F6_BR","fact","NE",NA,7,0,NA
"865",73,"delayed","M1_BR","myth","CFC",NA,6,1,NA
"866",73,"delayed","M2_BR","myth","CFC",NA,5,1,NA
"867",73,"delayed","M3_BR","myth","CFC",NA,5,1,NA
"868",73,"delayed","M4_BR","myth","CFC",NA,4,1,NA
"869",73,"delayed","M5_BR","myth","CFC",NA,4,1,NA
"870",73,"delayed","M6_BR","myth","CFC",NA,4,1,NA
"871",73,"delayed","F1_BR","fact","CFC",NA,6,1,NA
"872",73,"delayed","F2_BR","fact","CFC",NA,5,1,NA
"873",73,"delayed","F3_BR","fact","CFC",NA,6,1,NA
"874",73,"delayed","F4_BR","fact","CFC",NA,5,1,NA
"875",73,"delayed","F5_BR","fact","CFC",NA,6,1,NA
"876",73,"delayed","F6_BR","fact","CFC",NA,6,1,NA
"877",74,"immediate","M1_BR","myth","NE",NA,3,0,NA
"878",74,"immediate","M2_BR","myth","NE",NA,7,0,NA
"879",74,"immediate","M3_BR","myth","NE",NA,3,0,NA
"880",74,"immediate","M4_BR","myth","NE",NA,5,0,NA
"881",74,"immediate","M5_BR","myth","NE",NA,8,0,NA
"882",74,"immediate","M6_BR","myth","NE",NA,6,0,NA
"883",74,"immediate","F1_BR","fact","NE",NA,1,0,NA
"884",74,"immediate","F2_BR","fact","NE",NA,5,0,NA
"885",74,"immediate","F3_BR","fact","NE",NA,5,0,NA
"886",74,"immediate","F4_BR","fact","NE",NA,5,0,NA
"887",74,"immediate","F5_BR","fact","NE",NA,3,0,NA
"888",74,"immediate","F6_BR","fact","NE",NA,3,0,NA
"889",75,"immediate","M1_BR","myth","FCO",NA,2,1,NA
"890",75,"immediate","M2_BR","myth","FCO",NA,0,1,NA
"891",75,"immediate","M3_BR","myth","FCO",NA,2,1,NA
"892",75,"immediate","M4_BR","myth","FCO",NA,3,1,NA
"893",75,"immediate","M5_BR","myth","FCO",NA,0,1,NA
"894",75,"immediate","M6_BR","myth","FCO",NA,3,1,NA
"895",75,"immediate","F1_BR","fact","FCO",NA,0,1,NA
"896",75,"immediate","F2_BR","fact","FCO",NA,5,1,NA
"897",75,"immediate","F3_BR","fact","FCO",NA,0,1,NA
"898",75,"immediate","F4_BR","fact","FCO",NA,3,1,NA
"899",75,"immediate","F5_BR","fact","FCO",NA,2,1,NA
"900",75,"immediate","F6_BR","fact","FCO",NA,0,1,NA
"901",76,"immediate","M1_BR","myth","CFC",NA,1,1,NA
"902",76,"immediate","M2_BR","myth","CFC",NA,7,1,NA
"903",76,"immediate","M3_BR","myth","CFC",NA,1,1,NA
"904",76,"immediate","M4_BR","myth","CFC",NA,1,1,NA
"905",76,"immediate","M5_BR","myth","CFC",NA,1,1,NA
"906",76,"immediate","M6_BR","myth","CFC",NA,1,1,NA
"907",76,"immediate","F1_BR","fact","CFC",NA,1,1,NA
"908",76,"immediate","F2_BR","fact","CFC",NA,1,1,NA
"909",76,"immediate","F3_BR","fact","CFC",NA,7,1,NA
"910",76,"immediate","F4_BR","fact","CFC",NA,1,1,NA
"911",76,"immediate","F5_BR","fact","CFC",NA,9,1,NA
"912",76,"immediate","F6_BR","fact","CFC",NA,1,1,NA
"913",77,"immediate","M1_BR","myth","CO",NA,0,1,NA
"914",77,"immediate","M2_BR","myth","CO",NA,1,1,NA
"915",77,"immediate","M3_BR","myth","CO",NA,5,1,NA
"916",77,"immediate","M4_BR","myth","CO",NA,5,1,NA
"917",77,"immediate","M5_BR","myth","CO",NA,0,1,NA
"918",77,"immediate","M6_BR","myth","CO",NA,5,1,NA
"919",77,"immediate","F1_BR","fact","CO",NA,1,1,NA
"920",77,"immediate","F2_BR","fact","CO",NA,5,1,NA
"921",77,"immediate","F3_BR","fact","CO",NA,5,1,NA
"922",77,"immediate","F4_BR","fact","CO",NA,5,1,NA
"923",77,"immediate","F5_BR","fact","CO",NA,1,1,NA
"924",77,"immediate","F6_BR","fact","CO",NA,5,1,NA
"925",78,"delayed","M1_BR","myth","CO",NA,5,1,NA
"926",78,"delayed","M2_BR","myth","CO",NA,5,1,NA
"927",78,"delayed","M3_BR","myth","CO",NA,4,1,NA
"928",78,"delayed","M4_BR","myth","CO",NA,5,1,NA
"929",78,"delayed","M5_BR","myth","CO",NA,4,1,NA
"930",78,"delayed","M6_BR","myth","CO",NA,4,1,NA
"931",78,"delayed","F1_BR","fact","CO",NA,6,1,NA
"932",78,"delayed","F2_BR","fact","CO",NA,3,1,NA
"933",78,"delayed","F3_BR","fact","CO",NA,4,1,NA
"934",78,"delayed","F4_BR","fact","CO",NA,5,1,NA
"935",78,"delayed","F5_BR","fact","CO",NA,5,1,NA
"936",78,"delayed","F6_BR","fact","CO",NA,5,1,NA
"937",79,"immediate","M1_BR","myth","CO",NA,8,1,NA
"938",79,"immediate","M2_BR","myth","CO",NA,4,1,NA
"939",79,"immediate","M3_BR","myth","CO",NA,8,1,NA
"940",79,"immediate","M4_BR","myth","CO",NA,1,1,NA
"941",79,"immediate","M5_BR","myth","CO",NA,7,1,NA
"942",79,"immediate","M6_BR","myth","CO",NA,0,1,NA
"943",79,"immediate","F1_BR","fact","CO",NA,0,1,NA
"944",79,"immediate","F2_BR","fact","CO",NA,8,1,NA
"945",79,"immediate","F3_BR","fact","CO",NA,2,1,NA
"946",79,"immediate","F4_BR","fact","CO",NA,0,1,NA
"947",79,"immediate","F5_BR","fact","CO",NA,2,1,NA
"948",79,"immediate","F6_BR","fact","CO",NA,2,1,NA
"949",80,"delayed","M1_BR","myth","CO",NA,5,1,NA
"950",80,"delayed","M2_BR","myth","CO",NA,5,1,NA
"951",80,"delayed","M3_BR","myth","CO",NA,5,1,NA
"952",80,"delayed","M4_BR","myth","CO",NA,5,1,NA
"953",80,"delayed","M5_BR","myth","CO",NA,5,1,NA
"954",80,"delayed","M6_BR","myth","CO",NA,5,1,NA
"955",80,"delayed","F1_BR","fact","CO",NA,5,1,NA
"956",80,"delayed","F2_BR","fact","CO",NA,5,1,NA
"957",80,"delayed","F3_BR","fact","CO",NA,5,1,NA
"958",80,"delayed","F4_BR","fact","CO",NA,5,1,NA
"959",80,"delayed","F5_BR","fact","CO",NA,5,1,NA
"960",80,"delayed","F6_BR","fact","CO",NA,5,1,NA
"961",81,"immediate","M1_BR","myth","NE",NA,4,0,NA
"962",81,"immediate","M2_BR","myth","NE",NA,8,0,NA
"963",81,"immediate","M3_BR","myth","NE",NA,7,0,NA
"964",81,"immediate","M4_BR","myth","NE",NA,5,0,NA
"965",81,"immediate","M5_BR","myth","NE",NA,3,0,NA
"966",81,"immediate","M6_BR","myth","NE",NA,7,0,NA
"967",81,"immediate","F1_BR","fact","NE",NA,4,0,NA
"968",81,"immediate","F2_BR","fact","NE",NA,9,0,NA
"969",81,"immediate","F3_BR","fact","NE",NA,6,0,NA
"970",81,"immediate","F4_BR","fact","NE",NA,10,0,NA
"971",81,"immediate","F5_BR","fact","NE",NA,5,0,NA
"972",81,"immediate","F6_BR","fact","NE",NA,5,0,NA
"973",82,"delayed","M1_BR","myth","FCO",NA,7,1,NA
"974",82,"delayed","M2_BR","myth","FCO",NA,5,1,NA
"975",82,"delayed","M3_BR","myth","FCO",NA,5,1,NA
"976",82,"delayed","M4_BR","myth","FCO",NA,7,1,NA
"977",82,"delayed","M5_BR","myth","FCO",NA,7,1,NA
"978",82,"delayed","M6_BR","myth","FCO",NA,5,1,NA
"979",82,"delayed","F1_BR","fact","FCO",NA,6,1,NA
"980",82,"delayed","F2_BR","fact","FCO",NA,3,1,NA
"981",82,"delayed","F3_BR","fact","FCO",NA,4,1,NA
"982",82,"delayed","F4_BR","fact","FCO",NA,1,1,NA
"983",82,"delayed","F5_BR","fact","FCO",NA,8,1,NA
"984",82,"delayed","F6_BR","fact","FCO",NA,3,1,NA
"985",83,"delayed","M1_BR","myth","CO",NA,0,1,NA
"986",83,"delayed","M2_BR","myth","CO",NA,8,1,NA
"987",83,"delayed","M3_BR","myth","CO",NA,3,1,NA
"988",83,"delayed","M4_BR","myth","CO",NA,7,1,NA
"989",83,"delayed","M5_BR","myth","CO",NA,9,1,NA
"990",83,"delayed","M6_BR","myth","CO",NA,10,1,NA
"991",83,"delayed","F1_BR","fact","CO",NA,1,1,NA
"992",83,"delayed","F2_BR","fact","CO",NA,9,1,NA
"993",83,"delayed","F3_BR","fact","CO",NA,4,1,NA
"994",83,"delayed","F4_BR","fact","CO",NA,8,1,NA
"995",83,"delayed","F5_BR","fact","CO",NA,4,1,NA
"996",83,"delayed","F6_BR","fact","CO",NA,9,1,NA
"997",84,"delayed","M1_BR","myth","CO",NA,8,1,NA
"998",84,"delayed","M2_BR","myth","CO",NA,7,1,NA
"999",84,"delayed","M3_BR","myth","CO",NA,8,1,NA
"1000",84,"delayed","M4_BR","myth","CO",NA,7,1,NA
"1001",84,"delayed","M5_BR","myth","CO",NA,7,1,NA
"1002",84,"delayed","M6_BR","myth","CO",NA,5,1,NA
"1003",84,"delayed","F1_BR","fact","CO",NA,5,1,NA
"1004",84,"delayed","F2_BR","fact","CO",NA,3,1,NA
"1005",84,"delayed","F3_BR","fact","CO",NA,8,1,NA
"1006",84,"delayed","F4_BR","fact","CO",NA,6,1,NA
"1007",84,"delayed","F5_BR","fact","CO",NA,10,1,NA
"1008",84,"delayed","F6_BR","fact","CO",NA,8,1,NA
"1009",85,"delayed","M1_BR","myth","FCO",NA,0,1,NA
"1010",85,"delayed","M2_BR","myth","FCO",NA,0,1,NA
"1011",85,"delayed","M3_BR","myth","FCO",NA,4,1,NA
"1012",85,"delayed","M4_BR","myth","FCO",NA,0,1,NA
"1013",85,"delayed","M5_BR","myth","FCO",NA,0,1,NA
"1014",85,"delayed","M6_BR","myth","FCO",NA,0,1,NA
"1015",85,"delayed","F1_BR","fact","FCO",NA,10,1,NA
"1016",85,"delayed","F2_BR","fact","FCO",NA,10,1,NA
"1017",85,"delayed","F3_BR","fact","FCO",NA,10,1,NA
"1018",85,"delayed","F4_BR","fact","FCO",NA,10,1,NA
"1019",85,"delayed","F5_BR","fact","FCO",NA,10,1,NA
"1020",85,"delayed","F6_BR","fact","FCO",NA,9,1,NA
"1021",86,"immediate","M1_BR","myth","CFC",NA,1,1,NA
"1022",86,"immediate","M2_BR","myth","CFC",NA,1,1,NA
"1023",86,"immediate","M3_BR","myth","CFC",NA,1,1,NA
"1024",86,"immediate","M4_BR","myth","CFC",NA,0,1,NA
"1025",86,"immediate","M5_BR","myth","CFC",NA,1,1,NA
"1026",86,"immediate","M6_BR","myth","CFC",NA,1,1,NA
"1027",86,"immediate","F1_BR","fact","CFC",NA,9,1,NA
"1028",86,"immediate","F2_BR","fact","CFC",NA,9,1,NA
"1029",86,"immediate","F3_BR","fact","CFC",NA,9,1,NA
"1030",86,"immediate","F4_BR","fact","CFC",NA,10,1,NA
"1031",86,"immediate","F5_BR","fact","CFC",NA,7,1,NA
"1032",86,"immediate","F6_BR","fact","CFC",NA,7,1,NA
"1033",87,"immediate","M1_BR","myth","CO",NA,0,1,NA
"1034",87,"immediate","M2_BR","myth","CO",NA,5,1,NA
"1035",87,"immediate","M3_BR","myth","CO",NA,5,1,NA
"1036",87,"immediate","M4_BR","myth","CO",NA,0,1,NA
"1037",87,"immediate","M5_BR","myth","CO",NA,5,1,NA
"1038",87,"immediate","M6_BR","myth","CO",NA,0,1,NA
"1039",87,"immediate","F1_BR","fact","CO",NA,0,1,NA
"1040",87,"immediate","F2_BR","fact","CO",NA,0,1,NA
"1041",87,"immediate","F3_BR","fact","CO",NA,6,1,NA
"1042",87,"immediate","F4_BR","fact","CO",NA,0,1,NA
"1043",87,"immediate","F5_BR","fact","CO",NA,5,1,NA
"1044",87,"immediate","F6_BR","fact","CO",NA,0,1,NA
"1045",88,"immediate","M1_BR","myth","FCO",NA,3,1,NA
"1046",88,"immediate","M2_BR","myth","FCO",NA,6,1,NA
"1047",88,"immediate","M3_BR","myth","FCO",NA,4,1,NA
"1048",88,"immediate","M4_BR","myth","FCO",NA,0,1,NA
"1049",88,"immediate","M5_BR","myth","FCO",NA,3,1,NA
"1050",88,"immediate","M6_BR","myth","FCO",NA,0,1,NA
"1051",88,"immediate","F1_BR","fact","FCO",NA,2,1,NA
"1052",88,"immediate","F2_BR","fact","FCO",NA,0,1,NA
"1053",88,"immediate","F3_BR","fact","FCO",NA,1,1,NA
"1054",88,"immediate","F4_BR","fact","FCO",NA,5,1,NA
"1055",88,"immediate","F5_BR","fact","FCO",NA,3,1,NA
"1056",88,"immediate","F6_BR","fact","FCO",NA,6,1,NA
"1057",89,"immediate","M1_BR","myth","CFC",NA,3,1,NA
"1058",89,"immediate","M2_BR","myth","CFC",NA,4,1,NA
"1059",89,"immediate","M3_BR","myth","CFC",NA,1,1,NA
"1060",89,"immediate","M4_BR","myth","CFC",NA,4,1,NA
"1061",89,"immediate","M5_BR","myth","CFC",NA,2,1,NA
"1062",89,"immediate","M6_BR","myth","CFC",NA,6,1,NA
"1063",89,"immediate","F1_BR","fact","CFC",NA,5,1,NA
"1064",89,"immediate","F2_BR","fact","CFC",NA,2,1,NA
"1065",89,"immediate","F3_BR","fact","CFC",NA,8,1,NA
"1066",89,"immediate","F4_BR","fact","CFC",NA,6,1,NA
"1067",89,"immediate","F5_BR","fact","CFC",NA,3,1,NA
"1068",89,"immediate","F6_BR","fact","CFC",NA,10,1,NA
"1069",90,"delayed","M1_BR","myth","CFC",NA,9,1,NA
"1070",90,"delayed","M2_BR","myth","CFC",NA,0,1,NA
"1071",90,"delayed","M3_BR","myth","CFC",NA,8,1,NA
"1072",90,"delayed","M4_BR","myth","CFC",NA,0,1,NA
"1073",90,"delayed","M5_BR","myth","CFC",NA,7,1,NA
"1074",90,"delayed","M6_BR","myth","CFC",NA,0,1,NA
"1075",90,"delayed","F1_BR","fact","CFC",NA,0,1,NA
"1076",90,"delayed","F2_BR","fact","CFC",NA,10,1,NA
"1077",90,"delayed","F3_BR","fact","CFC",NA,3,1,NA
"1078",90,"delayed","F4_BR","fact","CFC",NA,10,1,NA
"1079",90,"delayed","F5_BR","fact","CFC",NA,10,1,NA
"1080",90,"delayed","F6_BR","fact","CFC",NA,10,1,NA
"1081",91,"delayed","M1_BR","myth","FCO",NA,5,1,NA
"1082",91,"delayed","M2_BR","myth","FCO",NA,5,1,NA
"1083",91,"delayed","M3_BR","myth","FCO",NA,0,1,NA
"1084",91,"delayed","M4_BR","myth","FCO",NA,5,1,NA
"1085",91,"delayed","M5_BR","myth","FCO",NA,3,1,NA
"1086",91,"delayed","M6_BR","myth","FCO",NA,9,1,NA
"1087",91,"delayed","F1_BR","fact","FCO",NA,10,1,NA
"1088",91,"delayed","F2_BR","fact","FCO",NA,10,1,NA
"1089",91,"delayed","F3_BR","fact","FCO",NA,6,1,NA
"1090",91,"delayed","F4_BR","fact","FCO",NA,10,1,NA
"1091",91,"delayed","F5_BR","fact","FCO",NA,5,1,NA
"1092",91,"delayed","F6_BR","fact","FCO",NA,4,1,NA
"1093",92,"immediate","M1_BR","myth","NE",NA,5,0,NA
"1094",92,"immediate","M2_BR","myth","NE",NA,5,0,NA
"1095",92,"immediate","M3_BR","myth","NE",NA,5,0,NA
"1096",92,"immediate","M4_BR","myth","NE",NA,6,0,NA
"1097",92,"immediate","M5_BR","myth","NE",NA,5,0,NA
"1098",92,"immediate","M6_BR","myth","NE",NA,4,0,NA
"1099",92,"immediate","F1_BR","fact","NE",NA,0,0,NA
"1100",92,"immediate","F2_BR","fact","NE",NA,4,0,NA
"1101",92,"immediate","F3_BR","fact","NE",NA,5,0,NA
"1102",92,"immediate","F4_BR","fact","NE",NA,10,0,NA
"1103",92,"immediate","F5_BR","fact","NE",NA,5,0,NA
"1104",92,"immediate","F6_BR","fact","NE",NA,0,0,NA
"1105",93,"delayed","M1_BR","myth","CO",NA,7,1,NA
"1106",93,"delayed","M2_BR","myth","CO",NA,7,1,NA
"1107",93,"delayed","M3_BR","myth","CO",NA,4,1,NA
"1108",93,"delayed","M4_BR","myth","CO",NA,3,1,NA
"1109",93,"delayed","M5_BR","myth","CO",NA,6,1,NA
"1110",93,"delayed","M6_BR","myth","CO",NA,4,1,NA
"1111",93,"delayed","F1_BR","fact","CO",NA,4,1,NA
"1112",93,"delayed","F2_BR","fact","CO",NA,2,1,NA
"1113",93,"delayed","F3_BR","fact","CO",NA,7,1,NA
"1114",93,"delayed","F4_BR","fact","CO",NA,3,1,NA
"1115",93,"delayed","F5_BR","fact","CO",NA,6,1,NA
"1116",93,"delayed","F6_BR","fact","CO",NA,6,1,NA
"1117",94,"delayed","M1_BR","myth","FCO",NA,1,1,NA
"1118",94,"delayed","M2_BR","myth","FCO",NA,7,1,NA
"1119",94,"delayed","M3_BR","myth","FCO",NA,4,1,NA
"1120",94,"delayed","M4_BR","myth","FCO",NA,10,1,NA
"1121",94,"delayed","M5_BR","myth","FCO",NA,0,1,NA
"1122",94,"delayed","M6_BR","myth","FCO",NA,10,1,NA
"1123",94,"delayed","F1_BR","fact","FCO",NA,8,1,NA
"1124",94,"delayed","F2_BR","fact","FCO",NA,10,1,NA
"1125",94,"delayed","F3_BR","fact","FCO",NA,8,1,NA
"1126",94,"delayed","F4_BR","fact","FCO",NA,10,1,NA
"1127",94,"delayed","F5_BR","fact","FCO",NA,4,1,NA
"1128",94,"delayed","F6_BR","fact","FCO",NA,3,1,NA
"1129",95,"delayed","M1_BR","myth","FCO",NA,6,1,NA
"1130",95,"delayed","M2_BR","myth","FCO",NA,3,1,NA
"1131",95,"delayed","M3_BR","myth","FCO",NA,5,1,NA
"1132",95,"delayed","M4_BR","myth","FCO",NA,6,1,NA
"1133",95,"delayed","M5_BR","myth","FCO",NA,8,1,NA
"1134",95,"delayed","M6_BR","myth","FCO",NA,6,1,NA
"1135",95,"delayed","F1_BR","fact","FCO",NA,6,1,NA
"1136",95,"delayed","F2_BR","fact","FCO",NA,4,1,NA
"1137",95,"delayed","F3_BR","fact","FCO",NA,5,1,NA
"1138",95,"delayed","F4_BR","fact","FCO",NA,9,1,NA
"1139",95,"delayed","F5_BR","fact","FCO",NA,7,1,NA
"1140",95,"delayed","F6_BR","fact","FCO",NA,6,1,NA
"1141",96,"immediate","M1_BR","myth","NE",NA,1,0,NA
"1142",96,"immediate","M2_BR","myth","NE",NA,8,0,NA
"1143",96,"immediate","M3_BR","myth","NE",NA,7,0,NA
"1144",96,"immediate","M4_BR","myth","NE",NA,2,0,NA
"1145",96,"immediate","M5_BR","myth","NE",NA,9,0,NA
"1146",96,"immediate","M6_BR","myth","NE",NA,8,0,NA
"1147",96,"immediate","F1_BR","fact","NE",NA,1,0,NA
"1148",96,"immediate","F2_BR","fact","NE",NA,3,0,NA
"1149",96,"immediate","F3_BR","fact","NE",NA,9,0,NA
"1150",96,"immediate","F4_BR","fact","NE",NA,9,0,NA
"1151",96,"immediate","F5_BR","fact","NE",NA,6,0,NA
"1152",96,"immediate","F6_BR","fact","NE",NA,2,0,NA
"1153",97,"immediate","M1_BR","myth","NE",NA,5,0,NA
"1154",97,"immediate","M2_BR","myth","NE",NA,7,0,NA
"1155",97,"immediate","M3_BR","myth","NE",NA,5,0,NA
"1156",97,"immediate","M4_BR","myth","NE",NA,6,0,NA
"1157",97,"immediate","M5_BR","myth","NE",NA,8,0,NA
"1158",97,"immediate","M6_BR","myth","NE",NA,5,0,NA
"1159",97,"immediate","F1_BR","fact","NE",NA,2,0,NA
"1160",97,"immediate","F2_BR","fact","NE",NA,1,0,NA
"1161",97,"immediate","F3_BR","fact","NE",NA,7,0,NA
"1162",97,"immediate","F4_BR","fact","NE",NA,10,0,NA
"1163",97,"immediate","F5_BR","fact","NE",NA,6,0,NA
"1164",97,"immediate","F6_BR","fact","NE",NA,6,0,NA
"1165",98,"immediate","M1_BR","myth","FCO",NA,0,1,NA
"1166",98,"immediate","M2_BR","myth","FCO",NA,1,1,NA
"1167",98,"immediate","M3_BR","myth","FCO",NA,4,1,NA
"1168",98,"immediate","M4_BR","myth","FCO",NA,1,1,NA
"1169",98,"immediate","M5_BR","myth","FCO",NA,1,1,NA
"1170",98,"immediate","M6_BR","myth","FCO",NA,2,1,NA
"1171",98,"immediate","F1_BR","fact","FCO",NA,3,1,NA
"1172",98,"immediate","F2_BR","fact","FCO",NA,6,1,NA
"1173",98,"immediate","F3_BR","fact","FCO",NA,6,1,NA
"1174",98,"immediate","F4_BR","fact","FCO",NA,3,1,NA
"1175",98,"immediate","F5_BR","fact","FCO",NA,7,1,NA
"1176",98,"immediate","F6_BR","fact","FCO",NA,1,1,NA
"1177",99,"immediate","M1_BR","myth","NE",NA,7,0,NA
"1178",99,"immediate","M2_BR","myth","NE",NA,5,0,NA
"1179",99,"immediate","M3_BR","myth","NE",NA,5,0,NA
"1180",99,"immediate","M4_BR","myth","NE",NA,5,0,NA
"1181",99,"immediate","M5_BR","myth","NE",NA,8,0,NA
"1182",99,"immediate","M6_BR","myth","NE",NA,6,0,NA
"1183",99,"immediate","F1_BR","fact","NE",NA,5,0,NA
"1184",99,"immediate","F2_BR","fact","NE",NA,5,0,NA
"1185",99,"immediate","F3_BR","fact","NE",NA,6,0,NA
"1186",99,"immediate","F4_BR","fact","NE",NA,6,0,NA
"1187",99,"immediate","F5_BR","fact","NE",NA,7,0,NA
"1188",99,"immediate","F6_BR","fact","NE",NA,5,0,NA
"1189",100,"delayed","M1_BR","myth","FCO",NA,0,1,NA
"1190",100,"delayed","M2_BR","myth","FCO",NA,5,1,NA
"1191",100,"delayed","M3_BR","myth","FCO",NA,0,1,NA
"1192",100,"delayed","M4_BR","myth","FCO",NA,0,1,NA
"1193",100,"delayed","M5_BR","myth","FCO",NA,1,1,NA
"1194",100,"delayed","M6_BR","myth","FCO",NA,0,1,NA
"1195",100,"delayed","F1_BR","fact","FCO",NA,0,1,NA
"1196",100,"delayed","F2_BR","fact","FCO",NA,0,1,NA
"1197",100,"delayed","F3_BR","fact","FCO",NA,5,1,NA
"1198",100,"delayed","F4_BR","fact","FCO",NA,10,1,NA
"1199",100,"delayed","F5_BR","fact","FCO",NA,0,1,NA
"1200",100,"delayed","F6_BR","fact","FCO",NA,0,1,NA
"1201",101,"immediate","M1_BR","myth","CFC",NA,0,1,NA
"1202",101,"immediate","M2_BR","myth","CFC",NA,0,1,NA
"1203",101,"immediate","M3_BR","myth","CFC",NA,0,1,NA
"1204",101,"immediate","M4_BR","myth","CFC",NA,0,1,NA
"1205",101,"immediate","M5_BR","myth","CFC",NA,0,1,NA
"1206",101,"immediate","M6_BR","myth","CFC",NA,10,1,NA
"1207",101,"immediate","F1_BR","fact","CFC",NA,10,1,NA
"1208",101,"immediate","F2_BR","fact","CFC",NA,5,1,NA
"1209",101,"immediate","F3_BR","fact","CFC",NA,10,1,NA
"1210",101,"immediate","F4_BR","fact","CFC",NA,10,1,NA
"1211",101,"immediate","F5_BR","fact","CFC",NA,10,1,NA
"1212",101,"immediate","F6_BR","fact","CFC",NA,0,1,NA
"1213",102,"immediate","M1_BR","myth","FCO",NA,0,1,NA
"1214",102,"immediate","M2_BR","myth","FCO",NA,2,1,NA
"1215",102,"immediate","M3_BR","myth","FCO",NA,1,1,NA
"1216",102,"immediate","M4_BR","myth","FCO",NA,1,1,NA
"1217",102,"immediate","M5_BR","myth","FCO",NA,0,1,NA
"1218",102,"immediate","M6_BR","myth","FCO",NA,8,1,NA
"1219",102,"immediate","F1_BR","fact","FCO",NA,0,1,NA
"1220",102,"immediate","F2_BR","fact","FCO",NA,1,1,NA
"1221",102,"immediate","F3_BR","fact","FCO",NA,10,1,NA
"1222",102,"immediate","F4_BR","fact","FCO",NA,0,1,NA
"1223",102,"immediate","F5_BR","fact","FCO",NA,7,1,NA
"1224",102,"immediate","F6_BR","fact","FCO",NA,0,1,NA
"1225",103,"immediate","M1_BR","myth","CO",NA,0,1,NA
"1226",103,"immediate","M2_BR","myth","CO",NA,4,1,NA
"1227",103,"immediate","M3_BR","myth","CO",NA,3,1,NA
"1228",103,"immediate","M4_BR","myth","CO",NA,0,1,NA
"1229",103,"immediate","M5_BR","myth","CO",NA,8,1,NA
"1230",103,"immediate","M6_BR","myth","CO",NA,0,1,NA
"1231",103,"immediate","F1_BR","fact","CO",NA,5,1,NA
"1232",103,"immediate","F2_BR","fact","CO",NA,3,1,NA
"1233",103,"immediate","F3_BR","fact","CO",NA,3,1,NA
"1234",103,"immediate","F4_BR","fact","CO",NA,10,1,NA
"1235",103,"immediate","F5_BR","fact","CO",NA,0,1,NA
"1236",103,"immediate","F6_BR","fact","CO",NA,0,1,NA
"1237",104,"immediate","M1_BR","myth","CFC",NA,1,1,NA
"1238",104,"immediate","M2_BR","myth","CFC",NA,2,1,NA
"1239",104,"immediate","M3_BR","myth","CFC",NA,2,1,NA
"1240",104,"immediate","M4_BR","myth","CFC",NA,4,1,NA
"1241",104,"immediate","M5_BR","myth","CFC",NA,0,1,NA
"1242",104,"immediate","M6_BR","myth","CFC",NA,7,1,NA
"1243",104,"immediate","F1_BR","fact","CFC",NA,8,1,NA
"1244",104,"immediate","F2_BR","fact","CFC",NA,0,1,NA
"1245",104,"immediate","F3_BR","fact","CFC",NA,6,1,NA
"1246",104,"immediate","F4_BR","fact","CFC",NA,9,1,NA
"1247",104,"immediate","F5_BR","fact","CFC",NA,9,1,NA
"1248",104,"immediate","F6_BR","fact","CFC",NA,8,1,NA
"1249",105,"delayed","M1_BR","myth","FCO",NA,2,1,NA
"1250",105,"delayed","M2_BR","myth","FCO",NA,5,1,NA
"1251",105,"delayed","M3_BR","myth","FCO",NA,5,1,NA
"1252",105,"delayed","M4_BR","myth","FCO",NA,2,1,NA
"1253",105,"delayed","M5_BR","myth","FCO",NA,7,1,NA
"1254",105,"delayed","M6_BR","myth","FCO",NA,1,1,NA
"1255",105,"delayed","F1_BR","fact","FCO",NA,2,1,NA
"1256",105,"delayed","F2_BR","fact","FCO",NA,2,1,NA
"1257",105,"delayed","F3_BR","fact","FCO",NA,5,1,NA
"1258",105,"delayed","F4_BR","fact","FCO",NA,1,1,NA
"1259",105,"delayed","F5_BR","fact","FCO",NA,2,1,NA
"1260",105,"delayed","F6_BR","fact","FCO",NA,0,1,NA
"1261",106,"delayed","M1_BR","myth","CO",NA,6,1,NA
"1262",106,"delayed","M2_BR","myth","CO",NA,1,1,NA
"1263",106,"delayed","M3_BR","myth","CO",NA,2,1,NA
"1264",106,"delayed","M4_BR","myth","CO",NA,5,1,NA
"1265",106,"delayed","M5_BR","myth","CO",NA,5,1,NA
"1266",106,"delayed","M6_BR","myth","CO",NA,5,1,NA
"1267",106,"delayed","F1_BR","fact","CO",NA,0,1,NA
"1268",106,"delayed","F2_BR","fact","CO",NA,1,1,NA
"1269",106,"delayed","F3_BR","fact","CO",NA,2,1,NA
"1270",106,"delayed","F4_BR","fact","CO",NA,5,1,NA
"1271",106,"delayed","F5_BR","fact","CO",NA,3,1,NA
"1272",106,"delayed","F6_BR","fact","CO",NA,0,1,NA
"1273",107,"immediate","M1_BR","myth","FCO",NA,10,1,NA
"1274",107,"immediate","M2_BR","myth","FCO",NA,5,1,NA
"1275",107,"immediate","M3_BR","myth","FCO",NA,5,1,NA
"1276",107,"immediate","M4_BR","myth","FCO",NA,0,1,NA
"1277",107,"immediate","M5_BR","myth","FCO",NA,6,1,NA
"1278",107,"immediate","M6_BR","myth","FCO",NA,0,1,NA
"1279",107,"immediate","F1_BR","fact","FCO",NA,0,1,NA
"1280",107,"immediate","F2_BR","fact","FCO",NA,5,1,NA
"1281",107,"immediate","F3_BR","fact","FCO",NA,0,1,NA
"1282",107,"immediate","F4_BR","fact","FCO",NA,0,1,NA
"1283",107,"immediate","F5_BR","fact","FCO",NA,10,1,NA
"1284",107,"immediate","F6_BR","fact","FCO",NA,10,1,NA
"1285",108,"immediate","M1_BR","myth","CO",NA,9,1,NA
"1286",108,"immediate","M2_BR","myth","CO",NA,5,1,NA
"1287",108,"immediate","M3_BR","myth","CO",NA,5,1,NA
"1288",108,"immediate","M4_BR","myth","CO",NA,0,1,NA
"1289",108,"immediate","M5_BR","myth","CO",NA,0,1,NA
"1290",108,"immediate","M6_BR","myth","CO",NA,10,1,NA
"1291",108,"immediate","F1_BR","fact","CO",NA,0,1,NA
"1292",108,"immediate","F2_BR","fact","CO",NA,0,1,NA
"1293",108,"immediate","F3_BR","fact","CO",NA,0,1,NA
"1294",108,"immediate","F4_BR","fact","CO",NA,10,1,NA
"1295",108,"immediate","F5_BR","fact","CO",NA,0,1,NA
"1296",108,"immediate","F6_BR","fact","CO",NA,10,1,NA
"1297",109,"delayed","M1_BR","myth","CFC",NA,6,1,NA
"1298",109,"delayed","M2_BR","myth","CFC",NA,7,1,NA
"1299",109,"delayed","M3_BR","myth","CFC",NA,4,1,NA
"1300",109,"delayed","M4_BR","myth","CFC",NA,5,1,NA
"1301",109,"delayed","M5_BR","myth","CFC",NA,2,1,NA
"1302",109,"delayed","M6_BR","myth","CFC",NA,6,1,NA
"1303",109,"delayed","F1_BR","fact","CFC",NA,7,1,NA
"1304",109,"delayed","F2_BR","fact","CFC",NA,8,1,NA
"1305",109,"delayed","F3_BR","fact","CFC",NA,8,1,NA
"1306",109,"delayed","F4_BR","fact","CFC",NA,3,1,NA
"1307",109,"delayed","F5_BR","fact","CFC",NA,9,1,NA
"1308",109,"delayed","F6_BR","fact","CFC",NA,3,1,NA
"1309",110,"delayed","M1_BR","myth","CO",NA,5,1,NA
"1310",110,"delayed","M2_BR","myth","CO",NA,6,1,NA
"1311",110,"delayed","M3_BR","myth","CO",NA,5,1,NA
"1312",110,"delayed","M4_BR","myth","CO",NA,5,1,NA
"1313",110,"delayed","M5_BR","myth","CO",NA,4,1,NA
"1314",110,"delayed","M6_BR","myth","CO",NA,6,1,NA
"1315",110,"delayed","F1_BR","fact","CO",NA,4,1,NA
"1316",110,"delayed","F2_BR","fact","CO",NA,8,1,NA
"1317",110,"delayed","F3_BR","fact","CO",NA,6,1,NA
"1318",110,"delayed","F4_BR","fact","CO",NA,5,1,NA
"1319",110,"delayed","F5_BR","fact","CO",NA,5,1,NA
"1320",110,"delayed","F6_BR","fact","CO",NA,6,1,NA
"1321",111,"delayed","M1_BR","myth","FCO",NA,4,1,NA
"1322",111,"delayed","M2_BR","myth","FCO",NA,7,1,NA
"1323",111,"delayed","M3_BR","myth","FCO",NA,8,1,NA
"1324",111,"delayed","M4_BR","myth","FCO",NA,6,1,NA
"1325",111,"delayed","M5_BR","myth","FCO",NA,6,1,NA
"1326",111,"delayed","M6_BR","myth","FCO",NA,9,1,NA
"1327",111,"delayed","F1_BR","fact","FCO",NA,7,1,NA
"1328",111,"delayed","F2_BR","fact","FCO",NA,5,1,NA
"1329",111,"delayed","F3_BR","fact","FCO",NA,7,1,NA
"1330",111,"delayed","F4_BR","fact","FCO",NA,7,1,NA
"1331",111,"delayed","F5_BR","fact","FCO",NA,7,1,NA
"1332",111,"delayed","F6_BR","fact","FCO",NA,6,1,NA
"1333",112,"delayed","M1_BR","myth","CFC",NA,4,1,NA
"1334",112,"delayed","M2_BR","myth","CFC",NA,8,1,NA
"1335",112,"delayed","M3_BR","myth","CFC",NA,10,1,NA
"1336",112,"delayed","M4_BR","myth","CFC",NA,3,1,NA
"1337",112,"delayed","M5_BR","myth","CFC",NA,9,1,NA
"1338",112,"delayed","M6_BR","myth","CFC",NA,8,1,NA
"1339",112,"delayed","F1_BR","fact","CFC",NA,7,1,NA
"1340",112,"delayed","F2_BR","fact","CFC",NA,10,1,NA
"1341",112,"delayed","F3_BR","fact","CFC",NA,7,1,NA
"1342",112,"delayed","F4_BR","fact","CFC",NA,10,1,NA
"1343",112,"delayed","F5_BR","fact","CFC",NA,4,1,NA
"1344",112,"delayed","F6_BR","fact","CFC",NA,8,1,NA
"1345",113,"delayed","M1_BR","myth","FCO",NA,2,1,NA
"1346",113,"delayed","M2_BR","myth","FCO",NA,3,1,NA
"1347",113,"delayed","M3_BR","myth","FCO",NA,7,1,NA
"1348",113,"delayed","M4_BR","myth","FCO",NA,5,1,NA
"1349",113,"delayed","M5_BR","myth","FCO",NA,3,1,NA
"1350",113,"delayed","M6_BR","myth","FCO",NA,1,1,NA
"1351",113,"delayed","F1_BR","fact","FCO",NA,7,1,NA
"1352",113,"delayed","F2_BR","fact","FCO",NA,3,1,NA
"1353",113,"delayed","F3_BR","fact","FCO",NA,5,1,NA
"1354",113,"delayed","F4_BR","fact","FCO",NA,8,1,NA
"1355",113,"delayed","F5_BR","fact","FCO",NA,2,1,NA
"1356",113,"delayed","F6_BR","fact","FCO",NA,8,1,NA
"1357",114,"delayed","M1_BR","myth","CFC",NA,0,1,NA
"1358",114,"delayed","M2_BR","myth","CFC",NA,0,1,NA
"1359",114,"delayed","M3_BR","myth","CFC",NA,0,1,NA
"1360",114,"delayed","M4_BR","myth","CFC",NA,1,1,NA
"1361",114,"delayed","M5_BR","myth","CFC",NA,8,1,NA
"1362",114,"delayed","M6_BR","myth","CFC",NA,2,1,NA
"1363",114,"delayed","F1_BR","fact","CFC",NA,0,1,NA
"1364",114,"delayed","F2_BR","fact","CFC",NA,2,1,NA
"1365",114,"delayed","F3_BR","fact","CFC",NA,3,1,NA
"1366",114,"delayed","F4_BR","fact","CFC",NA,9,1,NA
"1367",114,"delayed","F5_BR","fact","CFC",NA,0,1,NA
"1368",114,"delayed","F6_BR","fact","CFC",NA,2,1,NA
"1369",115,"delayed","M1_BR","myth","FCO",NA,5,1,NA
"1370",115,"delayed","M2_BR","myth","FCO",NA,3,1,NA
"1371",115,"delayed","M3_BR","myth","FCO",NA,5,1,NA
"1372",115,"delayed","M4_BR","myth","FCO",NA,1,1,NA
"1373",115,"delayed","M5_BR","myth","FCO",NA,0,1,NA
"1374",115,"delayed","M6_BR","myth","FCO",NA,2,1,NA
"1375",115,"delayed","F1_BR","fact","FCO",NA,9,1,NA
"1376",115,"delayed","F2_BR","fact","FCO",NA,10,1,NA
"1377",115,"delayed","F3_BR","fact","FCO",NA,9,1,NA
"1378",115,"delayed","F4_BR","fact","FCO",NA,10,1,NA
"1379",115,"delayed","F5_BR","fact","FCO",NA,10,1,NA
"1380",115,"delayed","F6_BR","fact","FCO",NA,9,1,NA
"1381",116,"delayed","M1_BR","myth","CO",NA,10,1,NA
"1382",116,"delayed","M2_BR","myth","CO",NA,6,1,NA
"1383",116,"delayed","M3_BR","myth","CO",NA,3,1,NA
"1384",116,"delayed","M4_BR","myth","CO",NA,0,1,NA
"1385",116,"delayed","M5_BR","myth","CO",NA,10,1,NA
"1386",116,"delayed","M6_BR","myth","CO",NA,4,1,NA
"1387",116,"delayed","F1_BR","fact","CO",NA,4,1,NA
"1388",116,"delayed","F2_BR","fact","CO",NA,5,1,NA
"1389",116,"delayed","F3_BR","fact","CO",NA,2,1,NA
"1390",116,"delayed","F4_BR","fact","CO",NA,10,1,NA
"1391",116,"delayed","F5_BR","fact","CO",NA,3,1,NA
"1392",116,"delayed","F6_BR","fact","CO",NA,0,1,NA
"1393",117,"delayed","M1_BR","myth","CFC",NA,7,1,NA
"1394",117,"delayed","M2_BR","myth","CFC",NA,10,1,NA
"1395",117,"delayed","M3_BR","myth","CFC",NA,5,1,NA
"1396",117,"delayed","M4_BR","myth","CFC",NA,0,1,NA
"1397",117,"delayed","M5_BR","myth","CFC",NA,7,1,NA
"1398",117,"delayed","M6_BR","myth","CFC",NA,5,1,NA
"1399",117,"delayed","F1_BR","fact","CFC",NA,1,1,NA
"1400",117,"delayed","F2_BR","fact","CFC",NA,0,1,NA
"1401",117,"delayed","F3_BR","fact","CFC",NA,4,1,NA
"1402",117,"delayed","F4_BR","fact","CFC",NA,0,1,NA
"1403",117,"delayed","F5_BR","fact","CFC",NA,8,1,NA
"1404",117,"delayed","F6_BR","fact","CFC",NA,3,1,NA
"1405",118,"immediate","M1_BR","myth","CO",NA,0,1,NA
"1406",118,"immediate","M2_BR","myth","CO",NA,10,1,NA
"1407",118,"immediate","M3_BR","myth","CO",NA,10,1,NA
"1408",118,"immediate","M4_BR","myth","CO",NA,0,1,NA
"1409",118,"immediate","M5_BR","myth","CO",NA,10,1,NA
"1410",118,"immediate","M6_BR","myth","CO",NA,6,1,NA
"1411",118,"immediate","F1_BR","fact","CO",NA,0,1,NA
"1412",118,"immediate","F2_BR","fact","CO",NA,0,1,NA
"1413",118,"immediate","F3_BR","fact","CO",NA,6,1,NA
"1414",118,"immediate","F4_BR","fact","CO",NA,0,1,NA
"1415",118,"immediate","F5_BR","fact","CO",NA,0,1,NA
"1416",118,"immediate","F6_BR","fact","CO",NA,6,1,NA
"1417",119,"immediate","M1_BR","myth","CO",NA,10,1,NA
"1418",119,"immediate","M2_BR","myth","CO",NA,0,1,NA
"1419",119,"immediate","M3_BR","myth","CO",NA,10,1,NA
"1420",119,"immediate","M4_BR","myth","CO",NA,10,1,NA
"1421",119,"immediate","M5_BR","myth","CO",NA,10,1,NA
"1422",119,"immediate","M6_BR","myth","CO",NA,0,1,NA
"1423",119,"immediate","F1_BR","fact","CO",NA,0,1,NA
"1424",119,"immediate","F2_BR","fact","CO",NA,10,1,NA
"1425",119,"immediate","F3_BR","fact","CO",NA,10,1,NA
"1426",119,"immediate","F4_BR","fact","CO",NA,5,1,NA
"1427",119,"immediate","F5_BR","fact","CO",NA,10,1,NA
"1428",119,"immediate","F6_BR","fact","CO",NA,0,1,NA
"1429",120,"delayed","M1_BR","myth","FCO",NA,9,1,NA
"1430",120,"delayed","M2_BR","myth","FCO",NA,9,1,NA
"1431",120,"delayed","M3_BR","myth","FCO",NA,6,1,NA
"1432",120,"delayed","M4_BR","myth","FCO",NA,8,1,NA
"1433",120,"delayed","M5_BR","myth","FCO",NA,7,1,NA
"1434",120,"delayed","M6_BR","myth","FCO",NA,8,1,NA
"1435",120,"delayed","F1_BR","fact","FCO",NA,0,1,NA
"1436",120,"delayed","F2_BR","fact","FCO",NA,6,1,NA
"1437",120,"delayed","F3_BR","fact","FCO",NA,5,1,NA
"1438",120,"delayed","F4_BR","fact","FCO",NA,1,1,NA
"1439",120,"delayed","F5_BR","fact","FCO",NA,1,1,NA
"1440",120,"delayed","F6_BR","fact","FCO",NA,2,1,NA
"1441",121,"delayed","M1_BR","myth","CO",NA,1,1,NA
"1442",121,"delayed","M2_BR","myth","CO",NA,8,1,NA
"1443",121,"delayed","M3_BR","myth","CO",NA,5,1,NA
"1444",121,"delayed","M4_BR","myth","CO",NA,3,1,NA
"1445",121,"delayed","M5_BR","myth","CO",NA,6,1,NA
"1446",121,"delayed","M6_BR","myth","CO",NA,5,1,NA
"1447",121,"delayed","F1_BR","fact","CO",NA,2,1,NA
"1448",121,"delayed","F2_BR","fact","CO",NA,5,1,NA
"1449",121,"delayed","F3_BR","fact","CO",NA,6,1,NA
"1450",121,"delayed","F4_BR","fact","CO",NA,0,1,NA
"1451",121,"delayed","F5_BR","fact","CO",NA,3,1,NA
"1452",121,"delayed","F6_BR","fact","CO",NA,7,1,NA
"1453",122,"immediate","M1_BR","myth","FCO",NA,0,1,NA
"1454",122,"immediate","M2_BR","myth","FCO",NA,0,1,NA
"1455",122,"immediate","M3_BR","myth","FCO",NA,0,1,NA
"1456",122,"immediate","M4_BR","myth","FCO",NA,0,1,NA
"1457",122,"immediate","M5_BR","myth","FCO",NA,0,1,NA
"1458",122,"immediate","M6_BR","myth","FCO",NA,0,1,NA
"1459",122,"immediate","F1_BR","fact","FCO",NA,0,1,NA
"1460",122,"immediate","F2_BR","fact","FCO",NA,0,1,NA
"1461",122,"immediate","F3_BR","fact","FCO",NA,0,1,NA
"1462",122,"immediate","F4_BR","fact","FCO",NA,0,1,NA
"1463",122,"immediate","F5_BR","fact","FCO",NA,0,1,NA
"1464",122,"immediate","F6_BR","fact","FCO",NA,0,1,NA
"1465",123,"immediate","M1_BR","myth","FCO",NA,0,1,NA
"1466",123,"immediate","M2_BR","myth","FCO",NA,0,1,NA
"1467",123,"immediate","M3_BR","myth","FCO",NA,3,1,NA
"1468",123,"immediate","M4_BR","myth","FCO",NA,0,1,NA
"1469",123,"immediate","M5_BR","myth","FCO",NA,0,1,NA
"1470",123,"immediate","M6_BR","myth","FCO",NA,0,1,NA
"1471",123,"immediate","F1_BR","fact","FCO",NA,10,1,NA
"1472",123,"immediate","F2_BR","fact","FCO",NA,10,1,NA
"1473",123,"immediate","F3_BR","fact","FCO",NA,10,1,NA
"1474",123,"immediate","F4_BR","fact","FCO",NA,10,1,NA
"1475",123,"immediate","F5_BR","fact","FCO",NA,10,1,NA
"1476",123,"immediate","F6_BR","fact","FCO",NA,10,1,NA
"1477",124,"immediate","M1_BR","myth","FCO",NA,0,1,NA
"1478",124,"immediate","M2_BR","myth","FCO",NA,0,1,NA
"1479",124,"immediate","M3_BR","myth","FCO",NA,5,1,NA
"1480",124,"immediate","M4_BR","myth","FCO",NA,1,1,NA
"1481",124,"immediate","M5_BR","myth","FCO",NA,0,1,NA
"1482",124,"immediate","M6_BR","myth","FCO",NA,0,1,NA
"1483",124,"immediate","F1_BR","fact","FCO",NA,0,1,NA
"1484",124,"immediate","F2_BR","fact","FCO",NA,2,1,NA
"1485",124,"immediate","F3_BR","fact","FCO",NA,5,1,NA
"1486",124,"immediate","F4_BR","fact","FCO",NA,0,1,NA
"1487",124,"immediate","F5_BR","fact","FCO",NA,10,1,NA
"1488",124,"immediate","F6_BR","fact","FCO",NA,5,1,NA
"1489",125,"immediate","M1_BR","myth","FCO",NA,3,1,NA
"1490",125,"immediate","M2_BR","myth","FCO",NA,0,1,NA
"1491",125,"immediate","M3_BR","myth","FCO",NA,1,1,NA
"1492",125,"immediate","M4_BR","myth","FCO",NA,1,1,NA
"1493",125,"immediate","M5_BR","myth","FCO",NA,0,1,NA
"1494",125,"immediate","M6_BR","myth","FCO",NA,2,1,NA
"1495",125,"immediate","F1_BR","fact","FCO",NA,0,1,NA
"1496",125,"immediate","F2_BR","fact","FCO",NA,0,1,NA
"1497",125,"immediate","F3_BR","fact","FCO",NA,1,1,NA
"1498",125,"immediate","F4_BR","fact","FCO",NA,5,1,NA
"1499",125,"immediate","F5_BR","fact","FCO",NA,1,1,NA
"1500",125,"immediate","F6_BR","fact","FCO",NA,0,1,NA
"1501",126,"delayed","M1_BR","myth","FCO",NA,2,1,NA
"1502",126,"delayed","M2_BR","myth","FCO",NA,5,1,NA
"1503",126,"delayed","M3_BR","myth","FCO",NA,0,1,NA
"1504",126,"delayed","M4_BR","myth","FCO",NA,2,1,NA
"1505",126,"delayed","M5_BR","myth","FCO",NA,2,1,NA
"1506",126,"delayed","M6_BR","myth","FCO",NA,0,1,NA
"1507",126,"delayed","F1_BR","fact","FCO",NA,5,1,NA
"1508",126,"delayed","F2_BR","fact","FCO",NA,8,1,NA
"1509",126,"delayed","F3_BR","fact","FCO",NA,8,1,NA
"1510",126,"delayed","F4_BR","fact","FCO",NA,2,1,NA
"1511",126,"delayed","F5_BR","fact","FCO",NA,7,1,NA
"1512",126,"delayed","F6_BR","fact","FCO",NA,5,1,NA
"1513",127,"delayed","M1_BR","myth","CO",NA,1,1,NA
"1514",127,"delayed","M2_BR","myth","CO",NA,5,1,NA
"1515",127,"delayed","M3_BR","myth","CO",NA,3,1,NA
"1516",127,"delayed","M4_BR","myth","CO",NA,0,1,NA
"1517",127,"delayed","M5_BR","myth","CO",NA,5,1,NA
"1518",127,"delayed","M6_BR","myth","CO",NA,0,1,NA
"1519",127,"delayed","F1_BR","fact","CO",NA,5,1,NA
"1520",127,"delayed","F2_BR","fact","CO",NA,1,1,NA
"1521",127,"delayed","F3_BR","fact","CO",NA,2,1,NA
"1522",127,"delayed","F4_BR","fact","CO",NA,0,1,NA
"1523",127,"delayed","F5_BR","fact","CO",NA,5,1,NA
"1524",127,"delayed","F6_BR","fact","CO",NA,1,1,NA
"1525",128,"immediate","M1_BR","myth","CO",NA,2,1,NA
"1526",128,"immediate","M2_BR","myth","CO",NA,3,1,NA
"1527",128,"immediate","M3_BR","myth","CO",NA,2,1,NA
"1528",128,"immediate","M4_BR","myth","CO",NA,0,1,NA
"1529",128,"immediate","M5_BR","myth","CO",NA,4,1,NA
"1530",128,"immediate","M6_BR","myth","CO",NA,3,1,NA
"1531",128,"immediate","F1_BR","fact","CO",NA,0,1,NA
"1532",128,"immediate","F2_BR","fact","CO",NA,0,1,NA
"1533",128,"immediate","F3_BR","fact","CO",NA,2,1,NA
"1534",128,"immediate","F4_BR","fact","CO",NA,10,1,NA
"1535",128,"immediate","F5_BR","fact","CO",NA,0,1,NA
"1536",128,"immediate","F6_BR","fact","CO",NA,0,1,NA
"1537",129,"immediate","M1_BR","myth","CO",NA,0,1,NA
"1538",129,"immediate","M2_BR","myth","CO",NA,5,1,NA
"1539",129,"immediate","M3_BR","myth","CO",NA,0,1,NA
"1540",129,"immediate","M4_BR","myth","CO",NA,0,1,NA
"1541",129,"immediate","M5_BR","myth","CO",NA,10,1,NA
"1542",129,"immediate","M6_BR","myth","CO",NA,0,1,NA
"1543",129,"immediate","F1_BR","fact","CO",NA,0,1,NA
"1544",129,"immediate","F2_BR","fact","CO",NA,0,1,NA
"1545",129,"immediate","F3_BR","fact","CO",NA,4,1,NA
"1546",129,"immediate","F4_BR","fact","CO",NA,0,1,NA
"1547",129,"immediate","F5_BR","fact","CO",NA,0,1,NA
"1548",129,"immediate","F6_BR","fact","CO",NA,10,1,NA
"1549",130,"immediate","M1_BR","myth","CFC",NA,0,1,NA
"1550",130,"immediate","M2_BR","myth","CFC",NA,5,1,NA
"1551",130,"immediate","M3_BR","myth","CFC",NA,0,1,NA
"1552",130,"immediate","M4_BR","myth","CFC",NA,5,1,NA
"1553",130,"immediate","M5_BR","myth","CFC",NA,0,1,NA
"1554",130,"immediate","M6_BR","myth","CFC",NA,5,1,NA
"1555",130,"immediate","F1_BR","fact","CFC",NA,0,1,NA
"1556",130,"immediate","F2_BR","fact","CFC",NA,5,1,NA
"1557",130,"immediate","F3_BR","fact","CFC",NA,5,1,NA
"1558",130,"immediate","F4_BR","fact","CFC",NA,0,1,NA
"1559",130,"immediate","F5_BR","fact","CFC",NA,0,1,NA
"1560",130,"immediate","F6_BR","fact","CFC",NA,6,1,NA
"1561",131,"immediate","M1_BR","myth","NE",NA,0,0,NA
"1562",131,"immediate","M2_BR","myth","NE",NA,7,0,NA
"1563",131,"immediate","M3_BR","myth","NE",NA,10,0,NA
"1564",131,"immediate","M4_BR","myth","NE",NA,0,0,NA
"1565",131,"immediate","M5_BR","myth","NE",NA,0,0,NA
"1566",131,"immediate","M6_BR","myth","NE",NA,0,0,NA
"1567",131,"immediate","F1_BR","fact","NE",NA,0,0,NA
"1568",131,"immediate","F2_BR","fact","NE",NA,0,0,NA
"1569",131,"immediate","F3_BR","fact","NE",NA,0,0,NA
"1570",131,"immediate","F4_BR","fact","NE",NA,0,0,NA
"1571",131,"immediate","F5_BR","fact","NE",NA,10,0,NA
"1572",131,"immediate","F6_BR","fact","NE",NA,0,0,NA
"1573",132,"delayed","M1_BR","myth","CFC",NA,1,1,NA
"1574",132,"delayed","M2_BR","myth","CFC",NA,0,1,NA
"1575",132,"delayed","M3_BR","myth","CFC",NA,3,1,NA
"1576",132,"delayed","M4_BR","myth","CFC",NA,0,1,NA
"1577",132,"delayed","M5_BR","myth","CFC",NA,8,1,NA
"1578",132,"delayed","M6_BR","myth","CFC",NA,7,1,NA
"1579",132,"delayed","F1_BR","fact","CFC",NA,5,1,NA
"1580",132,"delayed","F2_BR","fact","CFC",NA,3,1,NA
"1581",132,"delayed","F3_BR","fact","CFC",NA,8,1,NA
"1582",132,"delayed","F4_BR","fact","CFC",NA,8,1,NA
"1583",132,"delayed","F5_BR","fact","CFC",NA,5,1,NA
"1584",132,"delayed","F6_BR","fact","CFC",NA,2,1,NA
"1585",133,"immediate","M1_BR","myth","CFC",NA,5,1,NA
"1586",133,"immediate","M2_BR","myth","CFC",NA,3,1,NA
"1587",133,"immediate","M3_BR","myth","CFC",NA,7,1,NA
"1588",133,"immediate","M4_BR","myth","CFC",NA,2,1,NA
"1589",133,"immediate","M5_BR","myth","CFC",NA,3,1,NA
"1590",133,"immediate","M6_BR","myth","CFC",NA,0,1,NA
"1591",133,"immediate","F1_BR","fact","CFC",NA,8,1,NA
"1592",133,"immediate","F2_BR","fact","CFC",NA,5,1,NA
"1593",133,"immediate","F3_BR","fact","CFC",NA,2,1,NA
"1594",133,"immediate","F4_BR","fact","CFC",NA,5,1,NA
"1595",133,"immediate","F5_BR","fact","CFC",NA,8,1,NA
"1596",133,"immediate","F6_BR","fact","CFC",NA,7,1,NA
"1597",134,"delayed","M1_BR","myth","CFC",NA,8,1,NA
"1598",134,"delayed","M2_BR","myth","CFC",NA,2,1,NA
"1599",134,"delayed","M3_BR","myth","CFC",NA,6,1,NA
"1600",134,"delayed","M4_BR","myth","CFC",NA,1,1,NA
"1601",134,"delayed","M5_BR","myth","CFC",NA,1,1,NA
"1602",134,"delayed","M6_BR","myth","CFC",NA,2,1,NA
"1603",134,"delayed","F1_BR","fact","CFC",NA,0,1,NA
"1604",134,"delayed","F2_BR","fact","CFC",NA,10,1,NA
"1605",134,"delayed","F3_BR","fact","CFC",NA,10,1,NA
"1606",134,"delayed","F4_BR","fact","CFC",NA,5,1,NA
"1607",134,"delayed","F5_BR","fact","CFC",NA,10,1,NA
"1608",134,"delayed","F6_BR","fact","CFC",NA,9,1,NA
"1609",135,"immediate","M1_BR","myth","CO",NA,5,1,NA
"1610",135,"immediate","M2_BR","myth","CO",NA,1,1,NA
"1611",135,"immediate","M3_BR","myth","CO",NA,7,1,NA
"1612",135,"immediate","M4_BR","myth","CO",NA,5,1,NA
"1613",135,"immediate","M5_BR","myth","CO",NA,5,1,NA
"1614",135,"immediate","M6_BR","myth","CO",NA,0,1,NA
"1615",135,"immediate","F1_BR","fact","CO",NA,2,1,NA
"1616",135,"immediate","F2_BR","fact","CO",NA,0,1,NA
"1617",135,"immediate","F3_BR","fact","CO",NA,8,1,NA
"1618",135,"immediate","F4_BR","fact","CO",NA,5,1,NA
"1619",135,"immediate","F5_BR","fact","CO",NA,7,1,NA
"1620",135,"immediate","F6_BR","fact","CO",NA,7,1,NA
"1621",136,"immediate","M1_BR","myth","CO",NA,1,1,NA
"1622",136,"immediate","M2_BR","myth","CO",NA,1,1,NA
"1623",136,"immediate","M3_BR","myth","CO",NA,8,1,NA
"1624",136,"immediate","M4_BR","myth","CO",NA,1,1,NA
"1625",136,"immediate","M5_BR","myth","CO",NA,7,1,NA
"1626",136,"immediate","M6_BR","myth","CO",NA,5,1,NA
"1627",136,"immediate","F1_BR","fact","CO",NA,1,1,NA
"1628",136,"immediate","F2_BR","fact","CO",NA,0,1,NA
"1629",136,"immediate","F3_BR","fact","CO",NA,3,1,NA
"1630",136,"immediate","F4_BR","fact","CO",NA,0,1,NA
"1631",136,"immediate","F5_BR","fact","CO",NA,4,1,NA
"1632",136,"immediate","F6_BR","fact","CO",NA,7,1,NA
"1633",137,"delayed","M1_BR","myth","FCO",NA,7,1,NA
"1634",137,"delayed","M2_BR","myth","FCO",NA,8,1,NA
"1635",137,"delayed","M3_BR","myth","FCO",NA,3,1,NA
"1636",137,"delayed","M4_BR","myth","FCO",NA,2,1,NA
"1637",137,"delayed","M5_BR","myth","FCO",NA,6,1,NA
"1638",137,"delayed","M6_BR","myth","FCO",NA,2,1,NA
"1639",137,"delayed","F1_BR","fact","FCO",NA,7,1,NA
"1640",137,"delayed","F2_BR","fact","FCO",NA,6,1,NA
"1641",137,"delayed","F3_BR","fact","FCO",NA,3,1,NA
"1642",137,"delayed","F4_BR","fact","FCO",NA,0,1,NA
"1643",137,"delayed","F5_BR","fact","FCO",NA,7,1,NA
"1644",137,"delayed","F6_BR","fact","FCO",NA,4,1,NA
"1645",138,"delayed","M1_BR","myth","CO",NA,5,1,NA
"1646",138,"delayed","M2_BR","myth","CO",NA,8,1,NA
"1647",138,"delayed","M3_BR","myth","CO",NA,5,1,NA
"1648",138,"delayed","M4_BR","myth","CO",NA,5,1,NA
"1649",138,"delayed","M5_BR","myth","CO",NA,6,1,NA
"1650",138,"delayed","M6_BR","myth","CO",NA,0,1,NA
"1651",138,"delayed","F1_BR","fact","CO",NA,6,1,NA
"1652",138,"delayed","F2_BR","fact","CO",NA,5,1,NA
"1653",138,"delayed","F3_BR","fact","CO",NA,8,1,NA
"1654",138,"delayed","F4_BR","fact","CO",NA,0,1,NA
"1655",138,"delayed","F5_BR","fact","CO",NA,4,1,NA
"1656",138,"delayed","F6_BR","fact","CO",NA,3,1,NA
"1657",139,"delayed","M1_BR","myth","CO",NA,2,1,NA
"1658",139,"delayed","M2_BR","myth","CO",NA,8,1,NA
"1659",139,"delayed","M3_BR","myth","CO",NA,5,1,NA
"1660",139,"delayed","M4_BR","myth","CO",NA,8,1,NA
"1661",139,"delayed","M5_BR","myth","CO",NA,6,1,NA
"1662",139,"delayed","M6_BR","myth","CO",NA,2,1,NA
"1663",139,"delayed","F1_BR","fact","CO",NA,7,1,NA
"1664",139,"delayed","F2_BR","fact","CO",NA,10,1,NA
"1665",139,"delayed","F3_BR","fact","CO",NA,10,1,NA
"1666",139,"delayed","F4_BR","fact","CO",NA,10,1,NA
"1667",139,"delayed","F5_BR","fact","CO",NA,8,1,NA
"1668",139,"delayed","F6_BR","fact","CO",NA,7,1,NA
"1669",140,"delayed","M1_BR","myth","FCO",NA,5,1,NA
"1670",140,"delayed","M2_BR","myth","FCO",NA,6,1,NA
"1671",140,"delayed","M3_BR","myth","FCO",NA,7,1,NA
"1672",140,"delayed","M4_BR","myth","FCO",NA,5,1,NA
"1673",140,"delayed","M5_BR","myth","FCO",NA,4,1,NA
"1674",140,"delayed","M6_BR","myth","FCO",NA,4,1,NA
"1675",140,"delayed","F1_BR","fact","FCO",NA,4,1,NA
"1676",140,"delayed","F2_BR","fact","FCO",NA,6,1,NA
"1677",140,"delayed","F3_BR","fact","FCO",NA,2,1,NA
"1678",140,"delayed","F4_BR","fact","FCO",NA,5,1,NA
"1679",140,"delayed","F5_BR","fact","FCO",NA,4,1,NA
"1680",140,"delayed","F6_BR","fact","FCO",NA,7,1,NA
"1681",141,"immediate","M1_BR","myth","NE",NA,5,0,NA
"1682",141,"immediate","M2_BR","myth","NE",NA,5,0,NA
"1683",141,"immediate","M3_BR","myth","NE",NA,5,0,NA
"1684",141,"immediate","M4_BR","myth","NE",NA,5,0,NA
"1685",141,"immediate","M5_BR","myth","NE",NA,7,0,NA
"1686",141,"immediate","M6_BR","myth","NE",NA,5,0,NA
"1687",141,"immediate","F1_BR","fact","NE",NA,3,0,NA
"1688",141,"immediate","F2_BR","fact","NE",NA,4,0,NA
"1689",141,"immediate","F3_BR","fact","NE",NA,3,0,NA
"1690",141,"immediate","F4_BR","fact","NE",NA,7,0,NA
"1691",141,"immediate","F5_BR","fact","NE",NA,5,0,NA
"1692",141,"immediate","F6_BR","fact","NE",NA,7,0,NA
"1693",142,"delayed","M1_BR","myth","CO",NA,5,1,NA
"1694",142,"delayed","M2_BR","myth","CO",NA,6,1,NA
"1695",142,"delayed","M3_BR","myth","CO",NA,6,1,NA
"1696",142,"delayed","M4_BR","myth","CO",NA,3,1,NA
"1697",142,"delayed","M5_BR","myth","CO",NA,7,1,NA
"1698",142,"delayed","M6_BR","myth","CO",NA,8,1,NA
"1699",142,"delayed","F1_BR","fact","CO",NA,0,1,NA
"1700",142,"delayed","F2_BR","fact","CO",NA,3,1,NA
"1701",142,"delayed","F3_BR","fact","CO",NA,2,1,NA
"1702",142,"delayed","F4_BR","fact","CO",NA,2,1,NA
"1703",142,"delayed","F5_BR","fact","CO",NA,7,1,NA
"1704",142,"delayed","F6_BR","fact","CO",NA,6,1,NA
"1705",143,"delayed","M1_BR","myth","CFC",NA,8,1,NA
"1706",143,"delayed","M2_BR","myth","CFC",NA,8,1,NA
"1707",143,"delayed","M3_BR","myth","CFC",NA,5,1,NA
"1708",143,"delayed","M4_BR","myth","CFC",NA,2,1,NA
"1709",143,"delayed","M5_BR","myth","CFC",NA,5,1,NA
"1710",143,"delayed","M6_BR","myth","CFC",NA,9,1,NA
"1711",143,"delayed","F1_BR","fact","CFC",NA,8,1,NA
"1712",143,"delayed","F2_BR","fact","CFC",NA,2,1,NA
"1713",143,"delayed","F3_BR","fact","CFC",NA,5,1,NA
"1714",143,"delayed","F4_BR","fact","CFC",NA,0,1,NA
"1715",143,"delayed","F5_BR","fact","CFC",NA,6,1,NA
"1716",143,"delayed","F6_BR","fact","CFC",NA,1,1,NA
"1717",144,"delayed","M1_BR","myth","CO",NA,10,1,NA
"1718",144,"delayed","M2_BR","myth","CO",NA,4,1,NA
"1719",144,"delayed","M3_BR","myth","CO",NA,8,1,NA
"1720",144,"delayed","M4_BR","myth","CO",NA,10,1,NA
"1721",144,"delayed","M5_BR","myth","CO",NA,10,1,NA
"1722",144,"delayed","M6_BR","myth","CO",NA,10,1,NA
"1723",144,"delayed","F1_BR","fact","CO",NA,10,1,NA
"1724",144,"delayed","F2_BR","fact","CO",NA,9,1,NA
"1725",144,"delayed","F3_BR","fact","CO",NA,7,1,NA
"1726",144,"delayed","F4_BR","fact","CO",NA,5,1,NA
"1727",144,"delayed","F5_BR","fact","CO",NA,8,1,NA
"1728",144,"delayed","F6_BR","fact","CO",NA,8,1,NA
"1729",145,"delayed","M1_BR","myth","CO",NA,7,1,NA
"1730",145,"delayed","M2_BR","myth","CO",NA,5,1,NA
"1731",145,"delayed","M3_BR","myth","CO",NA,7,1,NA
"1732",145,"delayed","M4_BR","myth","CO",NA,6,1,NA
"1733",145,"delayed","M5_BR","myth","CO",NA,8,1,NA
"1734",145,"delayed","M6_BR","myth","CO",NA,5,1,NA
"1735",145,"delayed","F1_BR","fact","CO",NA,3,1,NA
"1736",145,"delayed","F2_BR","fact","CO",NA,7,1,NA
"1737",145,"delayed","F3_BR","fact","CO",NA,7,1,NA
"1738",145,"delayed","F4_BR","fact","CO",NA,3,1,NA
"1739",145,"delayed","F5_BR","fact","CO",NA,8,1,NA
"1740",145,"delayed","F6_BR","fact","CO",NA,3,1,NA
"1741",146,"immediate","M1_BR","myth","FCO",NA,0,1,NA
"1742",146,"immediate","M2_BR","myth","FCO",NA,0,1,NA
"1743",146,"immediate","M3_BR","myth","FCO",NA,0,1,NA
"1744",146,"immediate","M4_BR","myth","FCO",NA,0,1,NA
"1745",146,"immediate","M5_BR","myth","FCO",NA,0,1,NA
"1746",146,"immediate","M6_BR","myth","FCO",NA,0,1,NA
"1747",146,"immediate","F1_BR","fact","FCO",NA,10,1,NA
"1748",146,"immediate","F2_BR","fact","FCO",NA,10,1,NA
"1749",146,"immediate","F3_BR","fact","FCO",NA,10,1,NA
"1750",146,"immediate","F4_BR","fact","FCO",NA,10,1,NA
"1751",146,"immediate","F5_BR","fact","FCO",NA,10,1,NA
"1752",146,"immediate","F6_BR","fact","FCO",NA,0,1,NA
"1753",147,"delayed","M1_BR","myth","FCO",NA,3,1,NA
"1754",147,"delayed","M2_BR","myth","FCO",NA,0,1,NA
"1755",147,"delayed","M3_BR","myth","FCO",NA,2,1,NA
"1756",147,"delayed","M4_BR","myth","FCO",NA,1,1,NA
"1757",147,"delayed","M5_BR","myth","FCO",NA,3,1,NA
"1758",147,"delayed","M6_BR","myth","FCO",NA,0,1,NA
"1759",147,"delayed","F1_BR","fact","FCO",NA,3,1,NA
"1760",147,"delayed","F2_BR","fact","FCO",NA,5,1,NA
"1761",147,"delayed","F3_BR","fact","FCO",NA,0,1,NA
"1762",147,"delayed","F4_BR","fact","FCO",NA,0,1,NA
"1763",147,"delayed","F5_BR","fact","FCO",NA,1,1,NA
"1764",147,"delayed","F6_BR","fact","FCO",NA,2,1,NA
"1765",148,"immediate","M1_BR","myth","CFC",NA,0,1,NA
"1766",148,"immediate","M2_BR","myth","CFC",NA,0,1,NA
"1767",148,"immediate","M3_BR","myth","CFC",NA,0,1,NA
"1768",148,"immediate","M4_BR","myth","CFC",NA,0,1,NA
"1769",148,"immediate","M5_BR","myth","CFC",NA,10,1,NA
"1770",148,"immediate","M6_BR","myth","CFC",NA,0,1,NA
"1771",148,"immediate","F1_BR","fact","CFC",NA,10,1,NA
"1772",148,"immediate","F2_BR","fact","CFC",NA,10,1,NA
"1773",148,"immediate","F3_BR","fact","CFC",NA,10,1,NA
"1774",148,"immediate","F4_BR","fact","CFC",NA,10,1,NA
"1775",148,"immediate","F5_BR","fact","CFC",NA,10,1,NA
"1776",148,"immediate","F6_BR","fact","CFC",NA,10,1,NA
"1777",149,"delayed","M1_BR","myth","CFC",NA,0,1,NA
"1778",149,"delayed","M2_BR","myth","CFC",NA,7,1,NA
"1779",149,"delayed","M3_BR","myth","CFC",NA,2,1,NA
"1780",149,"delayed","M4_BR","myth","CFC",NA,2,1,NA
"1781",149,"delayed","M5_BR","myth","CFC",NA,2,1,NA
"1782",149,"delayed","M6_BR","myth","CFC",NA,5,1,NA
"1783",149,"delayed","F1_BR","fact","CFC",NA,5,1,NA
"1784",149,"delayed","F2_BR","fact","CFC",NA,0,1,NA
"1785",149,"delayed","F3_BR","fact","CFC",NA,0,1,NA
"1786",149,"delayed","F4_BR","fact","CFC",NA,5,1,NA
"1787",149,"delayed","F5_BR","fact","CFC",NA,5,1,NA
"1788",149,"delayed","F6_BR","fact","CFC",NA,3,1,NA
"1789",150,"immediate","M1_BR","myth","FCO",NA,1,1,NA
"1790",150,"immediate","M2_BR","myth","FCO",NA,3,1,NA
"1791",150,"immediate","M3_BR","myth","FCO",NA,4,1,NA
"1792",150,"immediate","M4_BR","myth","FCO",NA,0,1,NA
"1793",150,"immediate","M5_BR","myth","FCO",NA,1,1,NA
"1794",150,"immediate","M6_BR","myth","FCO",NA,9,1,NA
"1795",150,"immediate","F1_BR","fact","FCO",NA,4,1,NA
"1796",150,"immediate","F2_BR","fact","FCO",NA,7,1,NA
"1797",150,"immediate","F3_BR","fact","FCO",NA,9,1,NA
"1798",150,"immediate","F4_BR","fact","FCO",NA,2,1,NA
"1799",150,"immediate","F5_BR","fact","FCO",NA,8,1,NA
"1800",150,"immediate","F6_BR","fact","FCO",NA,6,1,NA
"1801",151,"immediate","M1_BR","myth","CO",NA,2,1,NA
"1802",151,"immediate","M2_BR","myth","CO",NA,3,1,NA
"1803",151,"immediate","M3_BR","myth","CO",NA,2,1,NA
"1804",151,"immediate","M4_BR","myth","CO",NA,0,1,NA
"1805",151,"immediate","M5_BR","myth","CO",NA,8,1,NA
"1806",151,"immediate","M6_BR","myth","CO",NA,7,1,NA
"1807",151,"immediate","F1_BR","fact","CO",NA,0,1,NA
"1808",151,"immediate","F2_BR","fact","CO",NA,0,1,NA
"1809",151,"immediate","F3_BR","fact","CO",NA,8,1,NA
"1810",151,"immediate","F4_BR","fact","CO",NA,1,1,NA
"1811",151,"immediate","F5_BR","fact","CO",NA,3,1,NA
"1812",151,"immediate","F6_BR","fact","CO",NA,2,1,NA
"1813",152,"delayed","M1_BR","myth","CO",NA,2,1,NA
"1814",152,"delayed","M2_BR","myth","CO",NA,3,1,NA
"1815",152,"delayed","M3_BR","myth","CO",NA,4,1,NA
"1816",152,"delayed","M4_BR","myth","CO",NA,3,1,NA
"1817",152,"delayed","M5_BR","myth","CO",NA,6,1,NA
"1818",152,"delayed","M6_BR","myth","CO",NA,5,1,NA
"1819",152,"delayed","F1_BR","fact","CO",NA,0,1,NA
"1820",152,"delayed","F2_BR","fact","CO",NA,4,1,NA
"1821",152,"delayed","F3_BR","fact","CO",NA,3,1,NA
"1822",152,"delayed","F4_BR","fact","CO",NA,6,1,NA
"1823",152,"delayed","F5_BR","fact","CO",NA,0,1,NA
"1824",152,"delayed","F6_BR","fact","CO",NA,1,1,NA
"1825",153,"delayed","M1_BR","myth","FCO",NA,2,1,NA
"1826",153,"delayed","M2_BR","myth","FCO",NA,5,1,NA
"1827",153,"delayed","M3_BR","myth","FCO",NA,1,1,NA
"1828",153,"delayed","M4_BR","myth","FCO",NA,7,1,NA
"1829",153,"delayed","M5_BR","myth","FCO",NA,1,1,NA
"1830",153,"delayed","M6_BR","myth","FCO",NA,10,1,NA
"1831",153,"delayed","F1_BR","fact","FCO",NA,1,1,NA
"1832",153,"delayed","F2_BR","fact","FCO",NA,1,1,NA
"1833",153,"delayed","F3_BR","fact","FCO",NA,9,1,NA
"1834",153,"delayed","F4_BR","fact","FCO",NA,9,1,NA
"1835",153,"delayed","F5_BR","fact","FCO",NA,5,1,NA
"1836",153,"delayed","F6_BR","fact","FCO",NA,2,1,NA
"1837",154,"delayed","M1_BR","myth","CO",NA,0,1,NA
"1838",154,"delayed","M2_BR","myth","CO",NA,5,1,NA
"1839",154,"delayed","M3_BR","myth","CO",NA,2,1,NA
"1840",154,"delayed","M4_BR","myth","CO",NA,6,1,NA
"1841",154,"delayed","M5_BR","myth","CO",NA,6,1,NA
"1842",154,"delayed","M6_BR","myth","CO",NA,8,1,NA
"1843",154,"delayed","F1_BR","fact","CO",NA,3,1,NA
"1844",154,"delayed","F2_BR","fact","CO",NA,2,1,NA
"1845",154,"delayed","F3_BR","fact","CO",NA,5,1,NA
"1846",154,"delayed","F4_BR","fact","CO",NA,6,1,NA
"1847",154,"delayed","F5_BR","fact","CO",NA,6,1,NA
"1848",154,"delayed","F6_BR","fact","CO",NA,3,1,NA
"1849",155,"immediate","M1_BR","myth","NE",NA,10,0,NA
"1850",155,"immediate","M2_BR","myth","NE",NA,8,0,NA
"1851",155,"immediate","M3_BR","myth","NE",NA,7,0,NA
"1852",155,"immediate","M4_BR","myth","NE",NA,9,0,NA
"1853",155,"immediate","M5_BR","myth","NE",NA,7,0,NA
"1854",155,"immediate","M6_BR","myth","NE",NA,8,0,NA
"1855",155,"immediate","F1_BR","fact","NE",NA,2,0,NA
"1856",155,"immediate","F2_BR","fact","NE",NA,5,0,NA
"1857",155,"immediate","F3_BR","fact","NE",NA,10,0,NA
"1858",155,"immediate","F4_BR","fact","NE",NA,1,0,NA
"1859",155,"immediate","F5_BR","fact","NE",NA,9,0,NA
"1860",155,"immediate","F6_BR","fact","NE",NA,8,0,NA
"1861",156,"delayed","M1_BR","myth","CFC",NA,3,1,NA
"1862",156,"delayed","M2_BR","myth","CFC",NA,7,1,NA
"1863",156,"delayed","M3_BR","myth","CFC",NA,10,1,NA
"1864",156,"delayed","M4_BR","myth","CFC",NA,10,1,NA
"1865",156,"delayed","M5_BR","myth","CFC",NA,10,1,NA
"1866",156,"delayed","M6_BR","myth","CFC",NA,10,1,NA
"1867",156,"delayed","F1_BR","fact","CFC",NA,7,1,NA
"1868",156,"delayed","F2_BR","fact","CFC",NA,4,1,NA
"1869",156,"delayed","F3_BR","fact","CFC",NA,10,1,NA
"1870",156,"delayed","F4_BR","fact","CFC",NA,7,1,NA
"1871",156,"delayed","F5_BR","fact","CFC",NA,10,1,NA
"1872",156,"delayed","F6_BR","fact","CFC",NA,10,1,NA
"1873",157,"immediate","M1_BR","myth","CFC",NA,0,1,NA
"1874",157,"immediate","M2_BR","myth","CFC",NA,0,1,NA
"1875",157,"immediate","M3_BR","myth","CFC",NA,0,1,NA
"1876",157,"immediate","M4_BR","myth","CFC",NA,0,1,NA
"1877",157,"immediate","M5_BR","myth","CFC",NA,0,1,NA
"1878",157,"immediate","M6_BR","myth","CFC",NA,0,1,NA
"1879",157,"immediate","F1_BR","fact","CFC",NA,10,1,NA
"1880",157,"immediate","F2_BR","fact","CFC",NA,10,1,NA
"1881",157,"immediate","F3_BR","fact","CFC",NA,10,1,NA
"1882",157,"immediate","F4_BR","fact","CFC",NA,10,1,NA
"1883",157,"immediate","F5_BR","fact","CFC",NA,10,1,NA
"1884",157,"immediate","F6_BR","fact","CFC",NA,10,1,NA
"1885",158,"immediate","M1_BR","myth","CFC",NA,0,1,NA
"1886",158,"immediate","M2_BR","myth","CFC",NA,0,1,NA
"1887",158,"immediate","M3_BR","myth","CFC",NA,0,1,NA
"1888",158,"immediate","M4_BR","myth","CFC",NA,1,1,NA
"1889",158,"immediate","M5_BR","myth","CFC",NA,0,1,NA
"1890",158,"immediate","M6_BR","myth","CFC",NA,0,1,NA
"1891",158,"immediate","F1_BR","fact","CFC",NA,10,1,NA
"1892",158,"immediate","F2_BR","fact","CFC",NA,10,1,NA
"1893",158,"immediate","F3_BR","fact","CFC",NA,10,1,NA
"1894",158,"immediate","F4_BR","fact","CFC",NA,10,1,NA
"1895",158,"immediate","F5_BR","fact","CFC",NA,10,1,NA
"1896",158,"immediate","F6_BR","fact","CFC",NA,10,1,NA
"1897",159,"immediate","M1_BR","myth","CO",NA,2,1,NA
"1898",159,"immediate","M2_BR","myth","CO",NA,2,1,NA
"1899",159,"immediate","M3_BR","myth","CO",NA,0,1,NA
"1900",159,"immediate","M4_BR","myth","CO",NA,0,1,NA
"1901",159,"immediate","M5_BR","myth","CO",NA,3,1,NA
"1902",159,"immediate","M6_BR","myth","CO",NA,2,1,NA
"1903",159,"immediate","F1_BR","fact","CO",NA,0,1,NA
"1904",159,"immediate","F2_BR","fact","CO",NA,0,1,NA
"1905",159,"immediate","F3_BR","fact","CO",NA,3,1,NA
"1906",159,"immediate","F4_BR","fact","CO",NA,0,1,NA
"1907",159,"immediate","F5_BR","fact","CO",NA,1,1,NA
"1908",159,"immediate","F6_BR","fact","CO",NA,0,1,NA
"1909",160,"immediate","M1_BR","myth","FCO",NA,0,1,NA
"1910",160,"immediate","M2_BR","myth","FCO",NA,0,1,NA
"1911",160,"immediate","M3_BR","myth","FCO",NA,0,1,NA
"1912",160,"immediate","M4_BR","myth","FCO",NA,5,1,NA
"1913",160,"immediate","M5_BR","myth","FCO",NA,10,1,NA
"1914",160,"immediate","M6_BR","myth","FCO",NA,0,1,NA
"1915",160,"immediate","F1_BR","fact","FCO",NA,0,1,NA
"1916",160,"immediate","F2_BR","fact","FCO",NA,0,1,NA
"1917",160,"immediate","F3_BR","fact","FCO",NA,5,1,NA
"1918",160,"immediate","F4_BR","fact","FCO",NA,7,1,NA
"1919",160,"immediate","F5_BR","fact","FCO",NA,0,1,NA
"1920",160,"immediate","F6_BR","fact","FCO",NA,0,1,NA
"1921",161,"immediate","M1_BR","myth","FCO",NA,0,1,NA
"1922",161,"immediate","M2_BR","myth","FCO",NA,0,1,NA
"1923",161,"immediate","M3_BR","myth","FCO",NA,0,1,NA
"1924",161,"immediate","M4_BR","myth","FCO",NA,5,1,NA
"1925",161,"immediate","M5_BR","myth","FCO",NA,7,1,NA
"1926",161,"immediate","M6_BR","myth","FCO",NA,7,1,NA
"1927",161,"immediate","F1_BR","fact","FCO",NA,5,1,NA
"1928",161,"immediate","F2_BR","fact","FCO",NA,10,1,NA
"1929",161,"immediate","F3_BR","fact","FCO",NA,7,1,NA
"1930",161,"immediate","F4_BR","fact","FCO",NA,9,1,NA
"1931",161,"immediate","F5_BR","fact","FCO",NA,7,1,NA
"1932",161,"immediate","F6_BR","fact","FCO",NA,8,1,NA
"1933",162,"delayed","M1_BR","myth","CFC",NA,3,1,NA
"1934",162,"delayed","M2_BR","myth","CFC",NA,0,1,NA
"1935",162,"delayed","M3_BR","myth","CFC",NA,2,1,NA
"1936",162,"delayed","M4_BR","myth","CFC",NA,5,1,NA
"1937",162,"delayed","M5_BR","myth","CFC",NA,7,1,NA
"1938",162,"delayed","M6_BR","myth","CFC",NA,3,1,NA
