"","subject","procedure_identifier","statement_identifier","within_identifier","between_identifier","rt","response","repeated","trial"
"1",1,1,"M1_BR","myth","FCO",NA,0,1,NA
"2",1,1,"M2_BR","myth","FCO",NA,3,1,NA
"3",1,1,"M3_BR","myth","FCO",NA,0,1,NA
"4",1,1,"M4_BR","myth","FCO",NA,0,1,NA
"5",1,1,"M5_BR","myth","FCO",NA,0,1,NA
"6",1,1,"M6_BR","myth","FCO",NA,0,1,NA
"7",1,1,"F1_BR","fact","FCO",NA,0,1,NA
"8",1,1,"F2_BR","fact","FCO",NA,0,1,NA
"9",1,1,"F3_BR","fact","FCO",NA,0,1,NA
"10",1,1,"F4_BR","fact","FCO",NA,10,1,NA
"11",1,1,"F5_BR","fact","FCO",NA,0,1,NA
"12",1,1,"F6_BR","fact","FCO",NA,0,1,NA
"13",2,1,"M1_BR","myth","NE",NA,1,0,NA
"14",2,1,"M2_BR","myth","NE",NA,1,0,NA
"15",2,1,"M3_BR","myth","NE",NA,2,0,NA
"16",2,1,"M4_BR","myth","NE",NA,1,0,NA
"17",2,1,"M5_BR","myth","NE",NA,0,0,NA
"18",2,1,"M6_BR","myth","NE",NA,9,0,NA
"19",2,1,"F1_BR","fact","NE",NA,9,0,NA
"20",2,1,"F2_BR","fact","NE",NA,1,0,NA
"21",2,1,"F3_BR","fact","NE",NA,1,0,NA
"22",2,1,"F4_BR","fact","NE",NA,0,0,NA
"23",2,1,"F5_BR","fact","NE",NA,0,0,NA
"24",2,1,"F6_BR","fact","NE",NA,1,0,NA
"25",3,1,"M1_BR","myth","FCO",NA,7,1,NA
"26",3,1,"M2_BR","myth","FCO",NA,0,1,NA
"27",3,1,"M3_BR","myth","FCO",NA,9,1,NA
"28",3,1,"M4_BR","myth","FCO",NA,5,1,NA
"29",3,1,"M5_BR","myth","FCO",NA,8,1,NA
"30",3,1,"M6_BR","myth","FCO",NA,2,1,NA
"31",3,1,"F1_BR","fact","FCO",NA,0,1,NA
"32",3,1,"F2_BR","fact","FCO",NA,10,1,NA
"33",3,1,"F3_BR","fact","FCO",NA,1,1,NA
"34",3,1,"F4_BR","fact","FCO",NA,10,1,NA
"35",3,1,"F5_BR","fact","FCO",NA,10,1,NA
"36",3,1,"F6_BR","fact","FCO",NA,3,1,NA
"37",4,1,"M1_BR","myth","CFC",NA,0,1,NA
"38",4,1,"M2_BR","myth","CFC",NA,0,1,NA
"39",4,1,"M3_BR","myth","CFC",NA,0,1,NA
"40",4,1,"M4_BR","myth","CFC",NA,0,1,NA
"41",4,1,"M5_BR","myth","CFC",NA,5,1,NA
"42",4,1,"M6_BR","myth","CFC",NA,10,1,NA
"43",4,1,"F1_BR","fact","CFC",NA,0,1,NA
"44",4,1,"F2_BR","fact","CFC",NA,10,1,NA
"45",4,1,"F3_BR","fact","CFC",NA,0,1,NA
"46",4,1,"F4_BR","fact","CFC",NA,10,1,NA
"47",4,1,"F5_BR","fact","CFC",NA,0,1,NA
"48",4,1,"F6_BR","fact","CFC",NA,0,1,NA
"49",5,1,"M1_BR","myth","CFC",NA,0,1,NA
"50",5,1,"M2_BR","myth","CFC",NA,10,1,NA
"51",5,1,"M3_BR","myth","CFC",NA,10,1,NA
"52",5,1,"M4_BR","myth","CFC",NA,1,1,NA
"53",5,1,"M5_BR","myth","CFC",NA,0,1,NA
"54",5,1,"M6_BR","myth","CFC",NA,8,1,NA
"55",5,1,"F1_BR","fact","CFC",NA,10,1,NA
"56",5,1,"F2_BR","fact","CFC",NA,10,1,NA
"57",5,1,"F3_BR","fact","CFC",NA,10,1,NA
"58",5,1,"F4_BR","fact","CFC",NA,10,1,NA
"59",5,1,"F5_BR","fact","CFC",NA,10,1,NA
"60",5,1,"F6_BR","fact","CFC",NA,0,1,NA
"61",6,1,"M1_BR","myth","FCO",NA,0,1,NA
"62",6,1,"M2_BR","myth","FCO",NA,9,1,NA
"63",6,1,"M3_BR","myth","FCO",NA,1,1,NA
"64",6,1,"M4_BR","myth","FCO",NA,1,1,NA
"65",6,1,"M5_BR","myth","FCO",NA,0,1,NA
"66",6,1,"M6_BR","myth","FCO",NA,10,1,NA
"67",6,1,"F1_BR","fact","FCO",NA,10,1,NA
"68",6,1,"F2_BR","fact","FCO",NA,1,1,NA
"69",6,1,"F3_BR","fact","FCO",NA,10,1,NA
"70",6,1,"F4_BR","fact","FCO",NA,0,1,NA
"71",6,1,"F5_BR","fact","FCO",NA,1,1,NA
"72",6,1,"F6_BR","fact","FCO",NA,0,1,NA
"73",7,1,"M1_BR","myth","CFC",NA,8,1,NA
"74",7,1,"M2_BR","myth","CFC",NA,8,1,NA
"75",7,1,"M3_BR","myth","CFC",NA,7,1,NA
"76",7,1,"M4_BR","myth","CFC",NA,8,1,NA
"77",7,1,"M5_BR","myth","CFC",NA,9,1,NA
"78",7,1,"M6_BR","myth","CFC",NA,8,1,NA
"79",7,1,"F1_BR","fact","CFC",NA,8,1,NA
"80",7,1,"F2_BR","fact","CFC",NA,9,1,NA
"81",7,1,"F3_BR","fact","CFC",NA,7,1,NA
"82",7,1,"F4_BR","fact","CFC",NA,9,1,NA
"83",7,1,"F5_BR","fact","CFC",NA,8,1,NA
"84",7,1,"F6_BR","fact","CFC",NA,7,1,NA
"85",8,1,"M1_BR","myth","CFC",NA,0,1,NA
"86",8,1,"M2_BR","myth","CFC",NA,10,1,NA
"87",8,1,"M3_BR","myth","CFC",NA,0,1,NA
"88",8,1,"M4_BR","myth","CFC",NA,10,1,NA
"89",8,1,"M5_BR","myth","CFC",NA,0,1,NA
"90",8,1,"M6_BR","myth","CFC",NA,5,1,NA
"91",8,1,"F1_BR","fact","CFC",NA,10,1,NA
"92",8,1,"F2_BR","fact","CFC",NA,0,1,NA
"93",8,1,"F3_BR","fact","CFC",NA,10,1,NA
"94",8,1,"F4_BR","fact","CFC",NA,10,1,NA
"95",8,1,"F5_BR","fact","CFC",NA,10,1,NA
"96",8,1,"F6_BR","fact","CFC",NA,10,1,NA
"97",9,1,"M1_BR","myth","FCO",NA,1,1,NA
"98",9,1,"M2_BR","myth","FCO",NA,1,1,NA
"99",9,1,"M3_BR","myth","FCO",NA,1,1,NA
"100",9,1,"M4_BR","myth","FCO",NA,6,1,NA
"101",9,1,"M5_BR","myth","FCO",NA,0,1,NA
"102",9,1,"M6_BR","myth","FCO",NA,1,1,NA
"103",9,1,"F1_BR","fact","FCO",NA,4,1,NA
"104",9,1,"F2_BR","fact","FCO",NA,0,1,NA
"105",9,1,"F3_BR","fact","FCO",NA,3,1,NA
"106",9,1,"F4_BR","fact","FCO",NA,0,1,NA
"107",9,1,"F5_BR","fact","FCO",NA,4,1,NA
"108",9,1,"F6_BR","fact","FCO",NA,0,1,NA
"109",10,1,"M1_BR","myth","CFC",NA,0,1,NA
"110",10,1,"M2_BR","myth","CFC",NA,7,1,NA
"111",10,1,"M3_BR","myth","CFC",NA,0,1,NA
"112",10,1,"M4_BR","myth","CFC",NA,0,1,NA
"113",10,1,"M5_BR","myth","CFC",NA,10,1,NA
"114",10,1,"M6_BR","myth","CFC",NA,0,1,NA
"115",10,1,"F1_BR","fact","CFC",NA,10,1,NA
"116",10,1,"F2_BR","fact","CFC",NA,0,1,NA
"117",10,1,"F3_BR","fact","CFC",NA,10,1,NA
"118",10,1,"F4_BR","fact","CFC",NA,0,1,NA
"119",10,1,"F5_BR","fact","CFC",NA,10,1,NA
"120",10,1,"F6_BR","fact","CFC",NA,0,1,NA
"121",11,1,"M1_BR","myth","CFC",NA,2,1,NA
"122",11,1,"M2_BR","myth","CFC",NA,2,1,NA
"123",11,1,"M3_BR","myth","CFC",NA,3,1,NA
"124",11,1,"M4_BR","myth","CFC",NA,4,1,NA
"125",11,1,"M5_BR","myth","CFC",NA,2,1,NA
"126",11,1,"M6_BR","myth","CFC",NA,7,1,NA
"127",11,1,"F1_BR","fact","CFC",NA,8,1,NA
"128",11,1,"F2_BR","fact","CFC",NA,3,1,NA
"129",11,1,"F3_BR","fact","CFC",NA,5,1,NA
"130",11,1,"F4_BR","fact","CFC",NA,8,1,NA
"131",11,1,"F5_BR","fact","CFC",NA,8,1,NA
"132",11,1,"F6_BR","fact","CFC",NA,1,1,NA
"133",12,1,"M1_BR","myth","CFC",NA,2,1,NA
"134",12,1,"M2_BR","myth","CFC",NA,3,1,NA
"135",12,1,"M3_BR","myth","CFC",NA,4,1,NA
"136",12,1,"M4_BR","myth","CFC",NA,0,1,NA
"137",12,1,"M5_BR","myth","CFC",NA,8,1,NA
"138",12,1,"M6_BR","myth","CFC",NA,0,1,NA
"139",12,1,"F1_BR","fact","CFC",NA,0,1,NA
"140",12,1,"F2_BR","fact","CFC",NA,8,1,NA
"141",12,1,"F3_BR","fact","CFC",NA,2,1,NA
"142",12,1,"F4_BR","fact","CFC",NA,0,1,NA
"143",12,1,"F5_BR","fact","CFC",NA,2,1,NA
"144",12,1,"F6_BR","fact","CFC",NA,3,1,NA
"145",13,1,"M1_BR","myth","NE",NA,0,0,NA
"146",13,1,"M2_BR","myth","NE",NA,0,0,NA
"147",13,1,"M3_BR","myth","NE",NA,0,0,NA
"148",13,1,"M4_BR","myth","NE",NA,0,0,NA
"149",13,1,"M5_BR","myth","NE",NA,0,0,NA
"150",13,1,"M6_BR","myth","NE",NA,0,0,NA
"151",13,1,"F1_BR","fact","NE",NA,0,0,NA
"152",13,1,"F2_BR","fact","NE",NA,0,0,NA
"153",13,1,"F3_BR","fact","NE",NA,0,0,NA
"154",13,1,"F4_BR","fact","NE",NA,0,0,NA
"155",13,1,"F5_BR","fact","NE",NA,0,0,NA
"156",13,1,"F6_BR","fact","NE",NA,7,0,NA
"157",14,1,"M1_BR","myth","FCO",NA,2,1,NA
"158",14,1,"M2_BR","myth","FCO",NA,3,1,NA
"159",14,1,"M3_BR","myth","FCO",NA,7,1,NA
"160",14,1,"M4_BR","myth","FCO",NA,0,1,NA
"161",14,1,"M5_BR","myth","FCO",NA,6,1,NA
"162",14,1,"M6_BR","myth","FCO",NA,0,1,NA
"163",14,1,"F1_BR","fact","FCO",NA,2,1,NA
"164",14,1,"F2_BR","fact","FCO",NA,0,1,NA
"165",14,1,"F3_BR","fact","FCO",NA,10,1,NA
"166",14,1,"F4_BR","fact","FCO",NA,0,1,NA
"167",14,1,"F5_BR","fact","FCO",NA,8,1,NA
"168",14,1,"F6_BR","fact","FCO",NA,1,1,NA
"169",15,1,"M1_BR","myth","CFC",NA,7,1,NA
"170",15,1,"M2_BR","myth","CFC",NA,7,1,NA
"171",15,1,"M3_BR","myth","CFC",NA,5,1,NA
"172",15,1,"M4_BR","myth","CFC",NA,9,1,NA
"173",15,1,"M5_BR","myth","CFC",NA,9,1,NA
"174",15,1,"M6_BR","myth","CFC",NA,7,1,NA
"175",15,1,"F1_BR","fact","CFC",NA,6,1,NA
"176",15,1,"F2_BR","fact","CFC",NA,7,1,NA
"177",15,1,"F3_BR","fact","CFC",NA,8,1,NA
"178",15,1,"F4_BR","fact","CFC",NA,8,1,NA
"179",15,1,"F5_BR","fact","CFC",NA,6,1,NA
"180",15,1,"F6_BR","fact","CFC",NA,8,1,NA
"181",16,1,"M1_BR","myth","FCO",NA,0,1,NA
"182",16,1,"M2_BR","myth","FCO",NA,0,1,NA
"183",16,1,"M3_BR","myth","FCO",NA,5,1,NA
"184",16,1,"M4_BR","myth","FCO",NA,0,1,NA
"185",16,1,"M5_BR","myth","FCO",NA,0,1,NA
"186",16,1,"M6_BR","myth","FCO",NA,3,1,NA
"187",16,1,"F1_BR","fact","FCO",NA,0,1,NA
"188",16,1,"F2_BR","fact","FCO",NA,8,1,NA
"189",16,1,"F3_BR","fact","FCO",NA,7,1,NA
"190",16,1,"F4_BR","fact","FCO",NA,6,1,NA
"191",16,1,"F5_BR","fact","FCO",NA,1,1,NA
"192",16,1,"F6_BR","fact","FCO",NA,3,1,NA
"193",17,1,"M1_BR","myth","CO",NA,0,1,NA
"194",17,1,"M2_BR","myth","CO",NA,5,1,NA
"195",17,1,"M3_BR","myth","CO",NA,3,1,NA
"196",17,1,"M4_BR","myth","CO",NA,0,1,NA
"197",17,1,"M5_BR","myth","CO",NA,7,1,NA
"198",17,1,"M6_BR","myth","CO",NA,9,1,NA
"199",17,1,"F1_BR","fact","CO",NA,0,1,NA
"200",17,1,"F2_BR","fact","CO",NA,0,1,NA
"201",17,1,"F3_BR","fact","CO",NA,5,1,NA
"202",17,1,"F4_BR","fact","CO",NA,0,1,NA
"203",17,1,"F5_BR","fact","CO",NA,0,1,NA
"204",17,1,"F6_BR","fact","CO",NA,0,1,NA
"205",18,1,"M1_BR","myth","CFC",NA,7,1,NA
"206",18,1,"M2_BR","myth","CFC",NA,10,1,NA
"207",18,1,"M3_BR","myth","CFC",NA,7,1,NA
"208",18,1,"M4_BR","myth","CFC",NA,7,1,NA
"209",18,1,"M5_BR","myth","CFC",NA,4,1,NA
"210",18,1,"M6_BR","myth","CFC",NA,5,1,NA
"211",18,1,"F1_BR","fact","CFC",NA,10,1,NA
"212",18,1,"F2_BR","fact","CFC",NA,9,1,NA
"213",18,1,"F3_BR","fact","CFC",NA,5,1,NA
"214",18,1,"F4_BR","fact","CFC",NA,8,1,NA
"215",18,1,"F5_BR","fact","CFC",NA,8,1,NA
"216",18,1,"F6_BR","fact","CFC",NA,8,1,NA
"217",19,1,"M1_BR","myth","CO",NA,10,1,NA
"218",19,1,"M2_BR","myth","CO",NA,10,1,NA
"219",19,1,"M3_BR","myth","CO",NA,0,1,NA
"220",19,1,"M4_BR","myth","CO",NA,0,1,NA
"221",19,1,"M5_BR","myth","CO",NA,10,1,NA
"222",19,1,"M6_BR","myth","CO",NA,5,1,NA
"223",19,1,"F1_BR","fact","CO",NA,0,1,NA
"224",19,1,"F2_BR","fact","CO",NA,10,1,NA
"225",19,1,"F3_BR","fact","CO",NA,6,1,NA
"226",19,1,"F4_BR","fact","CO",NA,0,1,NA
"227",19,1,"F5_BR","fact","CO",NA,10,1,NA
"228",19,1,"F6_BR","fact","CO",NA,0,1,NA
"229",20,1,"M1_BR","myth","FCO",NA,0,1,NA
"230",20,1,"M2_BR","myth","FCO",NA,8,1,NA
"231",20,1,"M3_BR","myth","FCO",NA,3,1,NA
"232",20,1,"M4_BR","myth","FCO",NA,9,1,NA
"233",20,1,"M5_BR","myth","FCO",NA,8,1,NA
"234",20,1,"M6_BR","myth","FCO",NA,6,1,NA
"235",20,1,"F1_BR","fact","FCO",NA,5,1,NA
"236",20,1,"F2_BR","fact","FCO",NA,10,1,NA
"237",20,1,"F3_BR","fact","FCO",NA,2,1,NA
"238",20,1,"F4_BR","fact","FCO",NA,7,1,NA
"239",20,1,"F5_BR","fact","FCO",NA,1,1,NA
"240",20,1,"F6_BR","fact","FCO",NA,2,1,NA
"241",21,1,"M1_BR","myth","NE",NA,1,0,NA
"242",21,1,"M2_BR","myth","NE",NA,6,0,NA
"243",21,1,"M3_BR","myth","NE",NA,4,0,NA
"244",21,1,"M4_BR","myth","NE",NA,2,0,NA
"245",21,1,"M5_BR","myth","NE",NA,7,0,NA
"246",21,1,"M6_BR","myth","NE",NA,0,0,NA
"247",21,1,"F1_BR","fact","NE",NA,0,0,NA
"248",21,1,"F2_BR","fact","NE",NA,7,0,NA
"249",21,1,"F3_BR","fact","NE",NA,5,0,NA
"250",21,1,"F4_BR","fact","NE",NA,7,0,NA
"251",21,1,"F5_BR","fact","NE",NA,5,0,NA
"252",21,1,"F6_BR","fact","NE",NA,0,0,NA
"253",22,1,"M1_BR","myth","FCO",NA,3,1,NA
"254",22,1,"M2_BR","myth","FCO",NA,0,1,NA
"255",22,1,"M3_BR","myth","FCO",NA,3,1,NA
"256",22,1,"M4_BR","myth","FCO",NA,5,1,NA
"257",22,1,"M5_BR","myth","FCO",NA,3,1,NA
"258",22,1,"M6_BR","myth","FCO",NA,0,1,NA
"259",22,1,"F1_BR","fact","FCO",NA,7,1,NA
"260",22,1,"F2_BR","fact","FCO",NA,10,1,NA
"261",22,1,"F3_BR","fact","FCO",NA,8,1,NA
"262",22,1,"F4_BR","fact","FCO",NA,0,1,NA
"263",22,1,"F5_BR","fact","FCO",NA,5,1,NA
"264",22,1,"F6_BR","fact","FCO",NA,7,1,NA
"265",23,1,"M1_BR","myth","CFC",NA,10,1,NA
"266",23,1,"M2_BR","myth","CFC",NA,8,1,NA
"267",23,1,"M3_BR","myth","CFC",NA,2,1,NA
"268",23,1,"M4_BR","myth","CFC",NA,5,1,NA
"269",23,1,"M5_BR","myth","CFC",NA,5,1,NA
"270",23,1,"M6_BR","myth","CFC",NA,5,1,NA
"271",23,1,"F1_BR","fact","CFC",NA,8,1,NA
"272",23,1,"F2_BR","fact","CFC",NA,5,1,NA
"273",23,1,"F3_BR","fact","CFC",NA,5,1,NA
"274",23,1,"F4_BR","fact","CFC",NA,0,1,NA
"275",23,1,"F5_BR","fact","CFC",NA,7,1,NA
"276",23,1,"F6_BR","fact","CFC",NA,0,1,NA
"277",24,1,"M1_BR","myth","NE",NA,0,0,NA
"278",24,1,"M2_BR","myth","NE",NA,9,0,NA
"279",24,1,"M3_BR","myth","NE",NA,7,0,NA
"280",24,1,"M4_BR","myth","NE",NA,0,0,NA
"281",24,1,"M5_BR","myth","NE",NA,10,0,NA
"282",24,1,"M6_BR","myth","NE",NA,0,0,NA
"283",24,1,"F1_BR","fact","NE",NA,2,0,NA
"284",24,1,"F2_BR","fact","NE",NA,4,0,NA
"285",24,1,"F3_BR","fact","NE",NA,7,0,NA
"286",24,1,"F4_BR","fact","NE",NA,10,0,NA
"287",24,1,"F5_BR","fact","NE",NA,3,0,NA
"288",24,1,"F6_BR","fact","NE",NA,0,0,NA
"289",25,1,"M1_BR","myth","CFC",NA,0,1,NA
"290",25,1,"M2_BR","myth","CFC",NA,10,1,NA
"291",25,1,"M3_BR","myth","CFC",NA,0,1,NA
"292",25,1,"M4_BR","myth","CFC",NA,0,1,NA
"293",25,1,"M5_BR","myth","CFC",NA,0,1,NA
"294",25,1,"M6_BR","myth","CFC",NA,0,1,NA
"295",25,1,"F1_BR","fact","CFC",NA,9,1,NA
"296",25,1,"F2_BR","fact","CFC",NA,0,1,NA
"297",25,1,"F3_BR","fact","CFC",NA,10,1,NA
"298",25,1,"F4_BR","fact","CFC",NA,10,1,NA
"299",25,1,"F5_BR","fact","CFC",NA,10,1,NA
"300",25,1,"F6_BR","fact","CFC",NA,0,1,NA
"301",26,1,"M1_BR","myth","CFC",NA,0,1,NA
"302",26,1,"M2_BR","myth","CFC",NA,0,1,NA
"303",26,1,"M3_BR","myth","CFC",NA,0,1,NA
"304",26,1,"M4_BR","myth","CFC",NA,0,1,NA
"305",26,1,"M5_BR","myth","CFC",NA,0,1,NA
"306",26,1,"M6_BR","myth","CFC",NA,0,1,NA
"307",26,1,"F1_BR","fact","CFC",NA,0,1,NA
"308",26,1,"F2_BR","fact","CFC",NA,10,1,NA
"309",26,1,"F3_BR","fact","CFC",NA,10,1,NA
"310",26,1,"F4_BR","fact","CFC",NA,10,1,NA
"311",26,1,"F5_BR","fact","CFC",NA,10,1,NA
"312",26,1,"F6_BR","fact","CFC",NA,0,1,NA
"313",27,1,"M1_BR","myth","NE",NA,10,0,NA
"314",27,1,"M2_BR","myth","NE",NA,8,0,NA
"315",27,1,"M3_BR","myth","NE",NA,8,0,NA
"316",27,1,"M4_BR","myth","NE",NA,7,0,NA
"317",27,1,"M5_BR","myth","NE",NA,7,0,NA
"318",27,1,"M6_BR","myth","NE",NA,6,0,NA
"319",27,1,"F1_BR","fact","NE",NA,2,0,NA
"320",27,1,"F2_BR","fact","NE",NA,1,0,NA
"321",27,1,"F3_BR","fact","NE",NA,6,0,NA
"322",27,1,"F4_BR","fact","NE",NA,0,0,NA
"323",27,1,"F5_BR","fact","NE",NA,7,0,NA
"324",27,1,"F6_BR","fact","NE",NA,9,0,NA
"325",28,1,"M1_BR","myth","CFC",NA,10,1,NA
"326",28,1,"M2_BR","myth","CFC",NA,0,1,NA
"327",28,1,"M3_BR","myth","CFC",NA,2,1,NA
"328",28,1,"M4_BR","myth","CFC",NA,7,1,NA
"329",28,1,"M5_BR","myth","CFC",NA,3,1,NA
"330",28,1,"M6_BR","myth","CFC",NA,1,1,NA
"331",28,1,"F1_BR","fact","CFC",NA,0,1,NA
"332",28,1,"F2_BR","fact","CFC",NA,2,1,NA
"333",28,1,"F3_BR","fact","CFC",NA,9,1,NA
"334",28,1,"F4_BR","fact","CFC",NA,10,1,NA
"335",28,1,"F5_BR","fact","CFC",NA,9,1,NA
"336",28,1,"F6_BR","fact","CFC",NA,8,1,NA
"337",29,1,"M1_BR","myth","NE",NA,0,0,NA
"338",29,1,"M2_BR","myth","NE",NA,1,0,NA
"339",29,1,"M3_BR","myth","NE",NA,6,0,NA
"340",29,1,"M4_BR","myth","NE",NA,4,0,NA
"341",29,1,"M5_BR","myth","NE",NA,2,0,NA
"342",29,1,"M6_BR","myth","NE",NA,7,0,NA
"343",29,1,"F1_BR","fact","NE",NA,7,0,NA
"344",29,1,"F2_BR","fact","NE",NA,3,0,NA
"345",29,1,"F3_BR","fact","NE",NA,3,0,NA
"346",29,1,"F4_BR","fact","NE",NA,0,0,NA
"347",29,1,"F5_BR","fact","NE",NA,1,0,NA
"348",29,1,"F6_BR","fact","NE",NA,4,0,NA
"349",30,1,"M1_BR","myth","NE",NA,2,0,NA
"350",30,1,"M2_BR","myth","NE",NA,9,0,NA
"351",30,1,"M3_BR","myth","NE",NA,4,0,NA
"352",30,1,"M4_BR","myth","NE",NA,10,0,NA
"353",30,1,"M5_BR","myth","NE",NA,9,0,NA
"354",30,1,"M6_BR","myth","NE",NA,8,0,NA
"355",30,1,"F1_BR","fact","NE",NA,0,0,NA
"356",30,1,"F2_BR","fact","NE",NA,7,0,NA
"357",30,1,"F3_BR","fact","NE",NA,10,0,NA
"358",30,1,"F4_BR","fact","NE",NA,10,0,NA
"359",30,1,"F5_BR","fact","NE",NA,10,0,NA
"360",30,1,"F6_BR","fact","NE",NA,4,0,NA
"361",31,1,"M1_BR","myth","FCO",NA,0,1,NA
"362",31,1,"M2_BR","myth","FCO",NA,0,1,NA
"363",31,1,"M3_BR","myth","FCO",NA,0,1,NA
"364",31,1,"M4_BR","myth","FCO",NA,0,1,NA
"365",31,1,"M5_BR","myth","FCO",NA,0,1,NA
"366",31,1,"M6_BR","myth","FCO",NA,0,1,NA
"367",31,1,"F1_BR","fact","FCO",NA,4,1,NA
"368",31,1,"F2_BR","fact","FCO",NA,10,1,NA
"369",31,1,"F3_BR","fact","FCO",NA,4,1,NA
"370",31,1,"F4_BR","fact","FCO",NA,8,1,NA
"371",31,1,"F5_BR","fact","FCO",NA,10,1,NA
"372",31,1,"F6_BR","fact","FCO",NA,10,1,NA
"373",32,1,"M1_BR","myth","CFC",NA,0,1,NA
"374",32,1,"M2_BR","myth","CFC",NA,0,1,NA
"375",32,1,"M3_BR","myth","CFC",NA,0,1,NA
"376",32,1,"M4_BR","myth","CFC",NA,6,1,NA
"377",32,1,"M5_BR","myth","CFC",NA,0,1,NA
"378",32,1,"M6_BR","myth","CFC",NA,0,1,NA
"379",32,1,"F1_BR","fact","CFC",NA,10,1,NA
"380",32,1,"F2_BR","fact","CFC",NA,9,1,NA
"381",32,1,"F3_BR","fact","CFC",NA,10,1,NA
"382",32,1,"F4_BR","fact","CFC",NA,8,1,NA
"383",32,1,"F5_BR","fact","CFC",NA,1,1,NA
"384",32,1,"F6_BR","fact","CFC",NA,0,1,NA
"385",33,1,"M1_BR","myth","FCO",NA,0,1,NA
"386",33,1,"M2_BR","myth","FCO",NA,3,1,NA
"387",33,1,"M3_BR","myth","FCO",NA,6,1,NA
"388",33,1,"M4_BR","myth","FCO",NA,2,1,NA
"389",33,1,"M5_BR","myth","FCO",NA,4,1,NA
"390",33,1,"M6_BR","myth","FCO",NA,8,1,NA
"391",33,1,"F1_BR","fact","FCO",NA,4,1,NA
"392",33,1,"F2_BR","fact","FCO",NA,7,1,NA
"393",33,1,"F3_BR","fact","FCO",NA,2,1,NA
"394",33,1,"F4_BR","fact","FCO",NA,10,1,NA
"395",33,1,"F5_BR","fact","FCO",NA,4,1,NA
"396",33,1,"F6_BR","fact","FCO",NA,0,1,NA
"397",34,1,"M1_BR","myth","NE",NA,6,0,NA
"398",34,1,"M2_BR","myth","NE",NA,10,0,NA
"399",34,1,"M3_BR","myth","NE",NA,5,0,NA
"400",34,1,"M4_BR","myth","NE",NA,7,0,NA
"401",34,1,"M5_BR","myth","NE",NA,0,0,NA
"402",34,1,"M6_BR","myth","NE",NA,5,0,NA
"403",34,1,"F1_BR","fact","NE",NA,0,0,NA
"404",34,1,"F2_BR","fact","NE",NA,5,0,NA
"405",34,1,"F3_BR","fact","NE",NA,3,0,NA
"406",34,1,"F4_BR","fact","NE",NA,10,0,NA
"407",34,1,"F5_BR","fact","NE",NA,8,0,NA
"408",34,1,"F6_BR","fact","NE",NA,3,0,NA
"409",35,1,"M1_BR","myth","NE",NA,0,0,NA
"410",35,1,"M2_BR","myth","NE",NA,8,0,NA
"411",35,1,"M3_BR","myth","NE",NA,3,0,NA
"412",35,1,"M4_BR","myth","NE",NA,2,0,NA
"413",35,1,"M5_BR","myth","NE",NA,5,0,NA
"414",35,1,"M6_BR","myth","NE",NA,1,0,NA
"415",35,1,"F1_BR","fact","NE",NA,0,0,NA
"416",35,1,"F2_BR","fact","NE",NA,6,0,NA
"417",35,1,"F3_BR","fact","NE",NA,7,0,NA
"418",35,1,"F4_BR","fact","NE",NA,1,0,NA
"419",35,1,"F5_BR","fact","NE",NA,3,0,NA
"420",35,1,"F6_BR","fact","NE",NA,6,0,NA
"421",36,1,"M1_BR","myth","NE",NA,2,0,NA
"422",36,1,"M2_BR","myth","NE",NA,1,0,NA
"423",36,1,"M3_BR","myth","NE",NA,0,0,NA
"424",36,1,"M4_BR","myth","NE",NA,1,0,NA
"425",36,1,"M5_BR","myth","NE",NA,3,0,NA
"426",36,1,"M6_BR","myth","NE",NA,1,0,NA
"427",36,1,"F1_BR","fact","NE",NA,0,0,NA
"428",36,1,"F2_BR","fact","NE",NA,1,0,NA
"429",36,1,"F3_BR","fact","NE",NA,6,0,NA
"430",36,1,"F4_BR","fact","NE",NA,5,0,NA
"431",36,1,"F5_BR","fact","NE",NA,2,0,NA
"432",36,1,"F6_BR","fact","NE",NA,3,0,NA
"433",37,1,"M1_BR","myth","CFC",NA,1,1,NA
"434",37,1,"M2_BR","myth","CFC",NA,7,1,NA
"435",37,1,"M3_BR","myth","CFC",NA,6,1,NA
"436",37,1,"M4_BR","myth","CFC",NA,7,1,NA
"437",37,1,"M5_BR","myth","CFC",NA,4,1,NA
"438",37,1,"M6_BR","myth","CFC",NA,7,1,NA
"439",37,1,"F1_BR","fact","CFC",NA,7,1,NA
"440",37,1,"F2_BR","fact","CFC",NA,4,1,NA
"441",37,1,"F3_BR","fact","CFC",NA,2,1,NA
"442",37,1,"F4_BR","fact","CFC",NA,10,1,NA
"443",37,1,"F5_BR","fact","CFC",NA,6,1,NA
"444",37,1,"F6_BR","fact","CFC",NA,7,1,NA
"445",38,1,"M1_BR","myth","FCO",NA,3,1,NA
"446",38,1,"M2_BR","myth","FCO",NA,6,1,NA
"447",38,1,"M3_BR","myth","FCO",NA,3,1,NA
"448",38,1,"M4_BR","myth","FCO",NA,8,1,NA
"449",38,1,"M5_BR","myth","FCO",NA,8,1,NA
"450",38,1,"M6_BR","myth","FCO",NA,1,1,NA
"451",38,1,"F1_BR","fact","FCO",NA,6,1,NA
"452",38,1,"F2_BR","fact","FCO",NA,8,1,NA
"453",38,1,"F3_BR","fact","FCO",NA,9,1,NA
"454",38,1,"F4_BR","fact","FCO",NA,0,1,NA
"455",38,1,"F5_BR","fact","FCO",NA,2,1,NA
"456",38,1,"F6_BR","fact","FCO",NA,9,1,NA
"457",39,1,"M1_BR","myth","CFC",NA,2,1,NA
"458",39,1,"M2_BR","myth","CFC",NA,4,1,NA
"459",39,1,"M3_BR","myth","CFC",NA,0,1,NA
"460",39,1,"M4_BR","myth","CFC",NA,0,1,NA
"461",39,1,"M5_BR","myth","CFC",NA,3,1,NA
"462",39,1,"M6_BR","myth","CFC",NA,3,1,NA
"463",39,1,"F1_BR","fact","CFC",NA,8,1,NA
"464",39,1,"F2_BR","fact","CFC",NA,7,1,NA
"465",39,1,"F3_BR","fact","CFC",NA,7,1,NA
"466",39,1,"F4_BR","fact","CFC",NA,10,1,NA
"467",39,1,"F5_BR","fact","CFC",NA,7,1,NA
"468",39,1,"F6_BR","fact","CFC",NA,1,1,NA
"469",40,1,"M1_BR","myth","FCO",NA,3,1,NA
"470",40,1,"M2_BR","myth","FCO",NA,8,1,NA
"471",40,1,"M3_BR","myth","FCO",NA,1,1,NA
"472",40,1,"M4_BR","myth","FCO",NA,0,1,NA
"473",40,1,"M5_BR","myth","FCO",NA,9,1,NA
"474",40,1,"M6_BR","myth","FCO",NA,0,1,NA
"475",40,1,"F1_BR","fact","FCO",NA,9,1,NA
"476",40,1,"F2_BR","fact","FCO",NA,0,1,NA
"477",40,1,"F3_BR","fact","FCO",NA,8,1,NA
"478",40,1,"F4_BR","fact","FCO",NA,10,1,NA
"479",40,1,"F5_BR","fact","FCO",NA,7,1,NA
"480",40,1,"F6_BR","fact","FCO",NA,7,1,NA
"481",41,1,"M1_BR","myth","CO",NA,10,1,NA
"482",41,1,"M2_BR","myth","CO",NA,8,1,NA
"483",41,1,"M3_BR","myth","CO",NA,6,1,NA
"484",41,1,"M4_BR","myth","CO",NA,5,1,NA
"485",41,1,"M5_BR","myth","CO",NA,1,1,NA
"486",41,1,"M6_BR","myth","CO",NA,7,1,NA
"487",41,1,"F1_BR","fact","CO",NA,7,1,NA
"488",41,1,"F2_BR","fact","CO",NA,8,1,NA
"489",41,1,"F3_BR","fact","CO",NA,5,1,NA
"490",41,1,"F4_BR","fact","CO",NA,1,1,NA
"491",41,1,"F5_BR","fact","CO",NA,5,1,NA
"492",41,1,"F6_BR","fact","CO",NA,5,1,NA
"493",42,1,"M1_BR","myth","NE",NA,2,0,NA
"494",42,1,"M2_BR","myth","NE",NA,7,0,NA
"495",42,1,"M3_BR","myth","NE",NA,3,0,NA
"496",42,1,"M4_BR","myth","NE",NA,3,0,NA
"497",42,1,"M5_BR","myth","NE",NA,3,0,NA
"498",42,1,"M6_BR","myth","NE",NA,7,0,NA
"499",42,1,"F1_BR","fact","NE",NA,0,0,NA
"500",42,1,"F2_BR","fact","NE",NA,1,0,NA
"501",42,1,"F3_BR","fact","NE",NA,7,0,NA
"502",42,1,"F4_BR","fact","NE",NA,0,0,NA
"503",42,1,"F5_BR","fact","NE",NA,6,0,NA
"504",42,1,"F6_BR","fact","NE",NA,1,0,NA
"505",43,1,"M1_BR","myth","CO",NA,5,1,NA
"506",43,1,"M2_BR","myth","CO",NA,4,1,NA
"507",43,1,"M3_BR","myth","CO",NA,5,1,NA
"508",43,1,"M4_BR","myth","CO",NA,3,1,NA
"509",43,1,"M5_BR","myth","CO",NA,3,1,NA
"510",43,1,"M6_BR","myth","CO",NA,7,1,NA
"511",43,1,"F1_BR","fact","CO",NA,10,1,NA
"512",43,1,"F2_BR","fact","CO",NA,5,1,NA
"513",43,1,"F3_BR","fact","CO",NA,5,1,NA
"514",43,1,"F4_BR","fact","CO",NA,10,1,NA
"515",43,1,"F5_BR","fact","CO",NA,4,1,NA
"516",43,1,"F6_BR","fact","CO",NA,8,1,NA
"517",44,1,"M1_BR","myth","CFC",NA,5,1,NA
"518",44,1,"M2_BR","myth","CFC",NA,1,1,NA
"519",44,1,"M3_BR","myth","CFC",NA,0,1,NA
"520",44,1,"M4_BR","myth","CFC",NA,0,1,NA
"521",44,1,"M5_BR","myth","CFC",NA,6,1,NA
"522",44,1,"M6_BR","myth","CFC",NA,0,1,NA
"523",44,1,"F1_BR","fact","CFC",NA,10,1,NA
"524",44,1,"F2_BR","fact","CFC",NA,10,1,NA
"525",44,1,"F3_BR","fact","CFC",NA,8,1,NA
"526",44,1,"F4_BR","fact","CFC",NA,1,1,NA
"527",44,1,"F5_BR","fact","CFC",NA,1,1,NA
"528",44,1,"F6_BR","fact","CFC",NA,1,1,NA
"529",45,1,"M1_BR","myth","FCO",NA,5,1,NA
"530",45,1,"M2_BR","myth","FCO",NA,5,1,NA
"531",45,1,"M3_BR","myth","FCO",NA,6,1,NA
"532",45,1,"M4_BR","myth","FCO",NA,5,1,NA
"533",45,1,"M5_BR","myth","FCO",NA,7,1,NA
"534",45,1,"M6_BR","myth","FCO",NA,3,1,NA
"535",45,1,"F1_BR","fact","FCO",NA,10,1,NA
"536",45,1,"F2_BR","fact","FCO",NA,10,1,NA
"537",45,1,"F3_BR","fact","FCO",NA,7,1,NA
"538",45,1,"F4_BR","fact","FCO",NA,2,1,NA
"539",45,1,"F5_BR","fact","FCO",NA,5,1,NA
"540",45,1,"F6_BR","fact","FCO",NA,0,1,NA
"541",46,1,"M1_BR","myth","NE",NA,0,0,NA
"542",46,1,"M2_BR","myth","NE",NA,5,0,NA
"543",46,1,"M3_BR","myth","NE",NA,5,0,NA
"544",46,1,"M4_BR","myth","NE",NA,0,0,NA
"545",46,1,"M5_BR","myth","NE",NA,5,0,NA
"546",46,1,"M6_BR","myth","NE",NA,5,0,NA
"547",46,1,"F1_BR","fact","NE",NA,5,0,NA
"548",46,1,"F2_BR","fact","NE",NA,1,0,NA
"549",46,1,"F3_BR","fact","NE",NA,5,0,NA
"550",46,1,"F4_BR","fact","NE",NA,1,0,NA
"551",46,1,"F5_BR","fact","NE",NA,1,0,NA
"552",46,1,"F6_BR","fact","NE",NA,1,0,NA
"553",47,1,"M1_BR","myth","NE",NA,0,0,NA
"554",47,1,"M2_BR","myth","NE",NA,7,0,NA
"555",47,1,"M3_BR","myth","NE",NA,3,0,NA
"556",47,1,"M4_BR","myth","NE",NA,0,0,NA
"557",47,1,"M5_BR","myth","NE",NA,7,0,NA
"558",47,1,"M6_BR","myth","NE",NA,1,0,NA
"559",47,1,"F1_BR","fact","NE",NA,0,0,NA
"560",47,1,"F2_BR","fact","NE",NA,2,0,NA
"561",47,1,"F3_BR","fact","NE",NA,6,0,NA
"562",47,1,"F4_BR","fact","NE",NA,2,0,NA
"563",47,1,"F5_BR","fact","NE",NA,1,0,NA
"564",47,1,"F6_BR","fact","NE",NA,3,0,NA
"565",48,1,"M1_BR","myth","NE",NA,5,0,NA
"566",48,1,"M2_BR","myth","NE",NA,5,0,NA
"567",48,1,"M3_BR","myth","NE",NA,5,0,NA
"568",48,1,"M4_BR","myth","NE",NA,5,0,NA
"569",48,1,"M5_BR","myth","NE",NA,3,0,NA
"570",48,1,"M6_BR","myth","NE",NA,10,0,NA
"571",48,1,"F1_BR","fact","NE",NA,0,0,NA
"572",48,1,"F2_BR","fact","NE",NA,5,0,NA
"573",48,1,"F3_BR","fact","NE",NA,5,0,NA
"574",48,1,"F4_BR","fact","NE",NA,0,0,NA
"575",48,1,"F5_BR","fact","NE",NA,10,0,NA
"576",48,1,"F6_BR","fact","NE",NA,5,0,NA
"577",49,1,"M1_BR","myth","NE",NA,8,0,NA
"578",49,1,"M2_BR","myth","NE",NA,5,0,NA
"579",49,1,"M3_BR","myth","NE",NA,10,0,NA
"580",49,1,"M4_BR","myth","NE",NA,3,0,NA
"581",49,1,"M5_BR","myth","NE",NA,0,0,NA
"582",49,1,"M6_BR","myth","NE",NA,0,0,NA
"583",49,1,"F1_BR","fact","NE",NA,0,0,NA
"584",49,1,"F2_BR","fact","NE",NA,0,0,NA
"585",49,1,"F3_BR","fact","NE",NA,0,0,NA
"586",49,1,"F4_BR","fact","NE",NA,0,0,NA
"587",49,1,"F5_BR","fact","NE",NA,0,0,NA
"588",49,1,"F6_BR","fact","NE",NA,0,0,NA
"589",50,1,"M1_BR","myth","CO",NA,0,1,NA
"590",50,1,"M2_BR","myth","CO",NA,4,1,NA
"591",50,1,"M3_BR","myth","CO",NA,5,1,NA
"592",50,1,"M4_BR","myth","CO",NA,6,1,NA
"593",50,1,"M5_BR","myth","CO",NA,6,1,NA
"594",50,1,"M6_BR","myth","CO",NA,5,1,NA
"595",50,1,"F1_BR","fact","CO",NA,6,1,NA
"596",50,1,"F2_BR","fact","CO",NA,2,1,NA
"597",50,1,"F3_BR","fact","CO",NA,10,1,NA
"598",50,1,"F4_BR","fact","CO",NA,5,1,NA
"599",50,1,"F5_BR","fact","CO",NA,6,1,NA
"600",50,1,"F6_BR","fact","CO",NA,2,1,NA
"601",51,1,"M1_BR","myth","FCO",NA,5,1,NA
"602",51,1,"M2_BR","myth","FCO",NA,10,1,NA
"603",51,1,"M3_BR","myth","FCO",NA,10,1,NA
"604",51,1,"M4_BR","myth","FCO",NA,0,1,NA
"605",51,1,"M5_BR","myth","FCO",NA,0,1,NA
"606",51,1,"M6_BR","myth","FCO",NA,10,1,NA
"607",51,1,"F1_BR","fact","FCO",NA,10,1,NA
"608",51,1,"F2_BR","fact","FCO",NA,5,1,NA
"609",51,1,"F3_BR","fact","FCO",NA,5,1,NA
"610",51,1,"F4_BR","fact","FCO",NA,10,1,NA
"611",51,1,"F5_BR","fact","FCO",NA,10,1,NA
"612",51,1,"F6_BR","fact","FCO",NA,10,1,NA
"613",52,1,"M1_BR","myth","NE",NA,2,0,NA
"614",52,1,"M2_BR","myth","NE",NA,2,0,NA
"615",52,1,"M3_BR","myth","NE",NA,5,0,NA
"616",52,1,"M4_BR","myth","NE",NA,0,0,NA
"617",52,1,"M5_BR","myth","NE",NA,2,0,NA
"618",52,1,"M6_BR","myth","NE",NA,0,0,NA
"619",52,1,"F1_BR","fact","NE",NA,0,0,NA
"620",52,1,"F2_BR","fact","NE",NA,0,0,NA
"621",52,1,"F3_BR","fact","NE",NA,2,0,NA
"622",52,1,"F4_BR","fact","NE",NA,2,0,NA
"623",52,1,"F5_BR","fact","NE",NA,3,0,NA
"624",52,1,"F6_BR","fact","NE",NA,6,0,NA
"625",53,1,"M1_BR","myth","FCO",NA,1,1,NA
"626",53,1,"M2_BR","myth","FCO",NA,6,1,NA
"627",53,1,"M3_BR","myth","FCO",NA,6,1,NA
"628",53,1,"M4_BR","myth","FCO",NA,0,1,NA
"629",53,1,"M5_BR","myth","FCO",NA,10,1,NA
"630",53,1,"M6_BR","myth","FCO",NA,2,1,NA
"631",53,1,"F1_BR","fact","FCO",NA,10,1,NA
"632",53,1,"F2_BR","fact","FCO",NA,10,1,NA
"633",53,1,"F3_BR","fact","FCO",NA,10,1,NA
"634",53,1,"F4_BR","fact","FCO",NA,10,1,NA
"635",53,1,"F5_BR","fact","FCO",NA,3,1,NA
"636",53,1,"F6_BR","fact","FCO",NA,10,1,NA
"637",54,1,"M1_BR","myth","CFC",NA,5,1,NA
"638",54,1,"M2_BR","myth","CFC",NA,6,1,NA
"639",54,1,"M3_BR","myth","CFC",NA,8,1,NA
"640",54,1,"M4_BR","myth","CFC",NA,2,1,NA
"641",54,1,"M5_BR","myth","CFC",NA,2,1,NA
"642",54,1,"M6_BR","myth","CFC",NA,5,1,NA
"643",54,1,"F1_BR","fact","CFC",NA,0,1,NA
"644",54,1,"F2_BR","fact","CFC",NA,0,1,NA
"645",54,1,"F3_BR","fact","CFC",NA,10,1,NA
"646",54,1,"F4_BR","fact","CFC",NA,2,1,NA
"647",54,1,"F5_BR","fact","CFC",NA,6,1,NA
"648",54,1,"F6_BR","fact","CFC",NA,1,1,NA
"649",55,1,"M1_BR","myth","NE",NA,3,0,NA
"650",55,1,"M2_BR","myth","NE",NA,5,0,NA
"651",55,1,"M3_BR","myth","NE",NA,7,0,NA
"652",55,1,"M4_BR","myth","NE",NA,3,0,NA
"653",55,1,"M5_BR","myth","NE",NA,3,0,NA
"654",55,1,"M6_BR","myth","NE",NA,5,0,NA
"655",55,1,"F1_BR","fact","NE",NA,1,0,NA
"656",55,1,"F2_BR","fact","NE",NA,0,0,NA
"657",55,1,"F3_BR","fact","NE",NA,6,0,NA
"658",55,1,"F4_BR","fact","NE",NA,9,0,NA
"659",55,1,"F5_BR","fact","NE",NA,5,0,NA
"660",55,1,"F6_BR","fact","NE",NA,4,0,NA
"661",56,1,"M1_BR","myth","NE",NA,2,0,NA
"662",56,1,"M2_BR","myth","NE",NA,6,0,NA
"663",56,1,"M3_BR","myth","NE",NA,1,0,NA
"664",56,1,"M4_BR","myth","NE",NA,0,0,NA
"665",56,1,"M5_BR","myth","NE",NA,0,0,NA
"666",56,1,"M6_BR","myth","NE",NA,1,0,NA
"667",56,1,"F1_BR","fact","NE",NA,7,0,NA
"668",56,1,"F2_BR","fact","NE",NA,0,0,NA
"669",56,1,"F3_BR","fact","NE",NA,6,0,NA
"670",56,1,"F4_BR","fact","NE",NA,0,0,NA
"671",56,1,"F5_BR","fact","NE",NA,6,0,NA
"672",56,1,"F6_BR","fact","NE",NA,1,0,NA
"673",57,1,"M1_BR","myth","FCO",NA,2,1,NA
"674",57,1,"M2_BR","myth","FCO",NA,5,1,NA
"675",57,1,"M3_BR","myth","FCO",NA,8,1,NA
"676",57,1,"M4_BR","myth","FCO",NA,9,1,NA
"677",57,1,"M5_BR","myth","FCO",NA,9,1,NA
"678",57,1,"M6_BR","myth","FCO",NA,9,1,NA
"679",57,1,"F1_BR","fact","FCO",NA,10,1,NA
"680",57,1,"F2_BR","fact","FCO",NA,7,1,NA
"681",57,1,"F3_BR","fact","FCO",NA,2,1,NA
"682",57,1,"F4_BR","fact","FCO",NA,8,1,NA
"683",57,1,"F5_BR","fact","FCO",NA,9,1,NA
"684",57,1,"F6_BR","fact","FCO",NA,8,1,NA
"685",58,1,"M1_BR","myth","CFC",NA,3,1,NA
"686",58,1,"M2_BR","myth","CFC",NA,0,1,NA
"687",58,1,"M3_BR","myth","CFC",NA,1,1,NA
"688",58,1,"M4_BR","myth","CFC",NA,1,1,NA
"689",58,1,"M5_BR","myth","CFC",NA,1,1,NA
"690",58,1,"M6_BR","myth","CFC",NA,5,1,NA
"691",58,1,"F1_BR","fact","CFC",NA,2,1,NA
"692",58,1,"F2_BR","fact","CFC",NA,3,1,NA
"693",58,1,"F3_BR","fact","CFC",NA,1,1,NA
"694",58,1,"F4_BR","fact","CFC",NA,10,1,NA
"695",58,1,"F5_BR","fact","CFC",NA,5,1,NA
"696",58,1,"F6_BR","fact","CFC",NA,8,1,NA
"697",59,1,"M1_BR","myth","CFC",NA,0,1,NA
"698",59,1,"M2_BR","myth","CFC",NA,0,1,NA
"699",59,1,"M3_BR","myth","CFC",NA,5,1,NA
"700",59,1,"M4_BR","myth","CFC",NA,0,1,NA
"701",59,1,"M5_BR","myth","CFC",NA,0,1,NA
"702",59,1,"M6_BR","myth","CFC",NA,0,1,NA
"703",59,1,"F1_BR","fact","CFC",NA,10,1,NA
"704",59,1,"F2_BR","fact","CFC",NA,0,1,NA
"705",59,1,"F3_BR","fact","CFC",NA,1,1,NA
"706",59,1,"F4_BR","fact","CFC",NA,10,1,NA
"707",59,1,"F5_BR","fact","CFC",NA,0,1,NA
"708",59,1,"F6_BR","fact","CFC",NA,10,1,NA
"709",60,1,"M1_BR","myth","FCO",NA,3,1,NA
"710",60,1,"M2_BR","myth","FCO",NA,6,1,NA
"711",60,1,"M3_BR","myth","FCO",NA,8,1,NA
"712",60,1,"M4_BR","myth","FCO",NA,3,1,NA
"713",60,1,"M5_BR","myth","FCO",NA,8,1,NA
"714",60,1,"M6_BR","myth","FCO",NA,2,1,NA
"715",60,1,"F1_BR","fact","FCO",NA,8,1,NA
"716",60,1,"F2_BR","fact","FCO",NA,9,1,NA
"717",60,1,"F3_BR","fact","FCO",NA,9,1,NA
"718",60,1,"F4_BR","fact","FCO",NA,9,1,NA
"719",60,1,"F5_BR","fact","FCO",NA,9,1,NA
"720",60,1,"F6_BR","fact","FCO",NA,7,1,NA
"721",61,1,"M1_BR","myth","FCO",NA,0,1,NA
"722",61,1,"M2_BR","myth","FCO",NA,9,1,NA
"723",61,1,"M3_BR","myth","FCO",NA,9,1,NA
"724",61,1,"M4_BR","myth","FCO",NA,9,1,NA
"725",61,1,"M5_BR","myth","FCO",NA,7,1,NA
"726",61,1,"M6_BR","myth","FCO",NA,1,1,NA
"727",61,1,"F1_BR","fact","FCO",NA,9,1,NA
"728",61,1,"F2_BR","fact","FCO",NA,9,1,NA
"729",61,1,"F3_BR","fact","FCO",NA,7,1,NA
"730",61,1,"F4_BR","fact","FCO",NA,10,1,NA
"731",61,1,"F5_BR","fact","FCO",NA,10,1,NA
"732",61,1,"F6_BR","fact","FCO",NA,10,1,NA
"733",62,1,"M1_BR","myth","CFC",NA,1,1,NA
"734",62,1,"M2_BR","myth","CFC",NA,0,1,NA
"735",62,1,"M3_BR","myth","CFC",NA,6,1,NA
"736",62,1,"M4_BR","myth","CFC",NA,9,1,NA
"737",62,1,"M5_BR","myth","CFC",NA,2,1,NA
"738",62,1,"M6_BR","myth","CFC",NA,9,1,NA
"739",62,1,"F1_BR","fact","CFC",NA,5,1,NA
"740",62,1,"F2_BR","fact","CFC",NA,9,1,NA
"741",62,1,"F3_BR","fact","CFC",NA,9,1,NA
"742",62,1,"F4_BR","fact","CFC",NA,10,1,NA
"743",62,1,"F5_BR","fact","CFC",NA,2,1,NA
"744",62,1,"F6_BR","fact","CFC",NA,8,1,NA
"745",63,1,"M1_BR","myth","CO",NA,0,1,NA
"746",63,1,"M2_BR","myth","CO",NA,3,1,NA
"747",63,1,"M3_BR","myth","CO",NA,8,1,NA
"748",63,1,"M4_BR","myth","CO",NA,0,1,NA
"749",63,1,"M5_BR","myth","CO",NA,9,1,NA
"750",63,1,"M6_BR","myth","CO",NA,10,1,NA
"751",63,1,"F1_BR","fact","CO",NA,0,1,NA
"752",63,1,"F2_BR","fact","CO",NA,0,1,NA
"753",63,1,"F3_BR","fact","CO",NA,1,1,NA
"754",63,1,"F4_BR","fact","CO",NA,1,1,NA
"755",63,1,"F5_BR","fact","CO",NA,4,1,NA
"756",63,1,"F6_BR","fact","CO",NA,8,1,NA
"757",64,1,"M1_BR","myth","CFC",NA,8,1,NA
"758",64,1,"M2_BR","myth","CFC",NA,0,1,NA
"759",64,1,"M3_BR","myth","CFC",NA,9,1,NA
"760",64,1,"M4_BR","myth","CFC",NA,0,1,NA
"761",64,1,"M5_BR","myth","CFC",NA,2,1,NA
"762",64,1,"M6_BR","myth","CFC",NA,0,1,NA
"763",64,1,"F1_BR","fact","CFC",NA,2,1,NA
"764",64,1,"F2_BR","fact","CFC",NA,10,1,NA
"765",64,1,"F3_BR","fact","CFC",NA,10,1,NA
"766",64,1,"F4_BR","fact","CFC",NA,1,1,NA
"767",64,1,"F5_BR","fact","CFC",NA,6,1,NA
"768",64,1,"F6_BR","fact","CFC",NA,8,1,NA
"769",65,1,"M1_BR","myth","CO",NA,6,1,NA
"770",65,1,"M2_BR","myth","CO",NA,10,1,NA
"771",65,1,"M3_BR","myth","CO",NA,9,1,NA
"772",65,1,"M4_BR","myth","CO",NA,5,1,NA
"773",65,1,"M5_BR","myth","CO",NA,9,1,NA
"774",65,1,"M6_BR","myth","CO",NA,6,1,NA
"775",65,1,"F1_BR","fact","CO",NA,9,1,NA
"776",65,1,"F2_BR","fact","CO",NA,5,1,NA
"777",65,1,"F3_BR","fact","CO",NA,1,1,NA
"778",65,1,"F4_BR","fact","CO",NA,10,1,NA
"779",65,1,"F5_BR","fact","CO",NA,10,1,NA
"780",65,1,"F6_BR","fact","CO",NA,2,1,NA
"781",66,1,"M1_BR","myth","NE",NA,3,0,NA
"782",66,1,"M2_BR","myth","NE",NA,5,0,NA
"783",66,1,"M3_BR","myth","NE",NA,3,0,NA
"784",66,1,"M4_BR","myth","NE",NA,6,0,NA
"785",66,1,"M5_BR","myth","NE",NA,8,0,NA
"786",66,1,"M6_BR","myth","NE",NA,6,0,NA
"787",66,1,"F1_BR","fact","NE",NA,8,0,NA
"788",66,1,"F2_BR","fact","NE",NA,7,0,NA
"789",66,1,"F3_BR","fact","NE",NA,5,0,NA
"790",66,1,"F4_BR","fact","NE",NA,0,0,NA
"791",66,1,"F5_BR","fact","NE",NA,6,0,NA
"792",66,1,"F6_BR","fact","NE",NA,0,0,NA
"793",67,1,"M1_BR","myth","CFC",NA,5,1,NA
"794",67,1,"M2_BR","myth","CFC",NA,5,1,NA
"795",67,1,"M3_BR","myth","CFC",NA,9,1,NA
"796",67,1,"M4_BR","myth","CFC",NA,1,1,NA
"797",67,1,"M5_BR","myth","CFC",NA,1,1,NA
"798",67,1,"M6_BR","myth","CFC",NA,0,1,NA
"799",67,1,"F1_BR","fact","CFC",NA,5,1,NA
"800",67,1,"F2_BR","fact","CFC",NA,1,1,NA
"801",67,1,"F3_BR","fact","CFC",NA,2,1,NA
"802",67,1,"F4_BR","fact","CFC",NA,10,1,NA
"803",67,1,"F5_BR","fact","CFC",NA,9,1,NA
"804",67,1,"F6_BR","fact","CFC",NA,6,1,NA
"805",68,1,"M1_BR","myth","CO",NA,4,1,NA
"806",68,1,"M2_BR","myth","CO",NA,7,1,NA
"807",68,1,"M3_BR","myth","CO",NA,6,1,NA
"808",68,1,"M4_BR","myth","CO",NA,2,1,NA
"809",68,1,"M5_BR","myth","CO",NA,8,1,NA
"810",68,1,"M6_BR","myth","CO",NA,2,1,NA
"811",68,1,"F1_BR","fact","CO",NA,7,1,NA
"812",68,1,"F2_BR","fact","CO",NA,1,1,NA
"813",68,1,"F3_BR","fact","CO",NA,2,1,NA
"814",68,1,"F4_BR","fact","CO",NA,3,1,NA
"815",68,1,"F5_BR","fact","CO",NA,4,1,NA
"816",68,1,"F6_BR","fact","CO",NA,8,1,NA
"817",69,1,"M1_BR","myth","CFC",NA,3,1,NA
"818",69,1,"M2_BR","myth","CFC",NA,7,1,NA
"819",69,1,"M3_BR","myth","CFC",NA,10,1,NA
"820",69,1,"M4_BR","myth","CFC",NA,6,1,NA
"821",69,1,"M5_BR","myth","CFC",NA,6,1,NA
"822",69,1,"M6_BR","myth","CFC",NA,8,1,NA
"823",69,1,"F1_BR","fact","CFC",NA,8,1,NA
"824",69,1,"F2_BR","fact","CFC",NA,5,1,NA
"825",69,1,"F3_BR","fact","CFC",NA,4,1,NA
"826",69,1,"F4_BR","fact","CFC",NA,8,1,NA
"827",69,1,"F5_BR","fact","CFC",NA,3,1,NA
"828",69,1,"F6_BR","fact","CFC",NA,6,1,NA
"829",70,1,"M1_BR","myth","NE",NA,1,0,NA
"830",70,1,"M2_BR","myth","NE",NA,10,0,NA
"831",70,1,"M3_BR","myth","NE",NA,7,0,NA
"832",70,1,"M4_BR","myth","NE",NA,4,0,NA
"833",70,1,"M5_BR","myth","NE",NA,6,0,NA
"834",70,1,"M6_BR","myth","NE",NA,2,0,NA
"835",70,1,"F1_BR","fact","NE",NA,0,0,NA
"836",70,1,"F2_BR","fact","NE",NA,0,0,NA
"837",70,1,"F3_BR","fact","NE",NA,4,0,NA
"838",70,1,"F4_BR","fact","NE",NA,1,0,NA
"839",70,1,"F5_BR","fact","NE",NA,7,0,NA
"840",70,1,"F6_BR","fact","NE",NA,8,0,NA
"841",71,1,"M1_BR","myth","CO",NA,6,1,NA
"842",71,1,"M2_BR","myth","CO",NA,7,1,NA
"843",71,1,"M3_BR","myth","CO",NA,5,1,NA
"844",71,1,"M4_BR","myth","CO",NA,0,1,NA
"845",71,1,"M5_BR","myth","CO",NA,3,1,NA
"846",71,1,"M6_BR","myth","CO",NA,0,1,NA
"847",71,1,"F1_BR","fact","CO",NA,1,1,NA
"848",71,1,"F2_BR","fact","CO",NA,7,1,NA
"849",71,1,"F3_BR","fact","CO",NA,0,1,NA
"850",71,1,"F4_BR","fact","CO",NA,1,1,NA
"851",71,1,"F5_BR","fact","CO",NA,1,1,NA
"852",71,1,"F6_BR","fact","CO",NA,2,1,NA
"853",72,1,"M1_BR","myth","CO",NA,0,1,NA
"854",72,1,"M2_BR","myth","CO",NA,9,1,NA
"855",72,1,"M3_BR","myth","CO",NA,2,1,NA
"856",72,1,"M4_BR","myth","CO",NA,1,1,NA
"857",72,1,"M5_BR","myth","CO",NA,2,1,NA
"858",72,1,"M6_BR","myth","CO",NA,8,1,NA
"859",72,1,"F1_BR","fact","CO",NA,5,1,NA
"860",72,1,"F2_BR","fact","CO",NA,7,1,NA
"861",72,1,"F3_BR","fact","CO",NA,6,1,NA
"862",72,1,"F4_BR","fact","CO",NA,10,1,NA
"863",72,1,"F5_BR","fact","CO",NA,9,1,NA
"864",72,1,"F6_BR","fact","CO",NA,3,1,NA
"865",73,1,"M1_BR","myth","CO",NA,2,1,NA
"866",73,1,"M2_BR","myth","CO",NA,8,1,NA
"867",73,1,"M3_BR","myth","CO",NA,5,1,NA
"868",73,1,"M4_BR","myth","CO",NA,3,1,NA
"869",73,1,"M5_BR","myth","CO",NA,5,1,NA
"870",73,1,"M6_BR","myth","CO",NA,3,1,NA
"871",73,1,"F1_BR","fact","CO",NA,5,1,NA
"872",73,1,"F2_BR","fact","CO",NA,0,1,NA
"873",73,1,"F3_BR","fact","CO",NA,10,1,NA
"874",73,1,"F4_BR","fact","CO",NA,0,1,NA
"875",73,1,"F5_BR","fact","CO",NA,5,1,NA
"876",73,1,"F6_BR","fact","CO",NA,0,1,NA
"877",74,1,"M1_BR","myth","CFC",NA,2,1,NA
"878",74,1,"M2_BR","myth","CFC",NA,9,1,NA
"879",74,1,"M3_BR","myth","CFC",NA,7,1,NA
"880",74,1,"M4_BR","myth","CFC",NA,0,1,NA
"881",74,1,"M5_BR","myth","CFC",NA,9,1,NA
"882",74,1,"M6_BR","myth","CFC",NA,7,1,NA
"883",74,1,"F1_BR","fact","CFC",NA,1,1,NA
"884",74,1,"F2_BR","fact","CFC",NA,1,1,NA
"885",74,1,"F3_BR","fact","CFC",NA,7,1,NA
"886",74,1,"F4_BR","fact","CFC",NA,0,1,NA
"887",74,1,"F5_BR","fact","CFC",NA,10,1,NA
"888",74,1,"F6_BR","fact","CFC",NA,3,1,NA
"889",75,1,"M1_BR","myth","CFC",NA,8,1,NA
"890",75,1,"M2_BR","myth","CFC",NA,9,1,NA
"891",75,1,"M3_BR","myth","CFC",NA,5,1,NA
"892",75,1,"M4_BR","myth","CFC",NA,9,1,NA
"893",75,1,"M5_BR","myth","CFC",NA,7,1,NA
"894",75,1,"M6_BR","myth","CFC",NA,9,1,NA
"895",75,1,"F1_BR","fact","CFC",NA,10,1,NA
"896",75,1,"F2_BR","fact","CFC",NA,5,1,NA
"897",75,1,"F3_BR","fact","CFC",NA,9,1,NA
"898",75,1,"F4_BR","fact","CFC",NA,10,1,NA
"899",75,1,"F5_BR","fact","CFC",NA,10,1,NA
"900",75,1,"F6_BR","fact","CFC",NA,7,1,NA
"901",76,1,"M1_BR","myth","FCO",NA,0,1,NA
"902",76,1,"M2_BR","myth","FCO",NA,3,1,NA
"903",76,1,"M3_BR","myth","FCO",NA,1,1,NA
"904",76,1,"M4_BR","myth","FCO",NA,5,1,NA
"905",76,1,"M5_BR","myth","FCO",NA,8,1,NA
"906",76,1,"M6_BR","myth","FCO",NA,3,1,NA
"907",76,1,"F1_BR","fact","FCO",NA,0,1,NA
"908",76,1,"F2_BR","fact","FCO",NA,0,1,NA
"909",76,1,"F3_BR","fact","FCO",NA,2,1,NA
"910",76,1,"F4_BR","fact","FCO",NA,2,1,NA
"911",76,1,"F5_BR","fact","FCO",NA,3,1,NA
"912",76,1,"F6_BR","fact","FCO",NA,5,1,NA
"913",77,1,"M1_BR","myth","NE",NA,0,0,NA
"914",77,1,"M2_BR","myth","NE",NA,0,0,NA
"915",77,1,"M3_BR","myth","NE",NA,0,0,NA
"916",77,1,"M4_BR","myth","NE",NA,1,0,NA
"917",77,1,"M5_BR","myth","NE",NA,0,0,NA
"918",77,1,"M6_BR","myth","NE",NA,0,0,NA
"919",77,1,"F1_BR","fact","NE",NA,0,0,NA
"920",77,1,"F2_BR","fact","NE",NA,0,0,NA
"921",77,1,"F3_BR","fact","NE",NA,10,0,NA
"922",77,1,"F4_BR","fact","NE",NA,0,0,NA
"923",77,1,"F5_BR","fact","NE",NA,10,0,NA
"924",77,1,"F6_BR","fact","NE",NA,10,0,NA
"925",78,1,"M1_BR","myth","NE",NA,1,0,NA
"926",78,1,"M2_BR","myth","NE",NA,3,0,NA
"927",78,1,"M3_BR","myth","NE",NA,0,0,NA
"928",78,1,"M4_BR","myth","NE",NA,0,0,NA
"929",78,1,"M5_BR","myth","NE",NA,3,0,NA
"930",78,1,"M6_BR","myth","NE",NA,1,0,NA
"931",78,1,"F1_BR","fact","NE",NA,0,0,NA
"932",78,1,"F2_BR","fact","NE",NA,0,0,NA
"933",78,1,"F3_BR","fact","NE",NA,6,0,NA
"934",78,1,"F4_BR","fact","NE",NA,0,0,NA
"935",78,1,"F5_BR","fact","NE",NA,3,0,NA
"936",78,1,"F6_BR","fact","NE",NA,4,0,NA
"937",79,1,"M1_BR","myth","CO",NA,3,1,NA
"938",79,1,"M2_BR","myth","CO",NA,9,1,NA
"939",79,1,"M3_BR","myth","CO",NA,9,1,NA
"940",79,1,"M4_BR","myth","CO",NA,10,1,NA
"941",79,1,"M5_BR","myth","CO",NA,10,1,NA
"942",79,1,"M6_BR","myth","CO",NA,8,1,NA
"943",79,1,"F1_BR","fact","CO",NA,4,1,NA
"944",79,1,"F2_BR","fact","CO",NA,8,1,NA
"945",79,1,"F3_BR","fact","CO",NA,10,1,NA
"946",79,1,"F4_BR","fact","CO",NA,0,1,NA
"947",79,1,"F5_BR","fact","CO",NA,6,1,NA
"948",79,1,"F6_BR","fact","CO",NA,6,1,NA
"949",80,1,"M1_BR","myth","NE",NA,6,0,NA
"950",80,1,"M2_BR","myth","NE",NA,0,0,NA
"951",80,1,"M3_BR","myth","NE",NA,6,0,NA
"952",80,1,"M4_BR","myth","NE",NA,6,0,NA
"953",80,1,"M5_BR","myth","NE",NA,7,0,NA
"954",80,1,"M6_BR","myth","NE",NA,8,0,NA
"955",80,1,"F1_BR","fact","NE",NA,3,0,NA
"956",80,1,"F2_BR","fact","NE",NA,4,0,NA
"957",80,1,"F3_BR","fact","NE",NA,8,0,NA
"958",80,1,"F4_BR","fact","NE",NA,0,0,NA
"959",80,1,"F5_BR","fact","NE",NA,3,0,NA
"960",80,1,"F6_BR","fact","NE",NA,7,0,NA
"961",81,1,"M1_BR","myth","NE",NA,1,0,NA
"962",81,1,"M2_BR","myth","NE",NA,6,0,NA
"963",81,1,"M3_BR","myth","NE",NA,6,0,NA
"964",81,1,"M4_BR","myth","NE",NA,1,0,NA
"965",81,1,"M5_BR","myth","NE",NA,7,0,NA
"966",81,1,"M6_BR","myth","NE",NA,1,0,NA
"967",81,1,"F1_BR","fact","NE",NA,0,0,NA
"968",81,1,"F2_BR","fact","NE",NA,2,0,NA
"969",81,1,"F3_BR","fact","NE",NA,2,0,NA
"970",81,1,"F4_BR","fact","NE",NA,0,0,NA
"971",81,1,"F5_BR","fact","NE",NA,4,0,NA
"972",81,1,"F6_BR","fact","NE",NA,1,0,NA
"973",82,1,"M1_BR","myth","NE",NA,0,0,NA
"974",82,1,"M2_BR","myth","NE",NA,6,0,NA
"975",82,1,"M3_BR","myth","NE",NA,0,0,NA
"976",82,1,"M4_BR","myth","NE",NA,0,0,NA
"977",82,1,"M5_BR","myth","NE",NA,8,0,NA
"978",82,1,"M6_BR","myth","NE",NA,1,0,NA
"979",82,1,"F1_BR","fact","NE",NA,0,0,NA
"980",82,1,"F2_BR","fact","NE",NA,0,0,NA
"981",82,1,"F3_BR","fact","NE",NA,10,0,NA
"982",82,1,"F4_BR","fact","NE",NA,0,0,NA
"983",82,1,"F5_BR","fact","NE",NA,10,0,NA
"984",82,1,"F6_BR","fact","NE",NA,5,0,NA
"985",83,1,"M1_BR","myth","CO",NA,1,1,NA
"986",83,1,"M2_BR","myth","CO",NA,0,1,NA
"987",83,1,"M3_BR","myth","CO",NA,8,1,NA
"988",83,1,"M4_BR","myth","CO",NA,0,1,NA
"989",83,1,"M5_BR","myth","CO",NA,9,1,NA
"990",83,1,"M6_BR","myth","CO",NA,10,1,NA
"991",83,1,"F1_BR","fact","CO",NA,0,1,NA
"992",83,1,"F2_BR","fact","CO",NA,0,1,NA
"993",83,1,"F3_BR","fact","CO",NA,0,1,NA
"994",83,1,"F4_BR","fact","CO",NA,0,1,NA
"995",83,1,"F5_BR","fact","CO",NA,5,1,NA
"996",83,1,"F6_BR","fact","CO",NA,2,1,NA
"997",84,1,"M1_BR","myth","CFC",NA,0,1,NA
"998",84,1,"M2_BR","myth","CFC",NA,0,1,NA
"999",84,1,"M3_BR","myth","CFC",NA,4,1,NA
"1000",84,1,"M4_BR","myth","CFC",NA,0,1,NA
"1001",84,1,"M5_BR","myth","CFC",NA,0,1,NA
"1002",84,1,"M6_BR","myth","CFC",NA,0,1,NA
"1003",84,1,"F1_BR","fact","CFC",NA,3,1,NA
"1004",84,1,"F2_BR","fact","CFC",NA,9,1,NA
"1005",84,1,"F3_BR","fact","CFC",NA,9,1,NA
"1006",84,1,"F4_BR","fact","CFC",NA,6,1,NA
"1007",84,1,"F5_BR","fact","CFC",NA,4,1,NA
"1008",84,1,"F6_BR","fact","CFC",NA,4,1,NA
"1009",85,1,"M1_BR","myth","FCO",NA,2,1,NA
"1010",85,1,"M2_BR","myth","FCO",NA,2,1,NA
"1011",85,1,"M3_BR","myth","FCO",NA,5,1,NA
"1012",85,1,"M4_BR","myth","FCO",NA,5,1,NA
"1013",85,1,"M5_BR","myth","FCO",NA,2,1,NA
"1014",85,1,"M6_BR","myth","FCO",NA,8,1,NA
"1015",85,1,"F1_BR","fact","FCO",NA,8,1,NA
"1016",85,1,"F2_BR","fact","FCO",NA,2,1,NA
"1017",85,1,"F3_BR","fact","FCO",NA,9,1,NA
"1018",85,1,"F4_BR","fact","FCO",NA,0,1,NA
"1019",85,1,"F5_BR","fact","FCO",NA,1,1,NA
"1020",85,1,"F6_BR","fact","FCO",NA,10,1,NA
"1021",86,1,"M1_BR","myth","CO",NA,0,1,NA
"1022",86,1,"M2_BR","myth","CO",NA,2,1,NA
"1023",86,1,"M3_BR","myth","CO",NA,8,1,NA
"1024",86,1,"M4_BR","myth","CO",NA,1,1,NA
"1025",86,1,"M5_BR","myth","CO",NA,10,1,NA
"1026",86,1,"M6_BR","myth","CO",NA,10,1,NA
"1027",86,1,"F1_BR","fact","CO",NA,0,1,NA
"1028",86,1,"F2_BR","fact","CO",NA,0,1,NA
"1029",86,1,"F3_BR","fact","CO",NA,7,1,NA
"1030",86,1,"F4_BR","fact","CO",NA,8,1,NA
"1031",86,1,"F5_BR","fact","CO",NA,0,1,NA
"1032",86,1,"F6_BR","fact","CO",NA,2,1,NA
"1033",87,1,"M1_BR","myth","CFC",NA,2,1,NA
"1034",87,1,"M2_BR","myth","CFC",NA,5,1,NA
"1035",87,1,"M3_BR","myth","CFC",NA,1,1,NA
"1036",87,1,"M4_BR","myth","CFC",NA,5,1,NA
"1037",87,1,"M5_BR","myth","CFC",NA,5,1,NA
"1038",87,1,"M6_BR","myth","CFC",NA,9,1,NA
"1039",87,1,"F1_BR","fact","CFC",NA,8,1,NA
"1040",87,1,"F2_BR","fact","CFC",NA,5,1,NA
"1041",87,1,"F3_BR","fact","CFC",NA,8,1,NA
"1042",87,1,"F4_BR","fact","CFC",NA,9,1,NA
"1043",87,1,"F5_BR","fact","CFC",NA,5,1,NA
"1044",87,1,"F6_BR","fact","CFC",NA,4,1,NA
"1045",88,1,"M1_BR","myth","CFC",NA,0,1,NA
"1046",88,1,"M2_BR","myth","CFC",NA,5,1,NA
"1047",88,1,"M3_BR","myth","CFC",NA,8,1,NA
"1048",88,1,"M4_BR","myth","CFC",NA,2,1,NA
"1049",88,1,"M5_BR","myth","CFC",NA,5,1,NA
"1050",88,1,"M6_BR","myth","CFC",NA,10,1,NA
"1051",88,1,"F1_BR","fact","CFC",NA,0,1,NA
"1052",88,1,"F2_BR","fact","CFC",NA,0,1,NA
"1053",88,1,"F3_BR","fact","CFC",NA,0,1,NA
"1054",88,1,"F4_BR","fact","CFC",NA,0,1,NA
"1055",88,1,"F5_BR","fact","CFC",NA,3,1,NA
"1056",88,1,"F6_BR","fact","CFC",NA,0,1,NA
"1057",89,1,"M1_BR","myth","FCO",NA,4,1,NA
"1058",89,1,"M2_BR","myth","FCO",NA,6,1,NA
"1059",89,1,"M3_BR","myth","FCO",NA,7,1,NA
"1060",89,1,"M4_BR","myth","FCO",NA,3,1,NA
"1061",89,1,"M5_BR","myth","FCO",NA,9,1,NA
"1062",89,1,"M6_BR","myth","FCO",NA,2,1,NA
"1063",89,1,"F1_BR","fact","FCO",NA,8,1,NA
"1064",89,1,"F2_BR","fact","FCO",NA,7,1,NA
"1065",89,1,"F3_BR","fact","FCO",NA,7,1,NA
"1066",89,1,"F4_BR","fact","FCO",NA,3,1,NA
"1067",89,1,"F5_BR","fact","FCO",NA,7,1,NA
"1068",89,1,"F6_BR","fact","FCO",NA,7,1,NA
"1069",90,1,"M1_BR","myth","FCO",NA,3,1,NA
"1070",90,1,"M2_BR","myth","FCO",NA,2,1,NA
"1071",90,1,"M3_BR","myth","FCO",NA,2,1,NA
"1072",90,1,"M4_BR","myth","FCO",NA,0,1,NA
"1073",90,1,"M5_BR","myth","FCO",NA,8,1,NA
"1074",90,1,"M6_BR","myth","FCO",NA,1,1,NA
"1075",90,1,"F1_BR","fact","FCO",NA,8,1,NA
"1076",90,1,"F2_BR","fact","FCO",NA,0,1,NA
"1077",90,1,"F3_BR","fact","FCO",NA,1,1,NA
"1078",90,1,"F4_BR","fact","FCO",NA,10,1,NA
"1079",90,1,"F5_BR","fact","FCO",NA,9,1,NA
"1080",90,1,"F6_BR","fact","FCO",NA,8,1,NA
"1081",91,1,"M1_BR","myth","NE",NA,5,0,NA
"1082",91,1,"M2_BR","myth","NE",NA,2,0,NA
"1083",91,1,"M3_BR","myth","NE",NA,2,0,NA
"1084",91,1,"M4_BR","myth","NE",NA,3,0,NA
"1085",91,1,"M5_BR","myth","NE",NA,9,0,NA
"1086",91,1,"M6_BR","myth","NE",NA,2,0,NA
"1087",91,1,"F1_BR","fact","NE",NA,6,0,NA
"1088",91,1,"F2_BR","fact","NE",NA,1,0,NA
"1089",91,1,"F3_BR","fact","NE",NA,3,0,NA
"1090",91,1,"F4_BR","fact","NE",NA,4,0,NA
"1091",91,1,"F5_BR","fact","NE",NA,6,0,NA
"1092",91,1,"F6_BR","fact","NE",NA,3,0,NA
"1093",92,1,"M1_BR","myth","FCO",NA,3,1,NA
"1094",92,1,"M2_BR","myth","FCO",NA,2,1,NA
"1095",92,1,"M3_BR","myth","FCO",NA,6,1,NA
"1096",92,1,"M4_BR","myth","FCO",NA,6,1,NA
"1097",92,1,"M5_BR","myth","FCO",NA,6,1,NA
"1098",92,1,"M6_BR","myth","FCO",NA,2,1,NA
"1099",92,1,"F1_BR","fact","FCO",NA,3,1,NA
"1100",92,1,"F2_BR","fact","FCO",NA,3,1,NA
"1101",92,1,"F3_BR","fact","FCO",NA,7,1,NA
"1102",92,1,"F4_BR","fact","FCO",NA,0,1,NA
"1103",92,1,"F5_BR","fact","FCO",NA,7,1,NA
"1104",92,1,"F6_BR","fact","FCO",NA,3,1,NA
"1105",93,1,"M1_BR","myth","FCO",NA,8,1,NA
"1106",93,1,"M2_BR","myth","FCO",NA,3,1,NA
"1107",93,1,"M3_BR","myth","FCO",NA,8,1,NA
"1108",93,1,"M4_BR","myth","FCO",NA,9,1,NA
"1109",93,1,"M5_BR","myth","FCO",NA,7,1,NA
"1110",93,1,"M6_BR","myth","FCO",NA,8,1,NA
"1111",93,1,"F1_BR","fact","FCO",NA,9,1,NA
"1112",93,1,"F2_BR","fact","FCO",NA,7,1,NA
"1113",93,1,"F3_BR","fact","FCO",NA,3,1,NA
"1114",93,1,"F4_BR","fact","FCO",NA,7,1,NA
"1115",93,1,"F5_BR","fact","FCO",NA,3,1,NA
"1116",93,1,"F6_BR","fact","FCO",NA,7,1,NA
"1117",94,1,"M1_BR","myth","CO",NA,1,1,NA
"1118",94,1,"M2_BR","myth","CO",NA,2,1,NA
"1119",94,1,"M3_BR","myth","CO",NA,4,1,NA
"1120",94,1,"M4_BR","myth","CO",NA,2,1,NA
"1121",94,1,"M5_BR","myth","CO",NA,9,1,NA
"1122",94,1,"M6_BR","myth","CO",NA,7,1,NA
"1123",94,1,"F1_BR","fact","CO",NA,1,1,NA
"1124",94,1,"F2_BR","fact","CO",NA,1,1,NA
"1125",94,1,"F3_BR","fact","CO",NA,7,1,NA
"1126",94,1,"F4_BR","fact","CO",NA,8,1,NA
"1127",94,1,"F5_BR","fact","CO",NA,6,1,NA
"1128",94,1,"F6_BR","fact","CO",NA,1,1,NA
"1129",95,1,"M1_BR","myth","CO",NA,0,1,NA
"1130",95,1,"M2_BR","myth","CO",NA,2,1,NA
"1131",95,1,"M3_BR","myth","CO",NA,1,1,NA
"1132",95,1,"M4_BR","myth","CO",NA,0,1,NA
"1133",95,1,"M5_BR","myth","CO",NA,10,1,NA
"1134",95,1,"M6_BR","myth","CO",NA,0,1,NA
"1135",95,1,"F1_BR","fact","CO",NA,0,1,NA
"1136",95,1,"F2_BR","fact","CO",NA,0,1,NA
"1137",95,1,"F3_BR","fact","CO",NA,5,1,NA
"1138",95,1,"F4_BR","fact","CO",NA,7,1,NA
"1139",95,1,"F5_BR","fact","CO",NA,2,1,NA
"1140",95,1,"F6_BR","fact","CO",NA,0,1,NA
"1141",96,1,"M1_BR","myth","NE",NA,5,0,NA
"1142",96,1,"M2_BR","myth","NE",NA,7,0,NA
"1143",96,1,"M3_BR","myth","NE",NA,5,0,NA
"1144",96,1,"M4_BR","myth","NE",NA,5,0,NA
"1145",96,1,"M5_BR","myth","NE",NA,3,0,NA
"1146",96,1,"M6_BR","myth","NE",NA,10,0,NA
"1147",96,1,"F1_BR","fact","NE",NA,7,0,NA
"1148",96,1,"F2_BR","fact","NE",NA,5,0,NA
"1149",96,1,"F3_BR","fact","NE",NA,8,0,NA
"1150",96,1,"F4_BR","fact","NE",NA,5,0,NA
"1151",96,1,"F5_BR","fact","NE",NA,6,0,NA
"1152",96,1,"F6_BR","fact","NE",NA,0,0,NA
"1153",97,1,"M1_BR","myth","CFC",NA,2,1,NA
"1154",97,1,"M2_BR","myth","CFC",NA,9,1,NA
"1155",97,1,"M3_BR","myth","CFC",NA,5,1,NA
"1156",97,1,"M4_BR","myth","CFC",NA,2,1,NA
"1157",97,1,"M5_BR","myth","CFC",NA,4,1,NA
"1158",97,1,"M6_BR","myth","CFC",NA,3,1,NA
"1159",97,1,"F1_BR","fact","CFC",NA,7,1,NA
"1160",97,1,"F2_BR","fact","CFC",NA,9,1,NA
"1161",97,1,"F3_BR","fact","CFC",NA,9,1,NA
"1162",97,1,"F4_BR","fact","CFC",NA,5,1,NA
"1163",97,1,"F5_BR","fact","CFC",NA,5,1,NA
"1164",97,1,"F6_BR","fact","CFC",NA,4,1,NA
"1165",98,1,"M1_BR","myth","CO",NA,0,1,NA
"1166",98,1,"M2_BR","myth","CO",NA,6,1,NA
"1167",98,1,"M3_BR","myth","CO",NA,7,1,NA
"1168",98,1,"M4_BR","myth","CO",NA,3,1,NA
"1169",98,1,"M5_BR","myth","CO",NA,1,1,NA
"1170",98,1,"M6_BR","myth","CO",NA,1,1,NA
"1171",98,1,"F1_BR","fact","CO",NA,0,1,NA
"1172",98,1,"F2_BR","fact","CO",NA,5,1,NA
"1173",98,1,"F3_BR","fact","CO",NA,6,1,NA
"1174",98,1,"F4_BR","fact","CO",NA,9,1,NA
"1175",98,1,"F5_BR","fact","CO",NA,3,1,NA
"1176",98,1,"F6_BR","fact","CO",NA,4,1,NA
"1177",99,1,"M1_BR","myth","NE",NA,4,0,NA
"1178",99,1,"M2_BR","myth","NE",NA,5,0,NA
"1179",99,1,"M3_BR","myth","NE",NA,0,0,NA
"1180",99,1,"M4_BR","myth","NE",NA,5,0,NA
"1181",99,1,"M5_BR","myth","NE",NA,4,0,NA
"1182",99,1,"M6_BR","myth","NE",NA,0,0,NA
"1183",99,1,"F1_BR","fact","NE",NA,4,0,NA
"1184",99,1,"F2_BR","fact","NE",NA,0,0,NA
"1185",99,1,"F3_BR","fact","NE",NA,6,0,NA
"1186",99,1,"F4_BR","fact","NE",NA,0,0,NA
"1187",99,1,"F5_BR","fact","NE",NA,5,0,NA
"1188",99,1,"F6_BR","fact","NE",NA,5,0,NA
"1189",100,1,"M1_BR","myth","CFC",NA,2,1,NA
"1190",100,1,"M2_BR","myth","CFC",NA,6,1,NA
"1191",100,1,"M3_BR","myth","CFC",NA,5,1,NA
"1192",100,1,"M4_BR","myth","CFC",NA,6,1,NA
"1193",100,1,"M5_BR","myth","CFC",NA,8,1,NA
"1194",100,1,"M6_BR","myth","CFC",NA,9,1,NA
"1195",100,1,"F1_BR","fact","CFC",NA,8,1,NA
"1196",100,1,"F2_BR","fact","CFC",NA,10,1,NA
"1197",100,1,"F3_BR","fact","CFC",NA,7,1,NA
"1198",100,1,"F4_BR","fact","CFC",NA,10,1,NA
"1199",100,1,"F5_BR","fact","CFC",NA,10,1,NA
"1200",100,1,"F6_BR","fact","CFC",NA,5,1,NA
"1201",101,1,"M1_BR","myth","CFC",NA,1,1,NA
"1202",101,1,"M2_BR","myth","CFC",NA,8,1,NA
"1203",101,1,"M3_BR","myth","CFC",NA,0,1,NA
"1204",101,1,"M4_BR","myth","CFC",NA,2,1,NA
"1205",101,1,"M5_BR","myth","CFC",NA,9,1,NA
"1206",101,1,"M6_BR","myth","CFC",NA,7,1,NA
"1207",101,1,"F1_BR","fact","CFC",NA,3,1,NA
"1208",101,1,"F2_BR","fact","CFC",NA,5,1,NA
"1209",101,1,"F3_BR","fact","CFC",NA,6,1,NA
"1210",101,1,"F4_BR","fact","CFC",NA,3,1,NA
"1211",101,1,"F5_BR","fact","CFC",NA,6,1,NA
"1212",101,1,"F6_BR","fact","CFC",NA,4,1,NA
"1213",102,1,"M1_BR","myth","NE",NA,2,0,NA
"1214",102,1,"M2_BR","myth","NE",NA,3,0,NA
"1215",102,1,"M3_BR","myth","NE",NA,6,0,NA
"1216",102,1,"M4_BR","myth","NE",NA,4,0,NA
"1217",102,1,"M5_BR","myth","NE",NA,4,0,NA
"1218",102,1,"M6_BR","myth","NE",NA,2,0,NA
"1219",102,1,"F1_BR","fact","NE",NA,0,0,NA
"1220",102,1,"F2_BR","fact","NE",NA,5,0,NA
"1221",102,1,"F3_BR","fact","NE",NA,4,0,NA
"1222",102,1,"F4_BR","fact","NE",NA,5,0,NA
"1223",102,1,"F5_BR","fact","NE",NA,1,0,NA
"1224",102,1,"F6_BR","fact","NE",NA,2,0,NA
"1225",103,1,"M1_BR","myth","FCO",NA,10,1,NA
"1226",103,1,"M2_BR","myth","FCO",NA,0,1,NA
"1227",103,1,"M3_BR","myth","FCO",NA,10,1,NA
"1228",103,1,"M4_BR","myth","FCO",NA,0,1,NA
"1229",103,1,"M5_BR","myth","FCO",NA,0,1,NA
"1230",103,1,"M6_BR","myth","FCO",NA,0,1,NA
"1231",103,1,"F1_BR","fact","FCO",NA,10,1,NA
"1232",103,1,"F2_BR","fact","FCO",NA,10,1,NA
"1233",103,1,"F3_BR","fact","FCO",NA,5,1,NA
"1234",103,1,"F4_BR","fact","FCO",NA,10,1,NA
"1235",103,1,"F5_BR","fact","FCO",NA,10,1,NA
"1236",103,1,"F6_BR","fact","FCO",NA,0,1,NA
"1237",104,1,"M1_BR","myth","CFC",NA,8,1,NA
"1238",104,1,"M2_BR","myth","CFC",NA,10,1,NA
"1239",104,1,"M3_BR","myth","CFC",NA,8,1,NA
"1240",104,1,"M4_BR","myth","CFC",NA,7,1,NA
"1241",104,1,"M5_BR","myth","CFC",NA,0,1,NA
"1242",104,1,"M6_BR","myth","CFC",NA,2,1,NA
"1243",104,1,"F1_BR","fact","CFC",NA,10,1,NA
"1244",104,1,"F2_BR","fact","CFC",NA,10,1,NA
"1245",104,1,"F3_BR","fact","CFC",NA,10,1,NA
"1246",104,1,"F4_BR","fact","CFC",NA,10,1,NA
"1247",104,1,"F5_BR","fact","CFC",NA,6,1,NA
"1248",104,1,"F6_BR","fact","CFC",NA,10,1,NA
"1249",105,1,"M1_BR","myth","FCO",NA,0,1,NA
"1250",105,1,"M2_BR","myth","FCO",NA,2,1,NA
"1251",105,1,"M3_BR","myth","FCO",NA,5,1,NA
"1252",105,1,"M4_BR","myth","FCO",NA,1,1,NA
"1253",105,1,"M5_BR","myth","FCO",NA,6,1,NA
"1254",105,1,"M6_BR","myth","FCO",NA,5,1,NA
"1255",105,1,"F1_BR","fact","FCO",NA,2,1,NA
"1256",105,1,"F2_BR","fact","FCO",NA,2,1,NA
"1257",105,1,"F3_BR","fact","FCO",NA,6,1,NA
"1258",105,1,"F4_BR","fact","FCO",NA,0,1,NA
"1259",105,1,"F5_BR","fact","FCO",NA,4,1,NA
"1260",105,1,"F6_BR","fact","FCO",NA,7,1,NA
"1261",106,1,"M1_BR","myth","NE",NA,2,0,NA
"1262",106,1,"M2_BR","myth","NE",NA,1,0,NA
"1263",106,1,"M3_BR","myth","NE",NA,1,0,NA
"1264",106,1,"M4_BR","myth","NE",NA,4,0,NA
"1265",106,1,"M5_BR","myth","NE",NA,3,0,NA
"1266",106,1,"M6_BR","myth","NE",NA,2,0,NA
"1267",106,1,"F1_BR","fact","NE",NA,0,0,NA
"1268",106,1,"F2_BR","fact","NE",NA,5,0,NA
"1269",106,1,"F3_BR","fact","NE",NA,6,0,NA
"1270",106,1,"F4_BR","fact","NE",NA,0,0,NA
"1271",106,1,"F5_BR","fact","NE",NA,3,0,NA
"1272",106,1,"F6_BR","fact","NE",NA,2,0,NA
"1273",107,1,"M1_BR","myth","FCO",NA,6,1,NA
"1274",107,1,"M2_BR","myth","FCO",NA,8,1,NA
"1275",107,1,"M3_BR","myth","FCO",NA,7,1,NA
"1276",107,1,"M4_BR","myth","FCO",NA,6,1,NA
"1277",107,1,"M5_BR","myth","FCO",NA,6,1,NA
"1278",107,1,"M6_BR","myth","FCO",NA,1,1,NA
"1279",107,1,"F1_BR","fact","FCO",NA,0,1,NA
"1280",107,1,"F2_BR","fact","FCO",NA,10,1,NA
"1281",107,1,"F3_BR","fact","FCO",NA,0,1,NA
"1282",107,1,"F4_BR","fact","FCO",NA,10,1,NA
"1283",107,1,"F5_BR","fact","FCO",NA,8,1,NA
"1284",107,1,"F6_BR","fact","FCO",NA,6,1,NA
"1285",108,1,"M1_BR","myth","NE",NA,8,0,NA
"1286",108,1,"M2_BR","myth","NE",NA,6,0,NA
"1287",108,1,"M3_BR","myth","NE",NA,4,0,NA
"1288",108,1,"M4_BR","myth","NE",NA,5,0,NA
"1289",108,1,"M5_BR","myth","NE",NA,1,0,NA
"1290",108,1,"M6_BR","myth","NE",NA,9,0,NA
"1291",108,1,"F1_BR","fact","NE",NA,2,0,NA
"1292",108,1,"F2_BR","fact","NE",NA,0,0,NA
"1293",108,1,"F3_BR","fact","NE",NA,9,0,NA
"1294",108,1,"F4_BR","fact","NE",NA,1,0,NA
"1295",108,1,"F5_BR","fact","NE",NA,9,0,NA
"1296",108,1,"F6_BR","fact","NE",NA,1,0,NA
"1297",109,1,"M1_BR","myth","CFC",NA,1,1,NA
"1298",109,1,"M2_BR","myth","CFC",NA,0,1,NA
"1299",109,1,"M3_BR","myth","CFC",NA,4,1,NA
"1300",109,1,"M4_BR","myth","CFC",NA,6,1,NA
"1301",109,1,"M5_BR","myth","CFC",NA,5,1,NA
"1302",109,1,"M6_BR","myth","CFC",NA,6,1,NA
"1303",109,1,"F1_BR","fact","CFC",NA,2,1,NA
"1304",109,1,"F2_BR","fact","CFC",NA,9,1,NA
"1305",109,1,"F3_BR","fact","CFC",NA,7,1,NA
"1306",109,1,"F4_BR","fact","CFC",NA,8,1,NA
"1307",109,1,"F5_BR","fact","CFC",NA,3,1,NA
"1308",109,1,"F6_BR","fact","CFC",NA,7,1,NA
"1309",110,1,"M1_BR","myth","CO",NA,1,1,NA
"1310",110,1,"M2_BR","myth","CO",NA,10,1,NA
"1311",110,1,"M3_BR","myth","CO",NA,7,1,NA
"1312",110,1,"M4_BR","myth","CO",NA,0,1,NA
"1313",110,1,"M5_BR","myth","CO",NA,5,1,NA
"1314",110,1,"M6_BR","myth","CO",NA,1,1,NA
"1315",110,1,"F1_BR","fact","CO",NA,2,1,NA
"1316",110,1,"F2_BR","fact","CO",NA,0,1,NA
"1317",110,1,"F3_BR","fact","CO",NA,7,1,NA
"1318",110,1,"F4_BR","fact","CO",NA,10,1,NA
"1319",110,1,"F5_BR","fact","CO",NA,8,1,NA
"1320",110,1,"F6_BR","fact","CO",NA,6,1,NA
"1321",111,1,"M1_BR","myth","FCO",NA,2,1,NA
"1322",111,1,"M2_BR","myth","FCO",NA,1,1,NA
"1323",111,1,"M3_BR","myth","FCO",NA,1,1,NA
"1324",111,1,"M4_BR","myth","FCO",NA,0,1,NA
"1325",111,1,"M5_BR","myth","FCO",NA,1,1,NA
"1326",111,1,"M6_BR","myth","FCO",NA,1,1,NA
"1327",111,1,"F1_BR","fact","FCO",NA,1,1,NA
"1328",111,1,"F2_BR","fact","FCO",NA,9,1,NA
"1329",111,1,"F3_BR","fact","FCO",NA,9,1,NA
"1330",111,1,"F4_BR","fact","FCO",NA,10,1,NA
"1331",111,1,"F5_BR","fact","FCO",NA,9,1,NA
"1332",111,1,"F6_BR","fact","FCO",NA,9,1,NA
"1333",112,1,"M1_BR","myth","CO",NA,5,1,NA
"1334",112,1,"M2_BR","myth","CO",NA,4,1,NA
"1335",112,1,"M3_BR","myth","CO",NA,3,1,NA
"1336",112,1,"M4_BR","myth","CO",NA,6,1,NA
"1337",112,1,"M5_BR","myth","CO",NA,5,1,NA
"1338",112,1,"M6_BR","myth","CO",NA,3,1,NA
"1339",112,1,"F1_BR","fact","CO",NA,0,1,NA
"1340",112,1,"F2_BR","fact","CO",NA,5,1,NA
"1341",112,1,"F3_BR","fact","CO",NA,10,1,NA
"1342",112,1,"F4_BR","fact","CO",NA,0,1,NA
"1343",112,1,"F5_BR","fact","CO",NA,3,1,NA
"1344",112,1,"F6_BR","fact","CO",NA,5,1,NA
"1345",113,1,"M1_BR","myth","CO",NA,0,1,NA
"1346",113,1,"M2_BR","myth","CO",NA,2,1,NA
"1347",113,1,"M3_BR","myth","CO",NA,5,1,NA
"1348",113,1,"M4_BR","myth","CO",NA,5,1,NA
"1349",113,1,"M5_BR","myth","CO",NA,9,1,NA
"1350",113,1,"M6_BR","myth","CO",NA,5,1,NA
"1351",113,1,"F1_BR","fact","CO",NA,5,1,NA
"1352",113,1,"F2_BR","fact","CO",NA,5,1,NA
"1353",113,1,"F3_BR","fact","CO",NA,2,1,NA
"1354",113,1,"F4_BR","fact","CO",NA,10,1,NA
"1355",113,1,"F5_BR","fact","CO",NA,5,1,NA
"1356",113,1,"F6_BR","fact","CO",NA,5,1,NA
"1357",114,1,"M1_BR","myth","NE",NA,10,0,NA
"1358",114,1,"M2_BR","myth","NE",NA,5,0,NA
"1359",114,1,"M3_BR","myth","NE",NA,7,0,NA
"1360",114,1,"M4_BR","myth","NE",NA,5,0,NA
"1361",114,1,"M5_BR","myth","NE",NA,7,0,NA
"1362",114,1,"M6_BR","myth","NE",NA,8,0,NA
"1363",114,1,"F1_BR","fact","NE",NA,0,0,NA
"1364",114,1,"F2_BR","fact","NE",NA,5,0,NA
"1365",114,1,"F3_BR","fact","NE",NA,2,0,NA
"1366",114,1,"F4_BR","fact","NE",NA,5,0,NA
"1367",114,1,"F5_BR","fact","NE",NA,5,0,NA
"1368",114,1,"F6_BR","fact","NE",NA,8,0,NA
"1369",115,1,"M1_BR","myth","FCO",NA,0,1,NA
"1370",115,1,"M2_BR","myth","FCO",NA,2,1,NA
"1371",115,1,"M3_BR","myth","FCO",NA,4,1,NA
"1372",115,1,"M4_BR","myth","FCO",NA,9,1,NA
"1373",115,1,"M5_BR","myth","FCO",NA,4,1,NA
"1374",115,1,"M6_BR","myth","FCO",NA,2,1,NA
"1375",115,1,"F1_BR","fact","FCO",NA,6,1,NA
"1376",115,1,"F2_BR","fact","FCO",NA,5,1,NA
"1377",115,1,"F3_BR","fact","FCO",NA,5,1,NA
"1378",115,1,"F4_BR","fact","FCO",NA,10,1,NA
"1379",115,1,"F5_BR","fact","FCO",NA,0,1,NA
"1380",115,1,"F6_BR","fact","FCO",NA,2,1,NA
"1381",116,1,"M1_BR","myth","CO",NA,0,1,NA
"1382",116,1,"M2_BR","myth","CO",NA,3,1,NA
"1383",116,1,"M3_BR","myth","CO",NA,4,1,NA
"1384",116,1,"M4_BR","myth","CO",NA,5,1,NA
"1385",116,1,"M5_BR","myth","CO",NA,4,1,NA
"1386",116,1,"M6_BR","myth","CO",NA,0,1,NA
"1387",116,1,"F1_BR","fact","CO",NA,0,1,NA
"1388",116,1,"F2_BR","fact","CO",NA,2,1,NA
"1389",116,1,"F3_BR","fact","CO",NA,4,1,NA
"1390",116,1,"F4_BR","fact","CO",NA,10,1,NA
"1391",116,1,"F5_BR","fact","CO",NA,2,1,NA
"1392",116,1,"F6_BR","fact","CO",NA,1,1,NA
"1393",117,1,"M1_BR","myth","CO",NA,9,1,NA
"1394",117,1,"M2_BR","myth","CO",NA,8,1,NA
"1395",117,1,"M3_BR","myth","CO",NA,2,1,NA
"1396",117,1,"M4_BR","myth","CO",NA,7,1,NA
"1397",117,1,"M5_BR","myth","CO",NA,6,1,NA
"1398",117,1,"M6_BR","myth","CO",NA,1,1,NA
"1399",117,1,"F1_BR","fact","CO",NA,0,1,NA
"1400",117,1,"F2_BR","fact","CO",NA,0,1,NA
"1401",117,1,"F3_BR","fact","CO",NA,8,1,NA
"1402",117,1,"F4_BR","fact","CO",NA,10,1,NA
"1403",117,1,"F5_BR","fact","CO",NA,5,1,NA
"1404",117,1,"F6_BR","fact","CO",NA,0,1,NA
"1405",118,1,"M1_BR","myth","CO",NA,1,1,NA
"1406",118,1,"M2_BR","myth","CO",NA,5,1,NA
"1407",118,1,"M3_BR","myth","CO",NA,4,1,NA
"1408",118,1,"M4_BR","myth","CO",NA,1,1,NA
"1409",118,1,"M5_BR","myth","CO",NA,1,1,NA
"1410",118,1,"M6_BR","myth","CO",NA,2,1,NA
"1411",118,1,"F1_BR","fact","CO",NA,1,1,NA
"1412",118,1,"F2_BR","fact","CO",NA,2,1,NA
"1413",118,1,"F3_BR","fact","CO",NA,3,1,NA
"1414",118,1,"F4_BR","fact","CO",NA,0,1,NA
"1415",118,1,"F5_BR","fact","CO",NA,6,1,NA
"1416",118,1,"F6_BR","fact","CO",NA,1,1,NA
"1417",119,1,"M1_BR","myth","FCO",NA,6,1,NA
"1418",119,1,"M2_BR","myth","FCO",NA,5,1,NA
"1419",119,1,"M3_BR","myth","FCO",NA,5,1,NA
"1420",119,1,"M4_BR","myth","FCO",NA,0,1,NA
"1421",119,1,"M5_BR","myth","FCO",NA,6,1,NA
"1422",119,1,"M6_BR","myth","FCO",NA,2,1,NA
"1423",119,1,"F1_BR","fact","FCO",NA,1,1,NA
"1424",119,1,"F2_BR","fact","FCO",NA,10,1,NA
"1425",119,1,"F3_BR","fact","FCO",NA,10,1,NA
"1426",119,1,"F4_BR","fact","FCO",NA,0,1,NA
"1427",119,1,"F5_BR","fact","FCO",NA,5,1,NA
"1428",119,1,"F6_BR","fact","FCO",NA,0,1,NA
"1429",120,1,"M1_BR","myth","CFC",NA,3,1,NA
"1430",120,1,"M2_BR","myth","CFC",NA,8,1,NA
"1431",120,1,"M3_BR","myth","CFC",NA,6,1,NA
"1432",120,1,"M4_BR","myth","CFC",NA,0,1,NA
"1433",120,1,"M5_BR","myth","CFC",NA,8,1,NA
"1434",120,1,"M6_BR","myth","CFC",NA,3,1,NA
"1435",120,1,"F1_BR","fact","CFC",NA,4,1,NA
"1436",120,1,"F2_BR","fact","CFC",NA,9,1,NA
"1437",120,1,"F3_BR","fact","CFC",NA,4,1,NA
"1438",120,1,"F4_BR","fact","CFC",NA,8,1,NA
"1439",120,1,"F5_BR","fact","CFC",NA,10,1,NA
"1440",120,1,"F6_BR","fact","CFC",NA,0,1,NA
"1441",121,1,"M1_BR","myth","CFC",NA,0,1,NA
"1442",121,1,"M2_BR","myth","CFC",NA,10,1,NA
"1443",121,1,"M3_BR","myth","CFC",NA,10,1,NA
"1444",121,1,"M4_BR","myth","CFC",NA,0,1,NA
"1445",121,1,"M5_BR","myth","CFC",NA,0,1,NA
"1446",121,1,"M6_BR","myth","CFC",NA,0,1,NA
"1447",121,1,"F1_BR","fact","CFC",NA,10,1,NA
"1448",121,1,"F2_BR","fact","CFC",NA,10,1,NA
"1449",121,1,"F3_BR","fact","CFC",NA,7,1,NA
"1450",121,1,"F4_BR","fact","CFC",NA,10,1,NA
"1451",121,1,"F5_BR","fact","CFC",NA,10,1,NA
"1452",121,1,"F6_BR","fact","CFC",NA,10,1,NA
"1453",122,1,"M1_BR","myth","NE",NA,9,0,NA
"1454",122,1,"M2_BR","myth","NE",NA,8,0,NA
"1455",122,1,"M3_BR","myth","NE",NA,6,0,NA
"1456",122,1,"M4_BR","myth","NE",NA,8,0,NA
"1457",122,1,"M5_BR","myth","NE",NA,5,0,NA
"1458",122,1,"M6_BR","myth","NE",NA,6,0,NA
"1459",122,1,"F1_BR","fact","NE",NA,2,0,NA
"1460",122,1,"F2_BR","fact","NE",NA,2,0,NA
"1461",122,1,"F3_BR","fact","NE",NA,6,0,NA
"1462",122,1,"F4_BR","fact","NE",NA,2,0,NA
"1463",122,1,"F5_BR","fact","NE",NA,6,0,NA
"1464",122,1,"F6_BR","fact","NE",NA,6,0,NA
"1465",123,1,"M1_BR","myth","NE",NA,0,0,NA
"1466",123,1,"M2_BR","myth","NE",NA,0,0,NA
"1467",123,1,"M3_BR","myth","NE",NA,7,0,NA
"1468",123,1,"M4_BR","myth","NE",NA,0,0,NA
"1469",123,1,"M5_BR","myth","NE",NA,8,0,NA
"1470",123,1,"M6_BR","myth","NE",NA,0,0,NA
"1471",123,1,"F1_BR","fact","NE",NA,0,0,NA
"1472",123,1,"F2_BR","fact","NE",NA,0,0,NA
"1473",123,1,"F3_BR","fact","NE",NA,8,0,NA
"1474",123,1,"F4_BR","fact","NE",NA,5,0,NA
"1475",123,1,"F5_BR","fact","NE",NA,1,0,NA
"1476",123,1,"F6_BR","fact","NE",NA,6,0,NA
"1477",124,1,"M1_BR","myth","CO",NA,3,1,NA
"1478",124,1,"M2_BR","myth","CO",NA,7,1,NA
"1479",124,1,"M3_BR","myth","CO",NA,2,1,NA
"1480",124,1,"M4_BR","myth","CO",NA,5,1,NA
"1481",124,1,"M5_BR","myth","CO",NA,4,1,NA
"1482",124,1,"M6_BR","myth","CO",NA,1,1,NA
"1483",124,1,"F1_BR","fact","CO",NA,2,1,NA
"1484",124,1,"F2_BR","fact","CO",NA,1,1,NA
"1485",124,1,"F3_BR","fact","CO",NA,5,1,NA
"1486",124,1,"F4_BR","fact","CO",NA,8,1,NA
"1487",124,1,"F5_BR","fact","CO",NA,4,1,NA
"1488",124,1,"F6_BR","fact","CO",NA,2,1,NA
"1489",125,1,"M1_BR","myth","FCO",NA,5,1,NA
"1490",125,1,"M2_BR","myth","FCO",NA,9,1,NA
"1491",125,1,"M3_BR","myth","FCO",NA,8,1,NA
"1492",125,1,"M4_BR","myth","FCO",NA,0,1,NA
"1493",125,1,"M5_BR","myth","FCO",NA,5,1,NA
"1494",125,1,"M6_BR","myth","FCO",NA,0,1,NA
"1495",125,1,"F1_BR","fact","FCO",NA,1,1,NA
"1496",125,1,"F2_BR","fact","FCO",NA,9,1,NA
"1497",125,1,"F3_BR","fact","FCO",NA,10,1,NA
"1498",125,1,"F4_BR","fact","FCO",NA,10,1,NA
"1499",125,1,"F5_BR","fact","FCO",NA,9,1,NA
"1500",125,1,"F6_BR","fact","FCO",NA,3,1,NA
"1501",126,1,"M1_BR","myth","FCO",NA,0,1,NA
"1502",126,1,"M2_BR","myth","FCO",NA,6,1,NA
"1503",126,1,"M3_BR","myth","FCO",NA,3,1,NA
"1504",126,1,"M4_BR","myth","FCO",NA,3,1,NA
"1505",126,1,"M5_BR","myth","FCO",NA,4,1,NA
"1506",126,1,"M6_BR","myth","FCO",NA,8,1,NA
"1507",126,1,"F1_BR","fact","FCO",NA,8,1,NA
"1508",126,1,"F2_BR","fact","FCO",NA,9,1,NA
"1509",126,1,"F3_BR","fact","FCO",NA,8,1,NA
"1510",126,1,"F4_BR","fact","FCO",NA,10,1,NA
"1511",126,1,"F5_BR","fact","FCO",NA,7,1,NA
"1512",126,1,"F6_BR","fact","FCO",NA,1,1,NA
"1513",127,1,"M1_BR","myth","FCO",NA,0,1,NA
"1514",127,1,"M2_BR","myth","FCO",NA,3,1,NA
"1515",127,1,"M3_BR","myth","FCO",NA,7,1,NA
"1516",127,1,"M4_BR","myth","FCO",NA,1,1,NA
"1517",127,1,"M5_BR","myth","FCO",NA,2,1,NA
"1518",127,1,"M6_BR","myth","FCO",NA,1,1,NA
"1519",127,1,"F1_BR","fact","FCO",NA,7,1,NA
"1520",127,1,"F2_BR","fact","FCO",NA,2,1,NA
"1521",127,1,"F3_BR","fact","FCO",NA,5,1,NA
"1522",127,1,"F4_BR","fact","FCO",NA,9,1,NA
"1523",127,1,"F5_BR","fact","FCO",NA,7,1,NA
"1524",127,1,"F6_BR","fact","FCO",NA,2,1,NA
"1525",128,1,"M1_BR","myth","CO",NA,10,1,NA
"1526",128,1,"M2_BR","myth","CO",NA,0,1,NA
"1527",128,1,"M3_BR","myth","CO",NA,0,1,NA
"1528",128,1,"M4_BR","myth","CO",NA,0,1,NA
"1529",128,1,"M5_BR","myth","CO",NA,0,1,NA
"1530",128,1,"M6_BR","myth","CO",NA,0,1,NA
"1531",128,1,"F1_BR","fact","CO",NA,0,1,NA
"1532",128,1,"F2_BR","fact","CO",NA,0,1,NA
"1533",128,1,"F3_BR","fact","CO",NA,10,1,NA
"1534",128,1,"F4_BR","fact","CO",NA,0,1,NA
"1535",128,1,"F5_BR","fact","CO",NA,0,1,NA
"1536",128,1,"F6_BR","fact","CO",NA,0,1,NA
"1537",129,1,"M1_BR","myth","FCO",NA,0,1,NA
"1538",129,1,"M2_BR","myth","FCO",NA,0,1,NA
"1539",129,1,"M3_BR","myth","FCO",NA,0,1,NA
"1540",129,1,"M4_BR","myth","FCO",NA,0,1,NA
"1541",129,1,"M5_BR","myth","FCO",NA,0,1,NA
"1542",129,1,"M6_BR","myth","FCO",NA,0,1,NA
"1543",129,1,"F1_BR","fact","FCO",NA,10,1,NA
"1544",129,1,"F2_BR","fact","FCO",NA,10,1,NA
"1545",129,1,"F3_BR","fact","FCO",NA,10,1,NA
"1546",129,1,"F4_BR","fact","FCO",NA,0,1,NA
"1547",129,1,"F5_BR","fact","FCO",NA,10,1,NA
"1548",129,1,"F6_BR","fact","FCO",NA,10,1,NA
"1549",130,1,"M1_BR","myth","NE",NA,0,0,NA
"1550",130,1,"M2_BR","myth","NE",NA,5,0,NA
"1551",130,1,"M3_BR","myth","NE",NA,5,0,NA
"1552",130,1,"M4_BR","myth","NE",NA,5,0,NA
"1553",130,1,"M5_BR","myth","NE",NA,5,0,NA
"1554",130,1,"M6_BR","myth","NE",NA,8,0,NA
"1555",130,1,"F1_BR","fact","NE",NA,2,0,NA
"1556",130,1,"F2_BR","fact","NE",NA,5,0,NA
"1557",130,1,"F3_BR","fact","NE",NA,4,0,NA
"1558",130,1,"F4_BR","fact","NE",NA,5,0,NA
"1559",130,1,"F5_BR","fact","NE",NA,2,0,NA
"1560",130,1,"F6_BR","fact","NE",NA,5,0,NA
"1561",131,1,"M1_BR","myth","NE",NA,5,0,NA
"1562",131,1,"M2_BR","myth","NE",NA,9,0,NA
"1563",131,1,"M3_BR","myth","NE",NA,4,0,NA
"1564",131,1,"M4_BR","myth","NE",NA,6,0,NA
"1565",131,1,"M5_BR","myth","NE",NA,9,0,NA
"1566",131,1,"M6_BR","myth","NE",NA,5,0,NA
"1567",131,1,"F1_BR","fact","NE",NA,0,0,NA
"1568",131,1,"F2_BR","fact","NE",NA,7,0,NA
"1569",131,1,"F3_BR","fact","NE",NA,5,0,NA
"1570",131,1,"F4_BR","fact","NE",NA,10,0,NA
"1571",131,1,"F5_BR","fact","NE",NA,0,0,NA
"1572",131,1,"F6_BR","fact","NE",NA,4,0,NA
"1573",132,1,"M1_BR","myth","FCO",NA,1,1,NA
"1574",132,1,"M2_BR","myth","FCO",NA,6,1,NA
"1575",132,1,"M3_BR","myth","FCO",NA,7,1,NA
"1576",132,1,"M4_BR","myth","FCO",NA,4,1,NA
"1577",132,1,"M5_BR","myth","FCO",NA,5,1,NA
"1578",132,1,"M6_BR","myth","FCO",NA,3,1,NA
"1579",132,1,"F1_BR","fact","FCO",NA,0,1,NA
"1580",132,1,"F2_BR","fact","FCO",NA,3,1,NA
"1581",132,1,"F3_BR","fact","FCO",NA,7,1,NA
"1582",132,1,"F4_BR","fact","FCO",NA,10,1,NA
"1583",132,1,"F5_BR","fact","FCO",NA,6,1,NA
"1584",132,1,"F6_BR","fact","FCO",NA,3,1,NA
"1585",133,1,"M1_BR","myth","CFC",NA,5,1,NA
"1586",133,1,"M2_BR","myth","CFC",NA,0,1,NA
"1587",133,1,"M3_BR","myth","CFC",NA,0,1,NA
"1588",133,1,"M4_BR","myth","CFC",NA,0,1,NA
"1589",133,1,"M5_BR","myth","CFC",NA,5,1,NA
"1590",133,1,"M6_BR","myth","CFC",NA,0,1,NA
"1591",133,1,"F1_BR","fact","CFC",NA,0,1,NA
"1592",133,1,"F2_BR","fact","CFC",NA,0,1,NA
"1593",133,1,"F3_BR","fact","CFC",NA,5,1,NA
"1594",133,1,"F4_BR","fact","CFC",NA,10,1,NA
"1595",133,1,"F5_BR","fact","CFC",NA,5,1,NA
"1596",133,1,"F6_BR","fact","CFC",NA,0,1,NA
"1597",134,1,"M1_BR","myth","FCO",NA,8,1,NA
"1598",134,1,"M2_BR","myth","FCO",NA,6,1,NA
"1599",134,1,"M3_BR","myth","FCO",NA,10,1,NA
"1600",134,1,"M4_BR","myth","FCO",NA,6,1,NA
"1601",134,1,"M5_BR","myth","FCO",NA,8,1,NA
"1602",134,1,"M6_BR","myth","FCO",NA,9,1,NA
"1603",134,1,"F1_BR","fact","FCO",NA,9,1,NA
"1604",134,1,"F2_BR","fact","FCO",NA,7,1,NA
"1605",134,1,"F3_BR","fact","FCO",NA,9,1,NA
"1606",134,1,"F4_BR","fact","FCO",NA,10,1,NA
"1607",134,1,"F5_BR","fact","FCO",NA,8,1,NA
"1608",134,1,"F6_BR","fact","FCO",NA,7,1,NA
"1609",135,1,"M1_BR","myth","NE",NA,3,0,NA
"1610",135,1,"M2_BR","myth","NE",NA,3,0,NA
"1611",135,1,"M3_BR","myth","NE",NA,8,0,NA
"1612",135,1,"M4_BR","myth","NE",NA,0,0,NA
"1613",135,1,"M5_BR","myth","NE",NA,7,0,NA
"1614",135,1,"M6_BR","myth","NE",NA,9,0,NA
"1615",135,1,"F1_BR","fact","NE",NA,3,0,NA
"1616",135,1,"F2_BR","fact","NE",NA,6,0,NA
"1617",135,1,"F3_BR","fact","NE",NA,5,0,NA
"1618",135,1,"F4_BR","fact","NE",NA,5,0,NA
"1619",135,1,"F5_BR","fact","NE",NA,3,0,NA
"1620",135,1,"F6_BR","fact","NE",NA,0,0,NA
"1621",136,1,"M1_BR","myth","NE",NA,10,0,NA
"1622",136,1,"M2_BR","myth","NE",NA,10,0,NA
"1623",136,1,"M3_BR","myth","NE",NA,10,0,NA
"1624",136,1,"M4_BR","myth","NE",NA,0,0,NA
"1625",136,1,"M5_BR","myth","NE",NA,10,0,NA
"1626",136,1,"M6_BR","myth","NE",NA,10,0,NA
"1627",136,1,"F1_BR","fact","NE",NA,10,0,NA
"1628",136,1,"F2_BR","fact","NE",NA,0,0,NA
"1629",136,1,"F3_BR","fact","NE",NA,10,0,NA
"1630",136,1,"F4_BR","fact","NE",NA,0,0,NA
"1631",136,1,"F5_BR","fact","NE",NA,0,0,NA
"1632",136,1,"F6_BR","fact","NE",NA,0,0,NA
"1633",137,1,"M1_BR","myth","NE",NA,0,0,NA
"1634",137,1,"M2_BR","myth","NE",NA,9,0,NA
"1635",137,1,"M3_BR","myth","NE",NA,5,0,NA
"1636",137,1,"M4_BR","myth","NE",NA,7,0,NA
"1637",137,1,"M5_BR","myth","NE",NA,8,0,NA
"1638",137,1,"M6_BR","myth","NE",NA,8,0,NA
"1639",137,1,"F1_BR","fact","NE",NA,6,0,NA
"1640",137,1,"F2_BR","fact","NE",NA,5,0,NA
"1641",137,1,"F3_BR","fact","NE",NA,1,0,NA
"1642",137,1,"F4_BR","fact","NE",NA,5,0,NA
"1643",137,1,"F5_BR","fact","NE",NA,6,0,NA
"1644",137,1,"F6_BR","fact","NE",NA,9,0,NA
"1645",138,1,"M1_BR","myth","CO",NA,0,1,NA
"1646",138,1,"M2_BR","myth","CO",NA,5,1,NA
"1647",138,1,"M3_BR","myth","CO",NA,4,1,NA
"1648",138,1,"M4_BR","myth","CO",NA,5,1,NA
"1649",138,1,"M5_BR","myth","CO",NA,10,1,NA
"1650",138,1,"M6_BR","myth","CO",NA,10,1,NA
"1651",138,1,"F1_BR","fact","CO",NA,0,1,NA
"1652",138,1,"F2_BR","fact","CO",NA,0,1,NA
"1653",138,1,"F3_BR","fact","CO",NA,10,1,NA
"1654",138,1,"F4_BR","fact","CO",NA,0,1,NA
"1655",138,1,"F5_BR","fact","CO",NA,10,1,NA
"1656",138,1,"F6_BR","fact","CO",NA,0,1,NA
"1657",139,1,"M1_BR","myth","CFC",NA,8,1,NA
"1658",139,1,"M2_BR","myth","CFC",NA,6,1,NA
"1659",139,1,"M3_BR","myth","CFC",NA,2,1,NA
"1660",139,1,"M4_BR","myth","CFC",NA,0,1,NA
"1661",139,1,"M5_BR","myth","CFC",NA,2,1,NA
"1662",139,1,"M6_BR","myth","CFC",NA,0,1,NA
"1663",139,1,"F1_BR","fact","CFC",NA,10,1,NA
"1664",139,1,"F2_BR","fact","CFC",NA,2,1,NA
"1665",139,1,"F3_BR","fact","CFC",NA,9,1,NA
"1666",139,1,"F4_BR","fact","CFC",NA,10,1,NA
"1667",139,1,"F5_BR","fact","CFC",NA,8,1,NA
"1668",139,1,"F6_BR","fact","CFC",NA,8,1,NA
"1669",140,1,"M1_BR","myth","CFC",NA,0,1,NA
"1670",140,1,"M2_BR","myth","CFC",NA,5,1,NA
"1671",140,1,"M3_BR","myth","CFC",NA,0,1,NA
"1672",140,1,"M4_BR","myth","CFC",NA,0,1,NA
"1673",140,1,"M5_BR","myth","CFC",NA,5,1,NA
"1674",140,1,"M6_BR","myth","CFC",NA,0,1,NA
"1675",140,1,"F1_BR","fact","CFC",NA,0,1,NA
"1676",140,1,"F2_BR","fact","CFC",NA,5,1,NA
"1677",140,1,"F3_BR","fact","CFC",NA,0,1,NA
"1678",140,1,"F4_BR","fact","CFC",NA,5,1,NA
"1679",140,1,"F5_BR","fact","CFC",NA,3,1,NA
"1680",140,1,"F6_BR","fact","CFC",NA,0,1,NA
"1681",141,1,"M1_BR","myth","CFC",NA,0,1,NA
"1682",141,1,"M2_BR","myth","CFC",NA,0,1,NA
"1683",141,1,"M3_BR","myth","CFC",NA,10,1,NA
"1684",141,1,"M4_BR","myth","CFC",NA,0,1,NA
"1685",141,1,"M5_BR","myth","CFC",NA,0,1,NA
"1686",141,1,"M6_BR","myth","CFC",NA,0,1,NA
"1687",141,1,"F1_BR","fact","CFC",NA,10,1,NA
"1688",141,1,"F2_BR","fact","CFC",NA,10,1,NA
"1689",141,1,"F3_BR","fact","CFC",NA,10,1,NA
"1690",141,1,"F4_BR","fact","CFC",NA,10,1,NA
"1691",141,1,"F5_BR","fact","CFC",NA,10,1,NA
"1692",141,1,"F6_BR","fact","CFC",NA,0,1,NA
"1693",142,1,"M1_BR","myth","FCO",NA,5,1,NA
"1694",142,1,"M2_BR","myth","FCO",NA,5,1,NA
"1695",142,1,"M3_BR","myth","FCO",NA,3,1,NA
"1696",142,1,"M4_BR","myth","FCO",NA,5,1,NA
"1697",142,1,"M5_BR","myth","FCO",NA,10,1,NA
"1698",142,1,"M6_BR","myth","FCO",NA,5,1,NA
"1699",142,1,"F1_BR","fact","FCO",NA,5,1,NA
"1700",142,1,"F2_BR","fact","FCO",NA,5,1,NA
"1701",142,1,"F3_BR","fact","FCO",NA,5,1,NA
"1702",142,1,"F4_BR","fact","FCO",NA,0,1,NA
"1703",142,1,"F5_BR","fact","FCO",NA,2,1,NA
"1704",142,1,"F6_BR","fact","FCO",NA,0,1,NA
"1705",143,1,"M1_BR","myth","FCO",NA,8,1,NA
"1706",143,1,"M2_BR","myth","FCO",NA,10,1,NA
"1707",143,1,"M3_BR","myth","FCO",NA,2,1,NA
"1708",143,1,"M4_BR","myth","FCO",NA,6,1,NA
"1709",143,1,"M5_BR","myth","FCO",NA,7,1,NA
"1710",143,1,"M6_BR","myth","FCO",NA,5,1,NA
"1711",143,1,"F1_BR","fact","FCO",NA,2,1,NA
"1712",143,1,"F2_BR","fact","FCO",NA,8,1,NA
"1713",143,1,"F3_BR","fact","FCO",NA,10,1,NA
"1714",143,1,"F4_BR","fact","FCO",NA,2,1,NA
"1715",143,1,"F5_BR","fact","FCO",NA,8,1,NA
"1716",143,1,"F6_BR","fact","FCO",NA,1,1,NA
"1717",144,1,"M1_BR","myth","CO",NA,0,1,NA
"1718",144,1,"M2_BR","myth","CO",NA,0,1,NA
"1719",144,1,"M3_BR","myth","CO",NA,2,1,NA
"1720",144,1,"M4_BR","myth","CO",NA,2,1,NA
"1721",144,1,"M5_BR","myth","CO",NA,8,1,NA
"1722",144,1,"M6_BR","myth","CO",NA,5,1,NA
"1723",144,1,"F1_BR","fact","CO",NA,0,1,NA
"1724",144,1,"F2_BR","fact","CO",NA,0,1,NA
"1725",144,1,"F3_BR","fact","CO",NA,5,1,NA
"1726",144,1,"F4_BR","fact","CO",NA,2,1,NA
"1727",144,1,"F5_BR","fact","CO",NA,5,1,NA
"1728",144,1,"F6_BR","fact","CO",NA,0,1,NA
"1729",145,1,"M1_BR","myth","CFC",NA,0,1,NA
"1730",145,1,"M2_BR","myth","CFC",NA,0,1,NA
"1731",145,1,"M3_BR","myth","CFC",NA,0,1,NA
"1732",145,1,"M4_BR","myth","CFC",NA,0,1,NA
"1733",145,1,"M5_BR","myth","CFC",NA,5,1,NA
"1734",145,1,"M6_BR","myth","CFC",NA,5,1,NA
"1735",145,1,"F1_BR","fact","CFC",NA,0,1,NA
"1736",145,1,"F2_BR","fact","CFC",NA,0,1,NA
"1737",145,1,"F3_BR","fact","CFC",NA,0,1,NA
"1738",145,1,"F4_BR","fact","CFC",NA,10,1,NA
"1739",145,1,"F5_BR","fact","CFC",NA,5,1,NA
"1740",145,1,"F6_BR","fact","CFC",NA,0,1,NA
"1741",146,1,"M1_BR","myth","CO",NA,5,1,NA
"1742",146,1,"M2_BR","myth","CO",NA,10,1,NA
"1743",146,1,"M3_BR","myth","CO",NA,7,1,NA
"1744",146,1,"M4_BR","myth","CO",NA,5,1,NA
"1745",146,1,"M5_BR","myth","CO",NA,10,1,NA
"1746",146,1,"M6_BR","myth","CO",NA,10,1,NA
"1747",146,1,"F1_BR","fact","CO",NA,7,1,NA
"1748",146,1,"F2_BR","fact","CO",NA,10,1,NA
"1749",146,1,"F3_BR","fact","CO",NA,5,1,NA
"1750",146,1,"F4_BR","fact","CO",NA,10,1,NA
"1751",146,1,"F5_BR","fact","CO",NA,5,1,NA
"1752",146,1,"F6_BR","fact","CO",NA,0,1,NA
"1753",147,1,"M1_BR","myth","CFC",NA,7,1,NA
"1754",147,1,"M2_BR","myth","CFC",NA,3,1,NA
"1755",147,1,"M3_BR","myth","CFC",NA,0,1,NA
"1756",147,1,"M4_BR","myth","CFC",NA,0,1,NA
"1757",147,1,"M5_BR","myth","CFC",NA,0,1,NA
"1758",147,1,"M6_BR","myth","CFC",NA,0,1,NA
"1759",147,1,"F1_BR","fact","CFC",NA,0,1,NA
"1760",147,1,"F2_BR","fact","CFC",NA,0,1,NA
"1761",147,1,"F3_BR","fact","CFC",NA,7,1,NA
"1762",147,1,"F4_BR","fact","CFC",NA,0,1,NA
"1763",147,1,"F5_BR","fact","CFC",NA,7,1,NA
"1764",147,1,"F6_BR","fact","CFC",NA,5,1,NA
"1765",148,1,"M1_BR","myth","CO",NA,5,1,NA
"1766",148,1,"M2_BR","myth","CO",NA,5,1,NA
"1767",148,1,"M3_BR","myth","CO",NA,5,1,NA
"1768",148,1,"M4_BR","myth","CO",NA,0,1,NA
"1769",148,1,"M5_BR","myth","CO",NA,10,1,NA
"1770",148,1,"M6_BR","myth","CO",NA,10,1,NA
"1771",148,1,"F1_BR","fact","CO",NA,0,1,NA
"1772",148,1,"F2_BR","fact","CO",NA,0,1,NA
"1773",148,1,"F3_BR","fact","CO",NA,5,1,NA
"1774",148,1,"F4_BR","fact","CO",NA,0,1,NA
"1775",148,1,"F5_BR","fact","CO",NA,5,1,NA
"1776",148,1,"F6_BR","fact","CO",NA,0,1,NA
"1777",149,1,"M1_BR","myth","CO",NA,4,1,NA
"1778",149,1,"M2_BR","myth","CO",NA,4,1,NA
"1779",149,1,"M3_BR","myth","CO",NA,2,1,NA
"1780",149,1,"M4_BR","myth","CO",NA,3,1,NA
"1781",149,1,"M5_BR","myth","CO",NA,1,1,NA
"1782",149,1,"M6_BR","myth","CO",NA,10,1,NA
"1783",149,1,"F1_BR","fact","CO",NA,3,1,NA
"1784",149,1,"F2_BR","fact","CO",NA,5,1,NA
"1785",149,1,"F3_BR","fact","CO",NA,6,1,NA
"1786",149,1,"F4_BR","fact","CO",NA,4,1,NA
"1787",149,1,"F5_BR","fact","CO",NA,5,1,NA
"1788",149,1,"F6_BR","fact","CO",NA,2,1,NA
"1789",150,1,"M1_BR","myth","NE",NA,4,0,NA
"1790",150,1,"M2_BR","myth","NE",NA,5,0,NA
"1791",150,1,"M3_BR","myth","NE",NA,8,0,NA
"1792",150,1,"M4_BR","myth","NE",NA,3,0,NA
"1793",150,1,"M5_BR","myth","NE",NA,2,0,NA
"1794",150,1,"M6_BR","myth","NE",NA,5,0,NA
"1795",150,1,"F1_BR","fact","NE",NA,2,0,NA
"1796",150,1,"F2_BR","fact","NE",NA,5,0,NA
"1797",150,1,"F3_BR","fact","NE",NA,7,0,NA
"1798",150,1,"F4_BR","fact","NE",NA,3,0,NA
"1799",150,1,"F5_BR","fact","NE",NA,4,0,NA
"1800",150,1,"F6_BR","fact","NE",NA,4,0,NA
"1801",151,1,"M1_BR","myth","NE",NA,2,0,NA
"1802",151,1,"M2_BR","myth","NE",NA,7,0,NA
"1803",151,1,"M3_BR","myth","NE",NA,3,0,NA
"1804",151,1,"M4_BR","myth","NE",NA,3,0,NA
"1805",151,1,"M5_BR","myth","NE",NA,3,0,NA
"1806",151,1,"M6_BR","myth","NE",NA,10,0,NA
"1807",151,1,"F1_BR","fact","NE",NA,1,0,NA
"1808",151,1,"F2_BR","fact","NE",NA,0,0,NA
"1809",151,1,"F3_BR","fact","NE",NA,4,0,NA
"1810",151,1,"F4_BR","fact","NE",NA,3,0,NA
"1811",151,1,"F5_BR","fact","NE",NA,3,0,NA
"1812",151,1,"F6_BR","fact","NE",NA,3,0,NA
"1813",152,1,"M1_BR","myth","FCO",NA,7,1,NA
"1814",152,1,"M2_BR","myth","FCO",NA,1,1,NA
"1815",152,1,"M3_BR","myth","FCO",NA,2,1,NA
"1816",152,1,"M4_BR","myth","FCO",NA,5,1,NA
"1817",152,1,"M5_BR","myth","FCO",NA,8,1,NA
"1818",152,1,"M6_BR","myth","FCO",NA,5,1,NA
"1819",152,1,"F1_BR","fact","FCO",NA,10,1,NA
"1820",152,1,"F2_BR","fact","FCO",NA,10,1,NA
"1821",152,1,"F3_BR","fact","FCO",NA,7,1,NA
"1822",152,1,"F4_BR","fact","FCO",NA,10,1,NA
"1823",152,1,"F5_BR","fact","FCO",NA,9,1,NA
"1824",152,1,"F6_BR","fact","FCO",NA,7,1,NA
"1825",153,1,"M1_BR","myth","CO",NA,8,1,NA
"1826",153,1,"M2_BR","myth","CO",NA,0,1,NA
"1827",153,1,"M3_BR","myth","CO",NA,1,1,NA
"1828",153,1,"M4_BR","myth","CO",NA,1,1,NA
"1829",153,1,"M5_BR","myth","CO",NA,9,1,NA
"1830",153,1,"M6_BR","myth","CO",NA,5,1,NA
"1831",153,1,"F1_BR","fact","CO",NA,2,1,NA
"1832",153,1,"F2_BR","fact","CO",NA,2,1,NA
"1833",153,1,"F3_BR","fact","CO",NA,5,1,NA
"1834",153,1,"F4_BR","fact","CO",NA,4,1,NA
"1835",153,1,"F5_BR","fact","CO",NA,2,1,NA
"1836",153,1,"F6_BR","fact","CO",NA,5,1,NA
"1837",154,1,"M1_BR","myth","NE",NA,0,0,NA
"1838",154,1,"M2_BR","myth","NE",NA,4,0,NA
"1839",154,1,"M3_BR","myth","NE",NA,3,0,NA
"1840",154,1,"M4_BR","myth","NE",NA,4,0,NA
"1841",154,1,"M5_BR","myth","NE",NA,3,0,NA
"1842",154,1,"M6_BR","myth","NE",NA,2,0,NA
"1843",154,1,"F1_BR","fact","NE",NA,2,0,NA
"1844",154,1,"F2_BR","fact","NE",NA,5,0,NA
"1845",154,1,"F3_BR","fact","NE",NA,1,0,NA
"1846",154,1,"F4_BR","fact","NE",NA,5,0,NA
"1847",154,1,"F5_BR","fact","NE",NA,0,0,NA
"1848",154,1,"F6_BR","fact","NE",NA,1,0,NA
"1849",155,1,"M1_BR","myth","CFC",NA,0,1,NA
"1850",155,1,"M2_BR","myth","CFC",NA,2,1,NA
"1851",155,1,"M3_BR","myth","CFC",NA,4,1,NA
"1852",155,1,"M4_BR","myth","CFC",NA,0,1,NA
"1853",155,1,"M5_BR","myth","CFC",NA,8,1,NA
"1854",155,1,"M6_BR","myth","CFC",NA,0,1,NA
"1855",155,1,"F1_BR","fact","CFC",NA,7,1,NA
"1856",155,1,"F2_BR","fact","CFC",NA,10,1,NA
"1857",155,1,"F3_BR","fact","CFC",NA,7,1,NA
"1858",155,1,"F4_BR","fact","CFC",NA,10,1,NA
"1859",155,1,"F5_BR","fact","CFC",NA,9,1,NA
"1860",155,1,"F6_BR","fact","CFC",NA,8,1,NA
"1861",156,1,"M1_BR","myth","CO",NA,8,1,NA
"1862",156,1,"M2_BR","myth","CO",NA,7,1,NA
"1863",156,1,"M3_BR","myth","CO",NA,7,1,NA
"1864",156,1,"M4_BR","myth","CO",NA,7,1,NA
"1865",156,1,"M5_BR","myth","CO",NA,1,1,NA
"1866",156,1,"M6_BR","myth","CO",NA,4,1,NA
"1867",156,1,"F1_BR","fact","CO",NA,0,1,NA
"1868",156,1,"F2_BR","fact","CO",NA,2,1,NA
"1869",156,1,"F3_BR","fact","CO",NA,10,1,NA
"1870",156,1,"F4_BR","fact","CO",NA,3,1,NA
"1871",156,1,"F5_BR","fact","CO",NA,10,1,NA
"1872",156,1,"F6_BR","fact","CO",NA,7,1,NA
"1873",157,1,"M1_BR","myth","CO",NA,0,1,NA
"1874",157,1,"M2_BR","myth","CO",NA,1,1,NA
"1875",157,1,"M3_BR","myth","CO",NA,2,1,NA
"1876",157,1,"M4_BR","myth","CO",NA,2,1,NA
"1877",157,1,"M5_BR","myth","CO",NA,5,1,NA
"1878",157,1,"M6_BR","myth","CO",NA,1,1,NA
"1879",157,1,"F1_BR","fact","CO",NA,0,1,NA
"1880",157,1,"F2_BR","fact","CO",NA,0,1,NA
"1881",157,1,"F3_BR","fact","CO",NA,6,1,NA
"1882",157,1,"F4_BR","fact","CO",NA,1,1,NA
"1883",157,1,"F5_BR","fact","CO",NA,2,1,NA
"1884",157,1,"F6_BR","fact","CO",NA,5,1,NA
"1885",158,1,"M1_BR","myth","CFC",NA,4,1,NA
"1886",158,1,"M2_BR","myth","CFC",NA,4,1,NA
"1887",158,1,"M3_BR","myth","CFC",NA,5,1,NA
"1888",158,1,"M4_BR","myth","CFC",NA,2,1,NA
"1889",158,1,"M5_BR","myth","CFC",NA,3,1,NA
"1890",158,1,"M6_BR","myth","CFC",NA,2,1,NA
"1891",158,1,"F1_BR","fact","CFC",NA,2,1,NA
"1892",158,1,"F2_BR","fact","CFC",NA,6,1,NA
"1893",158,1,"F3_BR","fact","CFC",NA,4,1,NA
"1894",158,1,"F4_BR","fact","CFC",NA,3,1,NA
"1895",158,1,"F5_BR","fact","CFC",NA,2,1,NA
"1896",158,1,"F6_BR","fact","CFC",NA,6,1,NA
"1897",159,1,"M1_BR","myth","FCO",NA,1,1,NA
"1898",159,1,"M2_BR","myth","FCO",NA,8,1,NA
"1899",159,1,"M3_BR","myth","FCO",NA,7,1,NA
"1900",159,1,"M4_BR","myth","FCO",NA,5,1,NA
"1901",159,1,"M5_BR","myth","FCO",NA,2,1,NA
"1902",159,1,"M6_BR","myth","FCO",NA,2,1,NA
"1903",159,1,"F1_BR","fact","FCO",NA,3,1,NA
"1904",159,1,"F2_BR","fact","FCO",NA,1,1,NA
"1905",159,1,"F3_BR","fact","FCO",NA,8,1,NA
"1906",159,1,"F4_BR","fact","FCO",NA,6,1,NA
"1907",159,1,"F5_BR","fact","FCO",NA,6,1,NA
"1908",159,1,"F6_BR","fact","FCO",NA,3,1,NA
"1909",160,1,"M1_BR","myth","CO",NA,8,1,NA
"1910",160,1,"M2_BR","myth","CO",NA,8,1,NA
"1911",160,1,"M3_BR","myth","CO",NA,8,1,NA
"1912",160,1,"M4_BR","myth","CO",NA,2,1,NA
"1913",160,1,"M5_BR","myth","CO",NA,10,1,NA
"1914",160,1,"M6_BR","myth","CO",NA,2,1,NA
"1915",160,1,"F1_BR","fact","CO",NA,5,1,NA
"1916",160,1,"F2_BR","fact","CO",NA,2,1,NA
"1917",160,1,"F3_BR","fact","CO",NA,8,1,NA
"1918",160,1,"F4_BR","fact","CO",NA,2,1,NA
"1919",160,1,"F5_BR","fact","CO",NA,2,1,NA
"1920",160,1,"F6_BR","fact","CO",NA,2,1,NA
"1921",161,1,"M1_BR","myth","NE",NA,2,0,NA
"1922",161,1,"M2_BR","myth","NE",NA,5,0,NA
"1923",161,1,"M3_BR","myth","NE",NA,5,0,NA
"1924",161,1,"M4_BR","myth","NE",NA,3,0,NA
"1925",161,1,"M5_BR","myth","NE",NA,4,0,NA
"1926",161,1,"M6_BR","myth","NE",NA,4,0,NA
"1927",161,1,"F1_BR","fact","NE",NA,5,0,NA
"1928",161,1,"F2_BR","fact","NE",NA,1,0,NA
"1929",161,1,"F3_BR","fact","NE",NA,8,0,NA
"1930",161,1,"F4_BR","fact","NE",NA,6,0,NA
"1931",161,1,"F5_BR","fact","NE",NA,6,0,NA
"1932",161,1,"F6_BR","fact","NE",NA,4,0,NA
"1933",162,1,"M1_BR","myth","FCO",NA,8,1,NA
"1934",162,1,"M2_BR","myth","FCO",NA,8,1,NA
"1935",162,1,"M3_BR","myth","FCO",NA,3,1,NA
"1936",162,1,"M4_BR","myth","FCO",NA,5,1,NA
"1937",162,1,"M5_BR","myth","FCO",NA,7,1,NA
"1938",162,1,"M6_BR","myth","FCO",NA,2,1,NA
"1939",162,1,"F1_BR","fact","FCO",NA,7,1,NA
"1940",162,1,"F2_BR","fact","FCO",NA,6,1,NA
"1941",162,1,"F3_BR","fact","FCO",NA,8,1,NA
"1942",162,1,"F4_BR","fact","FCO",NA,1,1,NA
"1943",162,1,"F5_BR","fact","FCO",NA,7,1,NA
"1944",162,1,"F6_BR","fact","FCO",NA,6,1,NA
"1945",163,1,"M1_BR","myth","FCO",NA,8,1,NA
"1946",163,1,"M2_BR","myth","FCO",NA,4,1,NA
"1947",163,1,"M3_BR","myth","FCO",NA,8,1,NA
"1948",163,1,"M4_BR","myth","FCO",NA,5,1,NA
"1949",163,1,"M5_BR","myth","FCO",NA,2,1,NA
"1950",163,1,"M6_BR","myth","FCO",NA,8,1,NA
"1951",163,1,"F1_BR","fact","FCO",NA,6,1,NA
"1952",163,1,"F2_BR","fact","FCO",NA,6,1,NA
"1953",163,1,"F3_BR","fact","FCO",NA,5,1,NA
"1954",163,1,"F4_BR","fact","FCO",NA,3,1,NA
"1955",163,1,"F5_BR","fact","FCO",NA,8,1,NA
"1956",163,1,"F6_BR","fact","FCO",NA,7,1,NA
"1957",164,1,"M1_BR","myth","NE",NA,2,0,NA
"1958",164,1,"M2_BR","myth","NE",NA,4,0,NA
"1959",164,1,"M3_BR","myth","NE",NA,5,0,NA
"1960",164,1,"M4_BR","myth","NE",NA,3,0,NA
"1961",164,1,"M5_BR","myth","NE",NA,0,0,NA
"1962",164,1,"M6_BR","myth","NE",NA,4,0,NA
"1963",164,1,"F1_BR","fact","NE",NA,3,0,NA
"1964",164,1,"F2_BR","fact","NE",NA,4,0,NA
"1965",164,1,"F3_BR","fact","NE",NA,5,0,NA
"1966",164,1,"F4_BR","fact","NE",NA,3,0,NA
"1967",164,1,"F5_BR","fact","NE",NA,6,0,NA
"1968",164,1,"F6_BR","fact","NE",NA,5,0,NA
"1969",165,1,"M1_BR","myth","NE",NA,0,0,NA
"1970",165,1,"M2_BR","myth","NE",NA,6,0,NA
"1971",165,1,"M3_BR","myth","NE",NA,4,0,NA
"1972",165,1,"M4_BR","myth","NE",NA,3,0,NA
"1973",165,1,"M5_BR","myth","NE",NA,5,0,NA
"1974",165,1,"M6_BR","myth","NE",NA,3,0,NA
"1975",165,1,"F1_BR","fact","NE",NA,0,0,NA
"1976",165,1,"F2_BR","fact","NE",NA,4,0,NA
"1977",165,1,"F3_BR","fact","NE",NA,5,0,NA
"1978",165,1,"F4_BR","fact","NE",NA,0,0,NA
"1979",165,1,"F5_BR","fact","NE",NA,5,0,NA
"1980",165,1,"F6_BR","fact","NE",NA,3,0,NA
"1981",166,1,"M1_BR","myth","NE",NA,0,0,NA
"1982",166,1,"M2_BR","myth","NE",NA,8,0,NA
"1983",166,1,"M3_BR","myth","NE",NA,7,0,NA
"1984",166,1,"M4_BR","myth","NE",NA,3,0,NA
"1985",166,1,"M5_BR","myth","NE",NA,2,0,NA
"1986",166,1,"M6_BR","myth","NE",NA,5,0,NA
"1987",166,1,"F1_BR","fact","NE",NA,0,0,NA
"1988",166,1,"F2_BR","fact","NE",NA,1,0,NA
"1989",166,1,"F3_BR","fact","NE",NA,4,0,NA
"1990",166,1,"F4_BR","fact","NE",NA,0,0,NA
"1991",166,1,"F5_BR","fact","NE",NA,5,0,NA
"1992",166,1,"F6_BR","fact","NE",NA,4,0,NA
"1993",167,1,"M1_BR","myth","CFC",NA,3,1,NA
"1994",167,1,"M2_BR","myth","CFC",NA,3,1,NA
"1995",167,1,"M3_BR","myth","CFC",NA,2,1,NA
"1996",167,1,"M4_BR","myth","CFC",NA,3,1,NA
"1997",167,1,"M5_BR","myth","CFC",NA,6,1,NA
"1998",167,1,"M6_BR","myth","CFC",NA,6,1,NA
"1999",167,1,"F1_BR","fact","CFC",NA,7,1,NA
"2000",167,1,"F2_BR","fact","CFC",NA,4,1,NA
"2001",167,1,"F3_BR","fact","CFC",NA,6,1,NA
"2002",167,1,"F4_BR","fact","CFC",NA,6,1,NA
"2003",167,1,"F5_BR","fact","CFC",NA,2,1,NA
"2004",167,1,"F6_BR","fact","CFC",NA,2,1,NA
"2005",168,1,"M1_BR","myth","FCO",NA,10,1,NA
"2006",168,1,"M2_BR","myth","FCO",NA,2,1,NA
"2007",168,1,"M3_BR","myth","FCO",NA,6,1,NA
"2008",168,1,"M4_BR","myth","FCO",NA,10,1,NA
"2009",168,1,"M5_BR","myth","FCO",NA,0,1,NA
"2010",168,1,"M6_BR","myth","FCO",NA,7,1,NA
"2011",168,1,"F1_BR","fact","FCO",NA,3,1,NA
"2012",168,1,"F2_BR","fact","FCO",NA,10,1,NA
"2013",168,1,"F3_BR","fact","FCO",NA,10,1,NA
"2014",168,1,"F4_BR","fact","FCO",NA,10,1,NA
"2015",168,1,"F5_BR","fact","FCO",NA,7,1,NA
"2016",168,1,"F6_BR","fact","FCO",NA,3,1,NA
"2017",169,1,"M1_BR","myth","FCO",NA,0,1,NA
"2018",169,1,"M2_BR","myth","FCO",NA,10,1,NA
"2019",169,1,"M3_BR","myth","FCO",NA,6,1,NA
"2020",169,1,"M4_BR","myth","FCO",NA,0,1,NA
"2021",169,1,"M5_BR","myth","FCO",NA,7,1,NA
"2022",169,1,"M6_BR","myth","FCO",NA,3,1,NA
"2023",169,1,"F1_BR","fact","FCO",NA,0,1,NA
"2024",169,1,"F2_BR","fact","FCO",NA,5,1,NA
"2025",169,1,"F3_BR","fact","FCO",NA,5,1,NA
"2026",169,1,"F4_BR","fact","FCO",NA,1,1,NA
"2027",169,1,"F5_BR","fact","FCO",NA,7,1,NA
"2028",169,1,"F6_BR","fact","FCO",NA,0,1,NA
"2029",170,1,"M1_BR","myth","CFC",NA,4,1,NA
"2030",170,1,"M2_BR","myth","CFC",NA,3,1,NA
"2031",170,1,"M3_BR","myth","CFC",NA,7,1,NA
"2032",170,1,"M4_BR","myth","CFC",NA,0,1,NA
"2033",170,1,"M5_BR","myth","CFC",NA,7,1,NA
"2034",170,1,"M6_BR","myth","CFC",NA,0,1,NA
"2035",170,1,"F1_BR","fact","CFC",NA,7,1,NA
"2036",170,1,"F2_BR","fact","CFC",NA,3,1,NA
"2037",170,1,"F3_BR","fact","CFC",NA,8,1,NA
"2038",170,1,"F4_BR","fact","CFC",NA,8,1,NA
"2039",170,1,"F5_BR","fact","CFC",NA,6,1,NA
"2040",170,1,"F6_BR","fact","CFC",NA,1,1,NA
"2041",171,1,"M1_BR","myth","CFC",NA,4,1,NA
"2042",171,1,"M2_BR","myth","CFC",NA,0,1,NA
"2043",171,1,"M3_BR","myth","CFC",NA,3,1,NA
"2044",171,1,"M4_BR","myth","CFC",NA,1,1,NA
"2045",171,1,"M5_BR","myth","CFC",NA,1,1,NA
"2046",171,1,"M6_BR","myth","CFC",NA,0,1,NA
"2047",171,1,"F1_BR","fact","CFC",NA,2,1,NA
"2048",171,1,"F2_BR","fact","CFC",NA,0,1,NA
"2049",171,1,"F3_BR","fact","CFC",NA,1,1,NA
"2050",171,1,"F4_BR","fact","CFC",NA,4,1,NA
"2051",171,1,"F5_BR","fact","CFC",NA,5,1,NA
"2052",171,1,"F6_BR","fact","CFC",NA,1,1,NA
"2053",172,1,"M1_BR","myth","CFC",NA,2,1,NA
"2054",172,1,"M2_BR","myth","CFC",NA,5,1,NA
"2055",172,1,"M3_BR","myth","CFC",NA,2,1,NA
"2056",172,1,"M4_BR","myth","CFC",NA,1,1,NA
"2057",172,1,"M5_BR","myth","CFC",NA,1,1,NA
"2058",172,1,"M6_BR","myth","CFC",NA,1,1,NA
"2059",172,1,"F1_BR","fact","CFC",NA,9,1,NA
"2060",172,1,"F2_BR","fact","CFC",NA,8,1,NA
"2061",172,1,"F3_BR","fact","CFC",NA,6,1,NA
"2062",172,1,"F4_BR","fact","CFC",NA,10,1,NA
"2063",172,1,"F5_BR","fact","CFC",NA,9,1,NA
"2064",172,1,"F6_BR","fact","CFC",NA,8,1,NA
"2065",173,1,"M1_BR","myth","CO",NA,5,1,NA
"2066",173,1,"M2_BR","myth","CO",NA,7,1,NA
"2067",173,1,"M3_BR","myth","CO",NA,4,1,NA
"2068",173,1,"M4_BR","myth","CO",NA,7,1,NA
"2069",173,1,"M5_BR","myth","CO",NA,4,1,NA
"2070",173,1,"M6_BR","myth","CO",NA,2,1,NA
"2071",173,1,"F1_BR","fact","CO",NA,4,1,NA
"2072",173,1,"F2_BR","fact","CO",NA,6,1,NA
"2073",173,1,"F3_BR","fact","CO",NA,3,1,NA
"2074",173,1,"F4_BR","fact","CO",NA,2,1,NA
"2075",173,1,"F5_BR","fact","CO",NA,7,1,NA
"2076",173,1,"F6_BR","fact","CO",NA,6,1,NA
"2077",174,1,"M1_BR","myth","NE",NA,4,0,NA
"2078",174,1,"M2_BR","myth","NE",NA,3,0,NA
"2079",174,1,"M3_BR","myth","NE",NA,4,0,NA
"2080",174,1,"M4_BR","myth","NE",NA,1,0,NA
"2081",174,1,"M5_BR","myth","NE",NA,6,0,NA
"2082",174,1,"M6_BR","myth","NE",NA,9,0,NA
"2083",174,1,"F1_BR","fact","NE",NA,7,0,NA
"2084",174,1,"F2_BR","fact","NE",NA,0,0,NA
"2085",174,1,"F3_BR","fact","NE",NA,8,0,NA
"2086",174,1,"F4_BR","fact","NE",NA,10,0,NA
"2087",174,1,"F5_BR","fact","NE",NA,3,0,NA
"2088",174,1,"F6_BR","fact","NE",NA,1,0,NA
"2089",175,1,"M1_BR","myth","NE",NA,3,0,NA
"2090",175,1,"M2_BR","myth","NE",NA,5,0,NA
"2091",175,1,"M3_BR","myth","NE",NA,5,0,NA
"2092",175,1,"M4_BR","myth","NE",NA,0,0,NA
"2093",175,1,"M5_BR","myth","NE",NA,5,0,NA
"2094",175,1,"M6_BR","myth","NE",NA,2,0,NA
"2095",175,1,"F1_BR","fact","NE",NA,0,0,NA
"2096",175,1,"F2_BR","fact","NE",NA,1,0,NA
"2097",175,1,"F3_BR","fact","NE",NA,7,0,NA
"2098",175,1,"F4_BR","fact","NE",NA,3,0,NA
"2099",175,1,"F5_BR","fact","NE",NA,2,0,NA
"2100",175,1,"F6_BR","fact","NE",NA,5,0,NA
"2101",176,1,"M1_BR","myth","NE",NA,0,0,NA
"2102",176,1,"M2_BR","myth","NE",NA,7,0,NA
"2103",176,1,"M3_BR","myth","NE",NA,3,0,NA
"2104",176,1,"M4_BR","myth","NE",NA,0,0,NA
"2105",176,1,"M5_BR","myth","NE",NA,3,0,NA
"2106",176,1,"M6_BR","myth","NE",NA,0,0,NA
"2107",176,1,"F1_BR","fact","NE",NA,0,0,NA
"2108",176,1,"F2_BR","fact","NE",NA,0,0,NA
"2109",176,1,"F3_BR","fact","NE",NA,4,0,NA
"2110",176,1,"F4_BR","fact","NE",NA,0,0,NA
"2111",176,1,"F5_BR","fact","NE",NA,5,0,NA
"2112",176,1,"F6_BR","fact","NE",NA,0,0,NA
"2113",177,1,"M1_BR","myth","NE",NA,7,0,NA
"2114",177,1,"M2_BR","myth","NE",NA,9,0,NA
"2115",177,1,"M3_BR","myth","NE",NA,8,0,NA
"2116",177,1,"M4_BR","myth","NE",NA,0,0,NA
"2117",177,1,"M5_BR","myth","NE",NA,10,0,NA
"2118",177,1,"M6_BR","myth","NE",NA,9,0,NA
"2119",177,1,"F1_BR","fact","NE",NA,0,0,NA
"2120",177,1,"F2_BR","fact","NE",NA,1,0,NA
"2121",177,1,"F3_BR","fact","NE",NA,8,0,NA
"2122",177,1,"F4_BR","fact","NE",NA,8,0,NA
"2123",177,1,"F5_BR","fact","NE",NA,10,0,NA
"2124",177,1,"F6_BR","fact","NE",NA,0,0,NA
"2125",178,1,"M1_BR","myth","NE",NA,3,0,NA
"2126",178,1,"M2_BR","myth","NE",NA,3,0,NA
"2127",178,1,"M3_BR","myth","NE",NA,4,0,NA
"2128",178,1,"M4_BR","myth","NE",NA,3,0,NA
"2129",178,1,"M5_BR","myth","NE",NA,3,0,NA
"2130",178,1,"M6_BR","myth","NE",NA,6,0,NA
"2131",178,1,"F1_BR","fact","NE",NA,0,0,NA
"2132",178,1,"F2_BR","fact","NE",NA,4,0,NA
"2133",178,1,"F3_BR","fact","NE",NA,6,0,NA
"2134",178,1,"F4_BR","fact","NE",NA,2,0,NA
"2135",178,1,"F5_BR","fact","NE",NA,6,0,NA
"2136",178,1,"F6_BR","fact","NE",NA,3,0,NA
"2137",179,1,"M1_BR","myth","FCO",NA,5,1,NA
"2138",179,1,"M2_BR","myth","FCO",NA,7,1,NA
"2139",179,1,"M3_BR","myth","FCO",NA,1,1,NA
"2140",179,1,"M4_BR","myth","FCO",NA,0,1,NA
"2141",179,1,"M5_BR","myth","FCO",NA,7,1,NA
"2142",179,1,"M6_BR","myth","FCO",NA,0,1,NA
"2143",179,1,"F1_BR","fact","FCO",NA,0,1,NA
"2144",179,1,"F2_BR","fact","FCO",NA,2,1,NA
"2145",179,1,"F3_BR","fact","FCO",NA,5,1,NA
"2146",179,1,"F4_BR","fact","FCO",NA,9,1,NA
"2147",179,1,"F5_BR","fact","FCO",NA,8,1,NA
"2148",179,1,"F6_BR","fact","FCO",NA,0,1,NA
"2149",180,1,"M1_BR","myth","CO",NA,6,1,NA
"2150",180,1,"M2_BR","myth","CO",NA,6,1,NA
"2151",180,1,"M3_BR","myth","CO",NA,0,1,NA
"2152",180,1,"M4_BR","myth","CO",NA,5,1,NA
"2153",180,1,"M5_BR","myth","CO",NA,0,1,NA
"2154",180,1,"M6_BR","myth","CO",NA,6,1,NA
"2155",180,1,"F1_BR","fact","CO",NA,5,1,NA
"2156",180,1,"F2_BR","fact","CO",NA,5,1,NA
"2157",180,1,"F3_BR","fact","CO",NA,5,1,NA
"2158",180,1,"F4_BR","fact","CO",NA,5,1,NA
"2159",180,1,"F5_BR","fact","CO",NA,4,1,NA
"2160",180,1,"F6_BR","fact","CO",NA,6,1,NA
"2161",181,1,"M1_BR","myth","FCO",NA,9,1,NA
"2162",181,1,"M2_BR","myth","FCO",NA,2,1,NA
"2163",181,1,"M3_BR","myth","FCO",NA,8,1,NA
"2164",181,1,"M4_BR","myth","FCO",NA,9,1,NA
"2165",181,1,"M5_BR","myth","FCO",NA,8,1,NA
"2166",181,1,"M6_BR","myth","FCO",NA,6,1,NA
"2167",181,1,"F1_BR","fact","FCO",NA,9,1,NA
"2168",181,1,"F2_BR","fact","FCO",NA,8,1,NA
"2169",181,1,"F3_BR","fact","FCO",NA,8,1,NA
"2170",181,1,"F4_BR","fact","FCO",NA,8,1,NA
"2171",181,1,"F5_BR","fact","FCO",NA,8,1,NA
"2172",181,1,"F6_BR","fact","FCO",NA,4,1,NA
"2173",182,1,"M1_BR","myth","NE",NA,6,0,NA
"2174",182,1,"M2_BR","myth","NE",NA,3,0,NA
"2175",182,1,"M3_BR","myth","NE",NA,3,0,NA
"2176",182,1,"M4_BR","myth","NE",NA,2,0,NA
"2177",182,1,"M5_BR","myth","NE",NA,3,0,NA
"2178",182,1,"M6_BR","myth","NE",NA,5,0,NA
"2179",182,1,"F1_BR","fact","NE",NA,0,0,NA
"2180",182,1,"F2_BR","fact","NE",NA,2,0,NA
"2181",182,1,"F3_BR","fact","NE",NA,3,0,NA
"2182",182,1,"F4_BR","fact","NE",NA,1,0,NA
"2183",182,1,"F5_BR","fact","NE",NA,7,0,NA
"2184",182,1,"F6_BR","fact","NE",NA,3,0,NA
"2185",183,1,"M1_BR","myth","FCO",NA,7,1,NA
"2186",183,1,"M2_BR","myth","FCO",NA,1,1,NA
"2187",183,1,"M3_BR","myth","FCO",NA,1,1,NA
"2188",183,1,"M4_BR","myth","FCO",NA,7,1,NA
"2189",183,1,"M5_BR","myth","FCO",NA,3,1,NA
"2190",183,1,"M6_BR","myth","FCO",NA,7,1,NA
"2191",183,1,"F1_BR","fact","FCO",NA,1,1,NA
"2192",183,1,"F2_BR","fact","FCO",NA,5,1,NA
"2193",183,1,"F3_BR","fact","FCO",NA,5,1,NA
"2194",183,1,"F4_BR","fact","FCO",NA,6,1,NA
"2195",183,1,"F5_BR","fact","FCO",NA,1,1,NA
"2196",183,1,"F6_BR","fact","FCO",NA,7,1,NA
"2197",184,1,"M1_BR","myth","CFC",NA,9,1,NA
"2198",184,1,"M2_BR","myth","CFC",NA,0,1,NA
"2199",184,1,"M3_BR","myth","CFC",NA,4,1,NA
"2200",184,1,"M4_BR","myth","CFC",NA,0,1,NA
"2201",184,1,"M5_BR","myth","CFC",NA,0,1,NA
"2202",184,1,"M6_BR","myth","CFC",NA,8,1,NA
"2203",184,1,"F1_BR","fact","CFC",NA,0,1,NA
"2204",184,1,"F2_BR","fact","CFC",NA,0,1,NA
"2205",184,1,"F3_BR","fact","CFC",NA,2,1,NA
"2206",184,1,"F4_BR","fact","CFC",NA,10,1,NA
"2207",184,1,"F5_BR","fact","CFC",NA,0,1,NA
"2208",184,1,"F6_BR","fact","CFC",NA,0,1,NA
"2209",185,1,"M1_BR","myth","NE",NA,3,0,NA
"2210",185,1,"M2_BR","myth","NE",NA,0,0,NA
"2211",185,1,"M3_BR","myth","NE",NA,5,0,NA
"2212",185,1,"M4_BR","myth","NE",NA,0,0,NA
"2213",185,1,"M5_BR","myth","NE",NA,6,0,NA
"2214",185,1,"M6_BR","myth","NE",NA,0,0,NA
"2215",185,1,"F1_BR","fact","NE",NA,0,0,NA
"2216",185,1,"F2_BR","fact","NE",NA,0,0,NA
"2217",185,1,"F3_BR","fact","NE",NA,0,0,NA
"2218",185,1,"F4_BR","fact","NE",NA,2,0,NA
"2219",185,1,"F5_BR","fact","NE",NA,1,0,NA
"2220",185,1,"F6_BR","fact","NE",NA,1,0,NA
"2221",186,1,"M1_BR","myth","CO",NA,8,1,NA
"2222",186,1,"M2_BR","myth","CO",NA,8,1,NA
"2223",186,1,"M3_BR","myth","CO",NA,5,1,NA
"2224",186,1,"M4_BR","myth","CO",NA,5,1,NA
"2225",186,1,"M5_BR","myth","CO",NA,10,1,NA
"2226",186,1,"M6_BR","myth","CO",NA,9,1,NA
"2227",186,1,"F1_BR","fact","CO",NA,7,1,NA
"2228",186,1,"F2_BR","fact","CO",NA,8,1,NA
"2229",186,1,"F3_BR","fact","CO",NA,6,1,NA
"2230",186,1,"F4_BR","fact","CO",NA,10,1,NA
"2231",186,1,"F5_BR","fact","CO",NA,0,1,NA
"2232",186,1,"F6_BR","fact","CO",NA,1,1,NA
"2233",187,1,"M1_BR","myth","FCO",NA,5,1,NA
"2234",187,1,"M2_BR","myth","FCO",NA,10,1,NA
"2235",187,1,"M3_BR","myth","FCO",NA,8,1,NA
"2236",187,1,"M4_BR","myth","FCO",NA,1,1,NA
"2237",187,1,"M5_BR","myth","FCO",NA,9,1,NA
"2238",187,1,"M6_BR","myth","FCO",NA,0,1,NA
"2239",187,1,"F1_BR","fact","FCO",NA,4,1,NA
"2240",187,1,"F2_BR","fact","FCO",NA,8,1,NA
"2241",187,1,"F3_BR","fact","FCO",NA,10,1,NA
"2242",187,1,"F4_BR","fact","FCO",NA,10,1,NA
"2243",187,1,"F5_BR","fact","FCO",NA,5,1,NA
"2244",187,1,"F6_BR","fact","FCO",NA,9,1,NA
"2245",188,1,"M1_BR","myth","NE",NA,2,0,NA
"2246",188,1,"M2_BR","myth","NE",NA,7,0,NA
"2247",188,1,"M3_BR","myth","NE",NA,5,0,NA
"2248",188,1,"M4_BR","myth","NE",NA,3,0,NA
"2249",188,1,"M5_BR","myth","NE",NA,4,0,NA
"2250",188,1,"M6_BR","myth","NE",NA,1,0,NA
"2251",188,1,"F1_BR","fact","NE",NA,0,0,NA
"2252",188,1,"F2_BR","fact","NE",NA,3,0,NA
"2253",188,1,"F3_BR","fact","NE",NA,6,0,NA
"2254",188,1,"F4_BR","fact","NE",NA,10,0,NA
"2255",188,1,"F5_BR","fact","NE",NA,0,0,NA
"2256",188,1,"F6_BR","fact","NE",NA,2,0,NA
"2257",189,1,"M1_BR","myth","FCO",NA,1,1,NA
"2258",189,1,"M2_BR","myth","FCO",NA,1,1,NA
"2259",189,1,"M3_BR","myth","FCO",NA,1,1,NA
"2260",189,1,"M4_BR","myth","FCO",NA,1,1,NA
"2261",189,1,"M5_BR","myth","FCO",NA,2,1,NA
"2262",189,1,"M6_BR","myth","FCO",NA,0,1,NA
"2263",189,1,"F1_BR","fact","FCO",NA,1,1,NA
"2264",189,1,"F2_BR","fact","FCO",NA,1,1,NA
"2265",189,1,"F3_BR","fact","FCO",NA,4,1,NA
"2266",189,1,"F4_BR","fact","FCO",NA,1,1,NA
"2267",189,1,"F5_BR","fact","FCO",NA,4,1,NA
"2268",189,1,"F6_BR","fact","FCO",NA,6,1,NA
"2269",190,1,"M1_BR","myth","CO",NA,2,1,NA
"2270",190,1,"M2_BR","myth","CO",NA,6,1,NA
"2271",190,1,"M3_BR","myth","CO",NA,5,1,NA
"2272",190,1,"M4_BR","myth","CO",NA,2,1,NA
"2273",190,1,"M5_BR","myth","CO",NA,5,1,NA
"2274",190,1,"M6_BR","myth","CO",NA,2,1,NA
"2275",190,1,"F1_BR","fact","CO",NA,2,1,NA
"2276",190,1,"F2_BR","fact","CO",NA,3,1,NA
"2277",190,1,"F3_BR","fact","CO",NA,5,1,NA
"2278",190,1,"F4_BR","fact","CO",NA,10,1,NA
"2279",190,1,"F5_BR","fact","CO",NA,6,1,NA
"2280",190,1,"F6_BR","fact","CO",NA,2,1,NA
"2281",191,1,"M1_BR","myth","NE",NA,1,0,NA
"2282",191,1,"M2_BR","myth","NE",NA,7,0,NA
"2283",191,1,"M3_BR","myth","NE",NA,2,0,NA
"2284",191,1,"M4_BR","myth","NE",NA,5,0,NA
"2285",191,1,"M5_BR","myth","NE",NA,7,0,NA
"2286",191,1,"M6_BR","myth","NE",NA,5,0,NA
"2287",191,1,"F1_BR","fact","NE",NA,1,0,NA
"2288",191,1,"F2_BR","fact","NE",NA,8,0,NA
"2289",191,1,"F3_BR","fact","NE",NA,9,0,NA
"2290",191,1,"F4_BR","fact","NE",NA,5,0,NA
"2291",191,1,"F5_BR","fact","NE",NA,9,0,NA
"2292",191,1,"F6_BR","fact","NE",NA,8,0,NA
"2293",192,1,"M1_BR","myth","CFC",NA,5,1,NA
"2294",192,1,"M2_BR","myth","CFC",NA,7,1,NA
"2295",192,1,"M3_BR","myth","CFC",NA,6,1,NA
"2296",192,1,"M4_BR","myth","CFC",NA,7,1,NA
"2297",192,1,"M5_BR","myth","CFC",NA,4,1,NA
"2298",192,1,"M6_BR","myth","CFC",NA,6,1,NA
"2299",192,1,"F1_BR","fact","CFC",NA,7,1,NA
"2300",192,1,"F2_BR","fact","CFC",NA,2,1,NA
"2301",192,1,"F3_BR","fact","CFC",NA,5,1,NA
"2302",192,1,"F4_BR","fact","CFC",NA,5,1,NA
"2303",192,1,"F5_BR","fact","CFC",NA,6,1,NA
"2304",192,1,"F6_BR","fact","CFC",NA,5,1,NA
"2305",193,1,"M1_BR","myth","CFC",NA,0,1,NA
"2306",193,1,"M2_BR","myth","CFC",NA,10,1,NA
"2307",193,1,"M3_BR","myth","CFC",NA,9,1,NA
"2308",193,1,"M4_BR","myth","CFC",NA,9,1,NA
"2309",193,1,"M5_BR","myth","CFC",NA,2,1,NA
"2310",193,1,"M6_BR","myth","CFC",NA,10,1,NA
"2311",193,1,"F1_BR","fact","CFC",NA,7,1,NA
"2312",193,1,"F2_BR","fact","CFC",NA,10,1,NA
"2313",193,1,"F3_BR","fact","CFC",NA,7,1,NA
"2314",193,1,"F4_BR","fact","CFC",NA,10,1,NA
"2315",193,1,"F5_BR","fact","CFC",NA,10,1,NA
"2316",193,1,"F6_BR","fact","CFC",NA,10,1,NA
"2317",194,1,"M1_BR","myth","NE",NA,0,0,NA
"2318",194,1,"M2_BR","myth","NE",NA,4,0,NA
"2319",194,1,"M3_BR","myth","NE",NA,4,0,NA
"2320",194,1,"M4_BR","myth","NE",NA,0,0,NA
"2321",194,1,"M5_BR","myth","NE",NA,2,0,NA
"2322",194,1,"M6_BR","myth","NE",NA,10,0,NA
"2323",194,1,"F1_BR","fact","NE",NA,3,0,NA
"2324",194,1,"F2_BR","fact","NE",NA,0,0,NA
"2325",194,1,"F3_BR","fact","NE",NA,8,0,NA
"2326",194,1,"F4_BR","fact","NE",NA,10,0,NA
"2327",194,1,"F5_BR","fact","NE",NA,7,0,NA
"2328",194,1,"F6_BR","fact","NE",NA,6,0,NA
"2329",195,1,"M1_BR","myth","FCO",NA,8,1,NA
"2330",195,1,"M2_BR","myth","FCO",NA,8,1,NA
"2331",195,1,"M3_BR","myth","FCO",NA,7,1,NA
"2332",195,1,"M4_BR","myth","FCO",NA,8,1,NA
"2333",195,1,"M5_BR","myth","FCO",NA,0,1,NA
"2334",195,1,"M6_BR","myth","FCO",NA,7,1,NA
"2335",195,1,"F1_BR","fact","FCO",NA,7,1,NA
"2336",195,1,"F2_BR","fact","FCO",NA,10,1,NA
"2337",195,1,"F3_BR","fact","FCO",NA,10,1,NA
"2338",195,1,"F4_BR","fact","FCO",NA,10,1,NA
"2339",195,1,"F5_BR","fact","FCO",NA,10,1,NA
"2340",195,1,"F6_BR","fact","FCO",NA,3,1,NA
"2341",196,1,"M1_BR","myth","NE",NA,10,0,NA
"2342",196,1,"M2_BR","myth","NE",NA,10,0,NA
"2343",196,1,"M3_BR","myth","NE",NA,10,0,NA
"2344",196,1,"M4_BR","myth","NE",NA,10,0,NA
