{"publication_info":{"0":{"publication_name":"Publication 1","study_info":{"0":{"study_name":"Study 1","study_data":{"truth_rating_scale":"likert","truth_rating_scale_details":"","truth_rating_steps":"6","subjective_certainty":"0","rt_measured":"1","rt_onset":"stimulus_onset","n_participants":"54","participant_age":"21.11","percentage_female":"89","physiological_measures":"0","cognitive_models":"0","open_data_link":"https://osf.io/fw2qe","study_comment":"","statementset_name":"Statementset 1","secondary_tasks":"1","secondary_task_type":"0","secondary_task_name":"","validated":true},"measurement_data":{"measures":[{"construct":"dispositional  skepticism","details":"dispositional  skepticism"},{"construct":"need  for cognition","details":"need  for cognition (Cacioppo  &  Petty,  1982)"},{"construct":"need  for cognitive closure","details":"need  for cognitive closure (Webster  &  Kruglanski,  1994)"},{"construct":"belief in paranormal phenomena","details":"belief in paranormal phenomena(Tobacyk & Milford, 1983)"}],"additional_measures":"1","validated":true},"raw_data":{"raw_data_file":{},"data":[{"":1,"subject":1,"statement_identifier":1,"presentation_identifier":"Phase1","within_identifier":1,"between_identifier":1,"response":5,"repeated":0,"rt":1.229,"trial":6},{"":2,"subject":1,"statement_identifier":2,"presentation_identifier":"Phase1","within_identifier":1,"between_identifier":1,"response":4,"repeated":1,"rt":4.625,"trial":7},{"":3,"subject":1,"statement_identifier":3,"presentation_identifier":"Phase1","within_identifier":1,"between_identifier":1,"response":2,"repeated":0,"rt":2.181,"trial":8},{"":4,"subject":1,"statement_identifier":4,"presentation_identifier":"Phase1","within_identifier":1,"between_identifier":1,"response":3,"repeated":1,"rt":1.227,"trial":9},{"":5,"subject":1,"statement_identifier":5,"presentation_identifier":"Phase1","within_identifier":1,"between_identifier":1,"response":5,"repeated":1,"rt":1.521,"trial":10},{"":6,"subject":1,"statement_identifier":6,"presentation_identifier":"Phase1","within_identifier":1,"between_identifier":1,"response":4,"repeated":0,"rt":0.608,"trial":11},{"":7,"subject":1,"statement_identifier":7,"presentation_identifier":"Phase1","within_identifier":1,"between_identifier":1,"response":4,"repeated":1,"rt":1.519,"trial":12},{"":8,"subject":1,"statement_identifier":8,"presentation_identifier":"Phase1","within_identifier":1,"between_identifier":1,"response":4,"repeated":0,"rt":0.549,"trial":13},{"":9,"subject":1,"statement_identifier":9,"presentation_identifier":"Phase1","within_identifier":1,"between_identifier":1,"response":3,"repeated":0,"rt":2.073,"trial":14},{"":10,"subject":1,"statement_identifier":10,"presentation_identifier":"Phase1","within_identifier":1,"between_identifier":1,"response":2,"repeated":0,"rt":0.959,"trial":15},{"":11,"subject":1,"statement_identifier":11,"presentation_identifier":"Phase1","within_identifier":1,"between_identifier":1,"response":4,"repeated":0,"rt":2.683,"trial":16},{"":12,"subject":1,"statement_identifier":12,"presentation_identifier":"Phase1","within_identifier":1,"between_identifier":1,"response":4,"repeated":1,"rt":3.141,"trial":17},{"":13,"subject":1,"statement_identifier":13,"presentation_identifier":"Phase1","within_identifier":1,"between_identifier":1,"response":4,"repeated":1,"rt":1.445,"trial":18},{"":14,"subject":1,"statement_identifier":14,"presentation_identifier":"Phase1","within_identifier":1,"between_identifier":1,"response":5,"repeated":0,"rt":1.305,"trial":19},{"":15,"subject":1,"statement_identifier":15,"presentation_identifier":"Phase1","within_identifier":1,"between_identifier":1,"response":3,"repeated":1,"rt":1.6,"trial":20},{"":16,"subject":1,"statement_identifier":16,"presentation_identifier":"Phase1","within_identifier":1,"between_identifier":1,"response":3,"repeated":0,"rt":3.353,"trial":21},{"":17,"subject":1,"statement_identifier":17,"presentation_identifier":"Phase1","within_identifier":1,"between_identifier":1,"response":4,"repeated":1,"rt":1.269,"trial":22},{"":18,"subject":1,"statement_identifier":18,"presentation_identifier":"Phase1","within_identifier":1,"between_identifier":1,"response":5,"repeated":1,"rt":0.996,"trial":23},{"":19,"subject":1,"statement_identifier":19,"presentation_identifier":"Phase1","within_identifier":1,"between_identifier":1,"response":3,"repeated":0,"rt":1.049,"trial":24},{"":20,"subject":1,"statement_identifier":20,"presentation_identifier":"Phase1","within_identifier":1,"between_identifier":1,"response":1,"repeated":1,"rt":2.371,"trial":25},{"":21,"subject":1,"statement_identifier":21,"presentation_identifier":"Phase1","within_identifier":1,"between_identifier":1,"response":3,"repeated":0,"rt":2.141,"trial":26},{"":22,"subject":1,"statement_identifier":22,"presentation_identifier":"Phase1","within_identifier":1,"between_identifier":1,"response":3,"repeated":0,"rt":1.115,"trial":27},{"":23,"subject":1,"statement_identifier":23,"presentation_identifier":"Phase1","within_identifier":1,"between_identifier":1,"response":3,"repeated":1,"rt":0.95,"trial":28},{"":24,"subject":1,"statement_identifier":24,"presentation_identifier":"Phase1","within_identifier":1,"between_identifier":1,"response":4,"repeated":0,"rt":0.97,"trial":29},{"":25,"subject":1,"statement_identifier":25,"presentation_identifier":"Phase1","within_identifier":1,"between_identifier":1,"response":4,"repeated":1,"rt":1.09,"trial":30},{"":26,"subject":1,"statement_identifier":26,"presentation_identifier":"Phase1","within_identifier":1,"between_identifier":1,"response":4,"repeated":0,"rt":0.727,"trial":31},{"":27,"subject":1,"statement_identifier":27,"presentation_identifier":"Phase1","within_identifier":1,"between_identifier":1,"response":2,"repeated":0,"rt":1.501,"trial":32},{"":28,"subject":1,"statement_identifier":28,"presentation_identifier":"Phase1","within_identifier":1,"between_identifier":1,"response":5,"repeated":0,"rt":0.639,"trial":33},{"":29,"subject":1,"statement_identifier":29,"presentation_identifier":"Phase1","within_identifier":1,"between_identifier":1,"response":5,"repeated":1,"rt":2.438,"trial":34},{"":30,"subject":1,"statement_identifier":30,"presentation_identifier":"Phase1","within_identifier":1,"between_identifier":1,"response":4,"repeated":0,"rt":2.435,"trial":35},{"":31,"subject":1,"statement_identifier":31,"presentation_identifier":"Phase1","within_identifier":1,"between_identifier":1,"response":5,"repeated":0,"rt":0.766,"trial":36},{"":32,"subject":1,"statement_identifier":32,"presentation_identifier":"Phase1","within_identifier":1,"between_identifier":1,"response":1,"repeated":1,"rt":4.455,"trial":37},{"":33,"subject":1,"statement_identifier":33,"presentation_identifier":"Phase1","within_identifier":1,"between_identifier":1,"response":3,"repeated":1,"rt":1.637,"trial":38},{"":34,"subject":1,"statement_identifier":34,"presentation_identifier":"Phase1","within_identifier":1,"between_identifier":1,"response":5,"repeated":0,"rt":1.07,"trial":39},{"":35,"subject":1,"statement_identifier":35,"presentation_identifier":"Phase1","within_identifier":1,"between_identifier":1,"response":4,"repeated":0,"rt":1.161,"trial":40},{"":36,"subject":1,"statement_identifier":36,"presentation_identifier":"Phase1","within_identifier":1,"between_identifier":1,"response":3,"repeated":1,"rt":2.813,"trial":41},{"":37,"subject":1,"statement_identifier":37,"presentation_identifier":"Phase1","within_identifier":1,"between_identifier":1,"response":6,"repeated":1,"rt":0.822,"trial":42},{"":38,"subject":1,"statement_identifier":38,"presentation_identifier":"Phase1","within_identifier":1,"between_identifier":1,"response":3,"repeated":0,"rt":0.62,"trial":43},{"":39,"subject":1,"statement_identifier":39,"presentation_identifier":"Phase1","within_identifier":1,"between_identifier":1,"response":4,"repeated":1,"rt":0.681,"trial":44},{"":40,"subject":1,"statement_identifier":40,"presentation_identifier":"Phase1","within_identifier":1,"between_identifier":1,"response":5,"repeated":0,"rt":1.702,"trial":45},{"":41,"subject":1,"statement_identifier":41,"presentation_identifier":"Phase1","within_identifier":1,"between_identifier":1,"response":2,"repeated":1,"rt":1.885,"trial":46},{"":42,"subject":1,"statement_identifier":42,"presentation_identifier":"Phase1","within_identifier":1,"between_identifier":1,"response":3,"repeated":0,"rt":3.066,"trial":47},{"":43,"subject":1,"statement_identifier":43,"presentation_identifier":"Phase1","within_identifier":1,"between_identifier":1,"response":5,"repeated":1,"rt":1.841,"trial":48},{"":44,"subject":1,"statement_identifier":44,"presentation_identifier":"Phase1","within_identifier":1,"between_identifier":1,"response":5,"repeated":1,"rt":3.903,"trial":49},{"":45,"subject":1,"statement_identifier":45,"presentation_identifier":"Phase1","within_identifier":1,"between_identifier":1,"response":4,"repeated":1,"rt":3.051,"trial":50},{"":46,"subject":1,"statement_identifier":46,"presentation_identifier":"Phase1","within_identifier":1,"between_identifier":1,"response":5,"repeated":1,"rt":2.252,"trial":51},{"":47,"subject":1,"statement_identifier":47,"presentation_identifier":"Phase1","within_identifier":1,"between_identifier":1,"response":3,"repeated":0,"rt":1.448,"trial":52},{"":48,"subject":1,"statement_identifier":48,"presentation_identifier":"Phase1","within_identifier":1,"between_identifier":1,"response":3,"repeated":0,"rt":7.453,"trial":53},{"":49,"subject":1,"statement_identifier":49,"presentation_identifier":"Phase1","within_identifier":1,"between_identifier":1,"response":3,"repeated":0,"rt":0.751,"trial":54},{"":50,"subject":1,"statement_identifier":50,"presentation_identifier":"Phase1","within_identifier":1,"between_identifier":1,"response":5,"repeated":0,"rt":2.096,"trial":55},{"":51,"subject":1,"statement_identifier":51,"presentation_identifier":"Phase1","within_identifier":1,"between_identifier":1,"response":5,"repeated":1,"rt":0.956,"trial":56},{"":52,"subject":1,"statement_identifier":52,"presentation_identifier":"Phase1","within_identifier":1,"between_identifier":1,"response":5,"repeated":1,"rt":1.41,"trial":57},{"":53,"subject":1,"statement_identifier":53,"presentation_identifier":"Phase1","within_identifier":1,"between_identifier":1,"response":5,"repeated":1,"rt":0.824,"trial":58},{"":54,"subject":1,"statement_identifier":54,"presentation_identifier":"Phase1","within_identifier":1,"between_identifier":1,"response":5,"repeated":0,"rt":0.642,"trial":59},{"":55,"subject":1,"statement_identifier":55,"presentation_identifier":"Phase1","within_identifier":1,"between_identifier":1,"response":2,"repeated":1,"rt":1.167,"trial":60},{"":56,"subject":1,"statement_identifier":56,"presentation_identifier":"Phase1","within_identifier":1,"between_identifier":1,"response":5,"repeated":0,"rt":5.62,"trial":61},{"":57,"subject":1,"statement_identifier":57,"presentation_identifier":"Phase1","within_identifier":1,"between_identifier":1,"response":3,"repeated":1,"rt":0.95,"trial":62},{"":58,"subject":1,"statement_identifier":58,"presentation_identifier":"Phase1","within_identifier":1,"between_identifier":1,"response":2,"repeated":1,"rt":1.723,"trial":63},{"":59,"subject":1,"statement_identifier":59,"presentation_identifier":"Phase1","within_identifier":1,"between_identifier":1,"response":3,"repeated":0,"rt":1.033,"trial":64},{"":60,"subject":1,"statement_identifier":60,"presentation_identifier":"Phase1","within_identifier":1,"between_identifier":1,"response":3,"repeated":1,"rt":1.614,"trial":65},{"":61,"subject":1,"statement_identifier":61,"presentation_identifier":"Phase1","within_identifier":1,"between_identifier":1,"response":4,"repeated":1,"rt":0.912,"trial":66},{"":62,"subject":1,"statement_identifier":62,"presentation_identifier":"Phase1","within_identifier":1,"between_identifier":1,"response":6,"repeated":1,"rt":1.183,"trial":67},{"":63,"subject":1,"statement_identifier":63,"presentation_identifier":"Phase1","within_identifier":1,"between_identifier":1,"response":3,"repeated":0,"rt":1.676,"trial":68},{"":64,"subject":1,"statement_identifier":64,"presentation_identifier":"Phase1","within_identifier":1,"between_identifier":1,"response":3,"repeated":0,"rt":0.872,"trial":69},{"":65,"subject":1,"statement_identifier":65,"presentation_identifier":"Phase1","within_identifier":1,"between_identifier":1,"response":2,"repeated":1,"rt":1.286,"trial":70},{"":66,"subject":1,"statement_identifier":66,"presentation_identifier":"Phase1","within_identifier":1,"between_identifier":1,"response":4,"repeated":0,"rt":0.917,"trial":71},{"":67,"subject":1,"statement_identifier":67,"presentation_identifier":"Phase1","within_identifier":1,"between_identifier":1,"response":2,"repeated":0,"rt":1.514,"trial":72},{"":68,"subject":1,"statement_identifier":68,"presentation_identifier":"Phase1","within_identifier":1,"between_identifier":1,"response":2,"repeated":1,"rt":0.685,"trial":73},{"":69,"subject":1,"statement_identifier":69,"presentation_identifier":"Phase1","within_identifier":1,"between_identifier":1,"response":4,"repeated":0,"rt":1.385,"trial":74},{"":70,"subject":1,"statement_identifier":70,"presentation_identifier":"Phase1","within_identifier":1,"between_identifier":1,"response":2,"repeated":0,"rt":1.266,"trial":75},{"":71,"subject":1,"statement_identifier":71,"presentation_identifier":"Phase1","within_identifier":1,"between_identifier":1,"response":2,"repeated":0,"rt":1.733,"trial":76},{"":72,"subject":1,"statement_identifier":72,"presentation_identifier":"Phase1","within_identifier":1,"between_identifier":1,"response":5,"repeated":1,"rt":1.73,"trial":77},{"":73,"subject":1,"statement_identifier":73,"presentation_identifier":"Phase1","within_identifier":1,"between_identifier":1,"response":5,"repeated":0,"rt":0.929,"trial":78},{"":74,"subject":1,"statement_identifier":74,"presentation_identifier":"Phase1","within_identifier":1,"between_identifier":1,"response":4,"repeated":1,"rt":1.194,"trial":79},{"":75,"subject":1,"statement_identifier":75,"presentation_identifier":"Phase1","within_identifier":1,"between_identifier":1,"response":2,"repeated":1,"rt":0.8,"trial":80},{"":76,"subject":1,"statement_identifier":76,"presentation_identifier":"Phase1","within_identifier":1,"between_identifier":1,"response":2,"repeated":1,"rt":0.857,"trial":81},{"":77,"subject":1,"statement_identifier":77,"presentation_identifier":"Phase1","within_identifier":1,"between_identifier":1,"response":5,"repeated":1,"rt":0.922,"trial":82},{"":78,"subject":1,"statement_identifier":78,"presentation_identifier":"Phase1","within_identifier":1,"between_identifier":1,"response":5,"repeated":1,"rt":1.267,"trial":83},{"":79,"subject":1,"statement_identifier":79,"presentation_identifier":"Phase1","within_identifier":1,"between_identifier":1,"response":2,"repeated":0,"rt":1.334,"trial":84},{"":80,"subject":1,"statement_identifier":80,"presentation_identifier":"Phase1","within_identifier":1,"between_identifier":1,"response":5,"repeated":0,"rt":0.703,"trial":85},{"":81,"subject":1,"statement_identifier":81,"presentation_identifier":"Phase1","within_identifier":1,"between_identifier":1,"response":3,"repeated":0,"rt":2.092,"trial":86},{"":82,"subject":1,"statement_identifier":82,"presentation_identifier":"Phase1","within_identifier":1,"between_identifier":1,"response":3,"repeated":0,"rt":0.817,"trial":87},{"":83,"subject":1,"statement_identifier":83,"presentation_identifier":"Phase1","within_identifier":1,"between_identifier":1,"response":4,"repeated":1,"rt":5.327,"trial":88},{"":84,"subject":1,"statement_identifier":84,"presentation_identifier":"Phase1","within_identifier":1,"between_identifier":1,"response":3,"repeated":0,"rt":0.971,"trial":89},{"":85,"subject":1,"statement_identifier":85,"presentation_identifier":"Phase1","within_identifier":1,"between_identifier":1,"response":4,"repeated":1,"rt":0.512,"trial":90},{"":86,"subject":1,"statement_identifier":86,"presentation_identifier":"Phase1","within_identifier":1,"between_identifier":1,"response":2,"repeated":0,"rt":0.852,"trial":91},{"":87,"subject":1,"statement_identifier":87,"presentation_identifier":"Phase1","within_identifier":1,"between_identifier":1,"response":5,"repeated":1,"rt":1.011,"trial":92},{"":88,"subject":1,"statement_identifier":88,"presentation_identifier":"Phase1","within_identifier":1,"between_identifier":1,"response":1,"repeated":1,"rt":3.903,"trial":93},{"":89,"subject":1,"statement_identifier":89,"presentation_identifier":"Phase2","within_identifier":1,"between_identifier":1,"response":4,"repeated":0,"rt":1.94,"trial":191},{"":90,"subject":1,"statement_identifier":25,"presentation_identifier":"Phase2","within_identifier":1,"between_identifier":1,"response":3,"repeated":1,"rt":0.809,"trial":192},{"":91,"subject":1,"statement_identifier":90,"presentation_identifier":"Phase2","within_identifier":1,"between_identifier":1,"response":1,"repeated":0,"rt":0.706,"trial":193},{"":92,"subject":1,"statement_identifier":39,"presentation_identifier":"Phase2","within_identifier":1,"between_identifier":1,"response":4,"repeated":1,"rt":0.521,"trial":194},{"":93,"subject":1,"statement_identifier":91,"presentation_identifier":"Phase2","within_identifier":1,"between_identifier":1,"response":3,"repeated":0,"rt":1.066,"trial":195},{"":94,"subject":1,"statement_identifier":92,"presentation_identifier":"Phase2","within_identifier":1,"between_identifier":1,"response":4,"repeated":0,"rt":0.461,"trial":196},{"":95,"subject":1,"statement_identifier":20,"presentation_identifier":"Phase2","within_identifier":1,"between_identifier":1,"response":3,"repeated":1,"rt":0.508,"trial":197},{"":96,"subject":1,"statement_identifier":18,"presentation_identifier":"Phase2","within_identifier":1,"between_identifier":1,"response":4,"repeated":1,"rt":0.515,"trial":198},{"":97,"subject":1,"statement_identifier":93,"presentation_identifier":"Phase2","within_identifier":1,"between_identifier":1,"response":3,"repeated":0,"rt":0.731,"trial":199},{"":98,"subject":1,"statement_identifier":37,"presentation_identifier":"Phase2","within_identifier":1,"between_identifier":1,"response":5,"repeated":1,"rt":0.643,"trial":200},{"":99,"subject":1,"statement_identifier":23,"presentation_identifier":"Phase2","within_identifier":1,"between_identifier":1,"response":2,"repeated":1,"rt":2.23,"trial":201},{"":100,"subject":1,"statement_identifier":94,"presentation_identifier":"Phase2","within_identifier":1,"between_identifier":1,"response":5,"repeated":0,"rt":0.54,"trial":202},{"":101,"subject":1,"statement_identifier":68,"presentation_identifier":"Phase2","within_identifier":1,"between_identifier":1,"response":3,"repeated":1,"rt":0.811,"trial":203},{"":102,"subject":1,"statement_identifier":4,"presentation_identifier":"Phase2","within_identifier":1,"between_identifier":1,"response":3,"repeated":1,"rt":0.66,"trial":204},{"":103,"subject":1,"statement_identifier":58,"presentation_identifier":"Phase2","within_identifier":1,"between_identifier":1,"response":5,"repeated":1,"rt":1.008,"trial":205},{"":104,"subject":1,"statement_identifier":88,"presentation_identifier":"Phase2","within_identifier":1,"between_identifier":1,"response":2,"repeated":1,"rt":0.663,"trial":206},{"":105,"subject":1,"statement_identifier":53,"presentation_identifier":"Phase2","within_identifier":1,"between_identifier":1,"response":5,"repeated":1,"rt":0.824,"trial":207},{"":106,"subject":1,"statement_identifier":95,"presentation_identifier":"Phase2","within_identifier":1,"between_identifier":1,"response":3,"repeated":0,"rt":1.769,"trial":208},{"":107,"subject":1,"statement_identifier":96,"presentation_identifier":"Phase2","within_identifier":1,"between_identifier":1,"response":2,"repeated":0,"rt":0.813,"trial":209},{"":108,"subject":1,"statement_identifier":61,"presentation_identifier":"Phase2","within_identifier":1,"between_identifier":1,"response":4,"repeated":1,"rt":0.69,"trial":210},{"":109,"subject":1,"statement_identifier":75,"presentation_identifier":"Phase2","within_identifier":1,"between_identifier":1,"response":3,"repeated":1,"rt":0.797,"trial":211},{"":110,"subject":1,"statement_identifier":72,"presentation_identifier":"Phase2","within_identifier":1,"between_identifier":1,"response":5,"repeated":1,"rt":0.592,"trial":212},{"":111,"subject":1,"statement_identifier":41,"presentation_identifier":"Phase2","within_identifier":1,"between_identifier":1,"response":2,"repeated":1,"rt":0.663,"trial":213},{"":112,"subject":1,"statement_identifier":52,"presentation_identifier":"Phase2","within_identifier":1,"between_identifier":1,"response":4,"repeated":1,"rt":0.463,"trial":214},{"":113,"subject":1,"statement_identifier":12,"presentation_identifier":"Phase2","within_identifier":1,"between_identifier":1,"response":4,"repeated":1,"rt":0.688,"trial":215},{"":114,"subject":1,"statement_identifier":45,"presentation_identifier":"Phase2","within_identifier":1,"between_identifier":1,"response":4,"repeated":1,"rt":0.63,"trial":216},{"":115,"subject":1,"statement_identifier":97,"presentation_identifier":"Phase2","within_identifier":1,"between_identifier":1,"response":4,"repeated":0,"rt":0.639,"trial":217},{"":116,"subject":1,"statement_identifier":55,"presentation_identifier":"Phase2","within_identifier":1,"between_identifier":1,"response":3,"repeated":1,"rt":0.663,"trial":218},{"":117,"subject":1,"statement_identifier":83,"presentation_identifier":"Phase2","within_identifier":1,"between_identifier":1,"response":3,"repeated":1,"rt":0.962,"trial":219},{"":118,"subject":1,"statement_identifier":98,"presentation_identifier":"Phase2","within_identifier":1,"between_identifier":1,"response":4,"repeated":0,"rt":0.483,"trial":220},{"":119,"subject":1,"statement_identifier":99,"presentation_identifier":"Phase2","within_identifier":1,"between_identifier":1,"response":5,"repeated":0,"rt":1.131,"trial":221},{"":120,"subject":1,"statement_identifier":100,"presentation_identifier":"Phase2","within_identifier":1,"between_identifier":1,"response":4,"repeated":0,"rt":0.554,"trial":222},{"":121,"subject":1,"statement_identifier":101,"presentation_identifier":"Phase2","within_identifier":1,"between_identifier":1,"response":1,"repeated":0,"rt":1.266,"trial":223},{"":122,"subject":1,"statement_identifier":33,"presentation_identifier":"Phase2","within_identifier":1,"between_identifier":1,"response":3,"repeated":1,"rt":0.692,"trial":224},{"":123,"subject":1,"statement_identifier":102,"presentation_identifier":"Phase2","within_identifier":1,"between_identifier":1,"response":2,"repeated":0,"rt":2.045,"trial":225},{"":124,"subject":1,"statement_identifier":46,"presentation_identifier":"Phase2","within_identifier":1,"between_identifier":1,"response":4,"repeated":1,"rt":0.79,"trial":226},{"":125,"subject":1,"statement_identifier":103,"presentation_identifier":"Phase2","within_identifier":1,"between_identifier":1,"response":3,"repeated":0,"rt":0.889,"trial":227},{"":126,"subject":1,"statement_identifier":104,"presentation_identifier":"Phase2","within_identifier":1,"between_identifier":1,"response":2,"repeated":0,"rt":0.899,"trial":228},{"":127,"subject":1,"statement_identifier":60,"presentation_identifier":"Phase2","within_identifier":1,"between_identifier":1,"response":2,"repeated":1,"rt":1.713,"trial":229},{"":128,"subject":1,"statement_identifier":87,"presentation_identifier":"Phase2","within_identifier":1,"between_identifier":1,"response":4,"repeated":1,"rt":0.577,"trial":230},{"":129,"subject":1,"statement_identifier":2,"presentation_identifier":"Phase2","within_identifier":1,"between_identifier":1,"response":4,"repeated":1,"rt":1.044,"trial":231},{"":130,"subject":1,"statement_identifier":105,"presentation_identifier":"Phase2","within_identifier":1,"between_identifier":1,"response":3,"repeated":0,"rt":4.329,"trial":232},{"":131,"subject":1,"statement_identifier":78,"presentation_identifier":"Phase2","within_identifier":1,"between_identifier":1,"response":4,"repeated":1,"rt":0.54,"trial":233},{"":132,"subject":1,"statement_identifier":29,"presentation_identifier":"Phase2","within_identifier":1,"between_identifier":1,"response":4,"repeated":1,"rt":1.957,"trial":234},{"":133,"subject":1,"statement_identifier":106,"presentation_identifier":"Phase2","within_identifier":1,"between_identifier":1,"response":3,"repeated":0,"rt":0.746,"trial":235},{"":134,"subject":1,"statement_identifier":107,"presentation_identifier":"Phase2","within_identifier":1,"between_identifier":1,"response":4,"repeated":0,"rt":1.041,"trial":236},{"":135,"subject":1,"statement_identifier":108,"presentation_identifier":"Phase2","within_identifier":1,"between_identifier":1,"response":5,"repeated":0,"rt":1.563,"trial":237},{"":136,"subject":1,"statement_identifier":109,"presentation_identifier":"Phase2","within_identifier":1,"between_identifier":1,"response":3,"repeated":0,"rt":1.393,"trial":238},{"":137,"subject":1,"statement_identifier":110,"presentation_identifier":"Phase2","within_identifier":1,"between_identifier":1,"response":2,"repeated":0,"rt":1.436,"trial":239},{"":138,"subject":1,"statement_identifier":111,"presentation_identifier":"Phase2","within_identifier":1,"between_identifier":1,"response":2,"repeated":0,"rt":0.717,"trial":240},{"":139,"subject":1,"statement_identifier":32,"presentation_identifier":"Phase2","within_identifier":1,"between_identifier":1,"response":1,"repeated":1,"rt":3.526,"trial":241},{"":140,"subject":1,"statement_identifier":112,"presentation_identifier":"Phase2","within_identifier":1,"between_identifier":1,"response":4,"repeated":0,"rt":1.051,"trial":242},{"":141,"subject":1,"statement_identifier":15,"presentation_identifier":"Phase2","within_identifier":1,"between_identifier":1,"response":3,"repeated":1,"rt":0.529,"trial":243},{"":142,"subject":1,"statement_identifier":43,"presentation_identifier":"Phase2","within_identifier":1,"between_identifier":1,"response":5,"repeated":1,"rt":0.641,"trial":244},{"":143,"subject":1,"statement_identifier":113,"presentation_identifier":"Phase2","within_identifier":1,"between_identifier":1,"response":5,"repeated":0,"rt":0.595,"trial":245},{"":144,"subject":1,"statement_identifier":36,"presentation_identifier":"Phase2","within_identifier":1,"between_identifier":1,"response":3,"repeated":1,"rt":0.738,"trial":246},{"":145,"subject":1,"statement_identifier":114,"presentation_identifier":"Phase2","within_identifier":1,"between_identifier":1,"response":2,"repeated":0,"rt":4.412,"trial":247},{"":146,"subject":1,"statement_identifier":115,"presentation_identifier":"Phase2","within_identifier":1,"between_identifier":1,"response":2,"repeated":0,"rt":1.81,"trial":248},{"":147,"subject":1,"statement_identifier":116,"presentation_identifier":"Phase2","within_identifier":1,"between_identifier":1,"response":5,"repeated":0,"rt":0.562,"trial":249},{"":148,"subject":1,"statement_identifier":76,"presentation_identifier":"Phase2","within_identifier":1,"between_identifier":1,"response":3,"repeated":1,"rt":1.037,"trial":250},{"":149,"subject":1,"statement_identifier":117,"presentation_identifier":"Phase2","within_identifier":1,"between_identifier":1,"response":5,"repeated":0,"rt":1.603,"trial":251},{"":150,"subject":1,"statement_identifier":62,"presentation_identifier":"Phase2","within_identifier":1,"between_identifier":1,"response":2,"repeated":1,"rt":0.566,"trial":252},{"":151,"subject":1,"statement_identifier":85,"presentation_identifier":"Phase2","within_identifier":1,"between_identifier":1,"response":5,"repeated":1,"rt":1.074,"trial":253},{"":152,"subject":1,"statement_identifier":7,"presentation_identifier":"Phase2","within_identifier":1,"between_identifier":1,"response":2,"repeated":1,"rt":0.829,"trial":254},{"":153,"subject":1,"statement_identifier":118,"presentation_identifier":"Phase2","within_identifier":1,"between_identifier":1,"response":5,"repeated":0,"rt":5.878,"trial":255},{"":154,"subject":1,"statement_identifier":119,"presentation_identifier":"Phase2","within_identifier":1,"between_identifier":1,"response":5,"repeated":0,"rt":1.544,"trial":256},{"":155,"subject":1,"statement_identifier":120,"presentation_identifier":"Phase2","within_identifier":1,"between_identifier":1,"response":4,"repeated":0,"rt":1.02,"trial":257},{"":156,"subject":1,"statement_identifier":121,"presentation_identifier":"Phase2","within_identifier":1,"between_identifier":1,"response":5,"repeated":0,"rt":0.598,"trial":258},{"":157,"subject":1,"statement_identifier":122,"presentation_identifier":"Phase2","within_identifier":1,"between_identifier":1,"response":5,"repeated":0,"rt":0.933,"trial":259},{"":158,"subject":1,"statement_identifier":17,"presentation_identifier":"Phase2","within_identifier":1,"between_identifier":1,"response":4,"repeated":1,"rt":0.571,"trial":260},{"":159,"subject":1,"statement_identifier":123,"presentation_identifier":"Phase2","within_identifier":1,"between_identifier":1,"response":5,"repeated":0,"rt":0.552,"trial":261},{"":160,"subject":1,"statement_identifier":124,"presentation_identifier":"Phase2","within_identifier":1,"between_identifier":1,"response":5,"repeated":0,"rt":0.617,"trial":262},{"":161,"subject":1,"statement_identifier":77,"presentation_identifier":"Phase2","within_identifier":1,"between_identifier":1,"response":4,"repeated":1,"rt":0.594,"trial":263},{"":162,"subject":1,"statement_identifier":13,"presentation_identifier":"Phase2","within_identifier":1,"between_identifier":1,"response":5,"repeated":1,"rt":0.977,"trial":264},{"":163,"subject":1,"statement_identifier":74,"presentation_identifier":"Phase2","within_identifier":1,"between_identifier":1,"response":4,"repeated":1,"rt":0.465,"trial":265},{"":164,"subject":1,"statement_identifier":51,"presentation_identifier":"Phase2","within_identifier":1,"between_identifier":1,"response":5,"repeated":1,"rt":0.661,"trial":266},{"":165,"subject":1,"statement_identifier":125,"presentation_identifier":"Phase2","within_identifier":1,"between_identifier":1,"response":3,"repeated":0,"rt":2.001,"trial":267},{"":166,"subject":1,"statement_identifier":57,"presentation_identifier":"Phase2","within_identifier":1,"between_identifier":1,"response":3,"repeated":1,"rt":0.506,"trial":268},{"":167,"subject":1,"statement_identifier":44,"presentation_identifier":"Phase2","within_identifier":1,"between_identifier":1,"response":5,"repeated":1,"rt":0.848,"trial":269},{"":168,"subject":1,"statement_identifier":126,"presentation_identifier":"Phase2","within_identifier":1,"between_identifier":1,"response":1,"repeated":0,"rt":2.325,"trial":270},{"":169,"subject":1,"statement_identifier":127,"presentation_identifier":"Phase2","within_identifier":1,"between_identifier":1,"response":3,"repeated":0,"rt":0.512,"trial":271},{"":170,"subject":1,"statement_identifier":128,"presentation_identifier":"Phase2","within_identifier":1,"between_identifier":1,"response":5,"repeated":0,"rt":1.215,"trial":272},{"":171,"subject":1,"statement_identifier":129,"presentation_identifier":"Phase2","within_identifier":1,"between_identifier":1,"response":3,"repeated":0,"rt":1.199,"trial":273},{"":172,"subject":1,"statement_identifier":5,"presentation_identifier":"Phase2","within_identifier":1,"between_identifier":1,"response":4,"repeated":1,"rt":1.322,"trial":274},{"":173,"subject":1,"statement_identifier":65,"presentation_identifier":"Phase2","within_identifier":1,"between_identifier":1,"response":2,"repeated":1,"rt":0.62,"trial":275},{"":174,"subject":1,"statement_identifier":130,"presentation_identifier":"Phase2","within_identifier":1,"between_identifier":1,"response":4,"repeated":0,"rt":0.465,"trial":276},{"":175,"subject":1,"statement_identifier":131,"presentation_identifier":"Phase2","within_identifier":1,"between_identifier":1,"response":3,"repeated":0,"rt":1.096,"trial":277},{"":176,"subject":1,"statement_identifier":132,"presentation_identifier":"Phase2","within_identifier":1,"between_identifier":1,"response":3,"repeated":0,"rt":0.723,"trial":278},{"":177,"subject":2,"statement_identifier":48,"presentation_identifier":"Phase1","within_identifier":1,"between_identifier":1,"response":3,"repeated":1,"rt":2.027,"trial":6},{"":178,"subject":2,"statement_identifier":119,"presentation_identifier":"Phase1","within_identifier":1,"between_identifier":1,"response":3,"repeated":0,"rt":25.794,"trial":7},{"":179,"subject":2,"statement_identifier":6,"presentation_identifier":"Phase1","within_identifier":1,"between_identifier":1,"response":3,"repeated":1,"rt":7.584,"trial":8},{"":180,"subject":2,"statement_identifier":111,"presentation_identifier":"Phase1","within_identifier":1,"between_identifier":1,"response":5,"repeated":0,"rt":2.123,"trial":9},{"":181,"subject":2,"statement_identifier":10,"presentation_identifier":"Phase1","within_identifier":1,"between_identifier":1,"response":4,"repeated":1,"rt":1.407,"trial":10},{"":182,"subject":2,"statement_identifier":67,"presentation_identifier":"Phase1","within_identifier":1,"between_identifier":1,"response":6,"repeated":1,"rt":1.556,"trial":11},{"":183,"subject":2,"statement_identifier":112,"presentation_identifier":"Phase1","within_identifier":1,"between_identifier":1,"response":5,"repeated":0,"rt":0.81,"trial":12},{"":184,"subject":2,"statement_identifier":19,"presentation_identifier":"Phase1","within_identifier":1,"between_identifier":1,"response":5,"repeated":1,"rt":2.848,"trial":13},{"":185,"subject":2,"statement_identifier":66,"presentation_identifier":"Phase1","within_identifier":1,"between_identifier":1,"response":4,"repeated":1,"rt":1.779,"trial":14},{"":186,"subject":2,"statement_identifier":98,"presentation_identifier":"Phase1","within_identifier":1,"between_identifier":1,"response":3,"repeated":0,"rt":1.7,"trial":15},{"":187,"subject":2,"statement_identifier":26,"presentation_identifier":"Phase1","within_identifier":1,"between_identifier":1,"response":5,"repeated":1,"rt":0.818,"trial":16},{"":188,"subject":2,"statement_identifier":114,"presentation_identifier":"Phase1","within_identifier":1,"between_identifier":1,"response":3,"repeated":0,"rt":11.568,"trial":17},{"":189,"subject":2,"statement_identifier":40,"presentation_identifier":"Phase1","within_identifier":1,"between_identifier":1,"response":3,"repeated":1,"rt":3.987,"trial":18},{"":190,"subject":2,"statement_identifier":89,"presentation_identifier":"Phase1","within_identifier":1,"between_identifier":1,"response":5,"repeated":0,"rt":0.917,"trial":19},{"":191,"subject":2,"statement_identifier":110,"presentation_identifier":"Phase1","within_identifier":1,"between_identifier":1,"response":3,"repeated":0,"rt":17.518,"trial":20},{"":192,"subject":2,"statement_identifier":122,"presentation_identifier":"Phase1","within_identifier":1,"between_identifier":1,"response":5,"repeated":0,"rt":1.582,"trial":21},{"":193,"subject":2,"statement_identifier":109,"presentation_identifier":"Phase1","within_identifier":1,"between_identifier":1,"response":4,"repeated":0,"rt":10.003,"trial":22},{"":194,"subject":2,"statement_identifier":1,"presentation_identifier":"Phase1","within_identifier":1,"between_identifier":1,"response":5,"repeated":1,"rt":0.992,"trial":23},{"":195,"subject":2,"statement_identifier":127,"presentation_identifier":"Phase1","within_identifier":1,"between_identifier":1,"response":5,"repeated":0,"rt":1.864,"trial":24},{"":196,"subject":2,"statement_identifier":104,"presentation_identifier":"Phase1","within_identifier":1,"between_identifier":1,"response":3,"repeated":0,"rt":1.514,"trial":25},{"":197,"subject":2,"statement_identifier":108,"presentation_identifier":"Phase1","within_identifier":1,"between_identifier":1,"response":5,"repeated":0,"rt":1.019,"trial":26},{"":198,"subject":2,"statement_identifier":24,"presentation_identifier":"Phase1","within_identifier":1,"between_identifier":1,"response":4,"repeated":1,"rt":2.791,"trial":27},{"":199,"subject":2,"statement_identifier":9,"presentation_identifier":"Phase1","within_identifier":1,"between_identifier":1,"response":4,"repeated":1,"rt":2.558,"trial":28},{"":200,"subject":2,"statement_identifier":22,"presentation_identifier":"Phase1","within_identifier":1,"between_identifier":1,"response":3,"repeated":1,"rt":6.049,"trial":29},{"":201,"subject":2,"statement_identifier":3,"presentation_identifier":"Phase1","within_identifier":1,"between_identifier":1,"response":5,"repeated":1,"rt":7.43,"trial":30},{"":202,"subject":2,"statement_identifier":93,"presentation_identifier":"Phase1","within_identifier":1,"between_identifier":1,"response":4,"repeated":0,"rt":0.881,"trial":31},{"":203,"subject":2,"statement_identifier":63,"presentation_identifier":"Phase1","within_identifier":1,"between_identifier":1,"response":4,"repeated":1,"rt":0.76,"trial":32},{"":204,"subject":2,"statement_identifier":31,"presentation_identifier":"Phase1","within_identifier":1,"between_identifier":1,"response":5,"repeated":1,"rt":1.087,"trial":33},{"":205,"subject":2,"statement_identifier":115,"presentation_identifier":"Phase1","within_identifier":1,"between_identifier":1,"response":4,"repeated":0,"rt":3.598,"trial":34},{"":206,"subject":2,"statement_identifier":27,"presentation_identifier":"Phase1","within_identifier":1,"between_identifier":1,"response":4,"repeated":1,"rt":9.074,"trial":35},{"":207,"subject":2,"statement_identifier":95,"presentation_identifier":"Phase1","within_identifier":1,"between_identifier":1,"response":3,"repeated":0,"rt":3.876,"trial":36},{"":208,"subject":2,"statement_identifier":80,"presentation_identifier":"Phase1","within_identifier":1,"between_identifier":1,"response":5,"repeated":1,"rt":0.775,"trial":37},{"":209,"subject":2,"statement_identifier":124,"presentation_identifier":"Phase1","within_identifier":1,"between_identifier":1,"response":4,"repeated":0,"rt":3.71,"trial":38},{"":210,"subject":2,"statement_identifier":69,"presentation_identifier":"Phase1","within_identifier":1,"between_identifier":1,"response":3,"repeated":1,"rt":6.961,"trial":39},{"":211,"subject":2,"statement_identifier":64,"presentation_identifier":"Phase1","within_identifier":1,"between_identifier":1,"response":5,"repeated":1,"rt":3.245,"trial":40},{"":212,"subject":2,"statement_identifier":130,"presentation_identifier":"Phase1","within_identifier":1,"between_identifier":1,"response":4,"repeated":0,"rt":0.72,"trial":41},{"":213,"subject":2,"statement_identifier":11,"presentation_identifier":"Phase1","within_identifier":1,"between_identifier":1,"response":3,"repeated":1,"rt":2.715,"trial":42},{"":214,"subject":2,"statement_identifier":132,"presentation_identifier":"Phase1","within_identifier":1,"between_identifier":1,"response":2,"repeated":0,"rt":4.985,"trial":43},{"":215,"subject":2,"statement_identifier":121,"presentation_identifier":"Phase1","within_identifier":1,"between_identifier":1,"response":4,"repeated":0,"rt":3.218,"trial":44},{"":216,"subject":2,"statement_identifier":56,"presentation_identifier":"Phase1","within_identifier":1,"between_identifier":1,"response":2,"repeated":1,"rt":2.389,"trial":45},{"":217,"subject":2,"statement_identifier":106,"presentation_identifier":"Phase1","within_identifier":1,"between_identifier":1,"response":5,"repeated":0,"rt":0.985,"trial":46},{"":218,"subject":2,"statement_identifier":107,"presentation_identifier":"Phase1","within_identifier":1,"between_identifier":1,"response":5,"repeated":0,"rt":1.013,"trial":47},{"":219,"subject":2,"statement_identifier":50,"presentation_identifier":"Phase1","within_identifier":1,"between_identifier":1,"response":4,"repeated":1,"rt":3.109,"trial":48},{"":220,"subject":2,"statement_identifier":97,"presentation_identifier":"Phase1","within_identifier":1,"between_identifier":1,"response":2,"repeated":0,"rt":3.197,"trial":49},{"":221,"subject":2,"statement_identifier":16,"presentation_identifier":"Phase1","within_identifier":1,"between_identifier":1,"response":3,"repeated":1,"rt":5.154,"trial":50},{"":222,"subject":2,"statement_identifier":86,"presentation_identifier":"Phase1","within_identifier":1,"between_identifier":1,"response":4,"repeated":1,"rt":2.812,"trial":51},{"":223,"subject":2,"statement_identifier":90,"presentation_identifier":"Phase1","within_identifier":1,"between_identifier":1,"response":4,"repeated":0,"rt":7.705,"trial":52},{"":224,"subject":2,"statement_identifier":34,"presentation_identifier":"Phase1","within_identifier":1,"between_identifier":1,"response":4,"repeated":1,"rt":2.125,"trial":53},{"":225,"subject":2,"statement_identifier":100,"presentation_identifier":"Phase1","within_identifier":1,"between_identifier":1,"response":4,"repeated":0,"rt":1.124,"trial":54},{"":226,"subject":2,"statement_identifier":101,"presentation_identifier":"Phase1","within_identifier":1,"between_identifier":1,"response":3,"repeated":0,"rt":5.117,"trial":55},{"":227,"subject":2,"statement_identifier":92,"presentation_identifier":"Phase1","within_identifier":1,"between_identifier":1,"response":3,"repeated":0,"rt":4.159,"trial":56},{"":228,"subject":2,"statement_identifier":116,"presentation_identifier":"Phase1","within_identifier":1,"between_identifier":1,"response":2,"repeated":0,"rt":5.896,"trial":57},{"":229,"subject":2,"statement_identifier":105,"presentation_identifier":"Phase1","within_identifier":1,"between_identifier":1,"response":3,"repeated":0,"rt":4.702,"trial":58},{"":230,"subject":2,"statement_identifier":59,"presentation_identifier":"Phase1","within_identifier":1,"between_identifier":1,"response":5,"repeated":1,"rt":2.878,"trial":59},{"":231,"subject":2,"statement_identifier":21,"presentation_identifier":"Phase1","within_identifier":1,"between_identifier":1,"response":4,"repeated":1,"rt":1.544,"trial":60},{"":232,"subject":2,"statement_identifier":42,"presentation_identifier":"Phase1","within_identifier":1,"between_identifier":1,"response":3,"repeated":1,"rt":15.013,"trial":61},{"":233,"subject":2,"statement_identifier":126,"presentation_identifier":"Phase1","within_identifier":1,"between_identifier":1,"response":3,"repeated":0,"rt":6.505,"trial":62},{"":234,"subject":2,"statement_identifier":38,"presentation_identifier":"Phase1","within_identifier":1,"between_identifier":1,"response":4,"repeated":1,"rt":0.957,"trial":63},{"":235,"subject":2,"statement_identifier":117,"presentation_identifier":"Phase1","within_identifier":1,"between_identifier":1,"response":4,"repeated":0,"rt":9.047,"trial":64},{"":236,"subject":2,"statement_identifier":28,"presentation_identifier":"Phase1","within_identifier":1,"between_identifier":1,"response":5,"repeated":1,"rt":0.878,"trial":65},{"":237,"subject":2,"statement_identifier":125,"presentation_identifier":"Phase1","within_identifier":1,"between_identifier":1,"response":4,"repeated":0,"rt":1.327,"trial":66},{"":238,"subject":2,"statement_identifier":129,"presentation_identifier":"Phase1","within_identifier":1,"between_identifier":1,"response":3,"repeated":0,"rt":1.067,"trial":67},{"":239,"subject":2,"statement_identifier":99,"presentation_identifier":"Phase1","within_identifier":1,"between_identifier":1,"response":4,"repeated":0,"rt":2.952,"trial":68},{"":240,"subject":2,"statement_identifier":47,"presentation_identifier":"Phase1","within_identifier":1,"between_identifier":1,"response":5,"repeated":1,"rt":1.107,"trial":69},{"":241,"subject":2,"statement_identifier":103,"presentation_identifier":"Phase1","within_identifier":1,"between_identifier":1,"response":4,"repeated":0,"rt":1.902,"trial":70},{"":242,"subject":2,"statement_identifier":49,"presentation_identifier":"Phase1","within_identifier":1,"between_identifier":1,"response":4,"repeated":1,"rt":1.588,"trial":71},{"":243,"subject":2,"statement_identifier":71,"presentation_identifier":"Phase1","within_identifier":1,"between_identifier":1,"response":3,"repeated":1,"rt":4.589,"trial":72},{"":244,"subject":2,"statement_identifier":128,"presentation_identifier":"Phase1","within_identifier":1,"between_identifier":1,"response":4,"repeated":0,"rt":3.133,"trial":73},{"":245,"subject":2,"statement_identifier":96,"presentation_identifier":"Phase1","within_identifier":1,"between_identifier":1,"response":5,"repeated":0,"rt":2.887,"trial":74},{"":246,"subject":2,"statement_identifier":131,"presentation_identifier":"Phase1","within_identifier":1,"between_identifier":1,"response":3,"repeated":0,"rt":4.691,"trial":75},{"":247,"subject":2,"statement_identifier":123,"presentation_identifier":"Phase1","within_identifier":1,"between_identifier":1,"response":3,"repeated":0,"rt":6.454,"trial":76},{"":248,"subject":2,"statement_identifier":81,"presentation_identifier":"Phase1","within_identifier":1,"between_identifier":1,"response":3,"repeated":1,"rt":3.089,"trial":77},{"":249,"subject":2,"statement_identifier":118,"presentation_identifier":"Phase1","within_identifier":1,"between_identifier":1,"response":2,"repeated":0,"rt":14.059,"trial":78},{"":250,"subject":2,"statement_identifier":91,"presentation_identifier":"Phase1","within_identifier":1,"between_identifier":1,"response":4,"repeated":0,"rt":3.845,"trial":79},{"":251,"subject":2,"statement_identifier":94,"presentation_identifier":"Phase1","within_identifier":1,"between_identifier":1,"response":4,"repeated":0,"rt":3.665,"trial":80},{"":252,"subject":2,"statement_identifier":35,"presentation_identifier":"Phase1","within_identifier":1,"between_identifier":1,"response":2,"repeated":1,"rt":0.854,"trial":81},{"":253,"subject":2,"statement_identifier":30,"presentation_identifier":"Phase1","within_identifier":1,"between_identifier":1,"response":4,"repeated":1,"rt":1.843,"trial":82},{"":254,"subject":2,"statement_identifier":79,"presentation_identifier":"Phase1","within_identifier":1,"between_identifier":1,"response":2,"repeated":1,"rt":8.723,"trial":83},{"":255,"subject":2,"statement_identifier":82,"presentation_identifier":"Phase1","within_identifier":1,"between_identifier":1,"response":4,"repeated":1,"rt":1.682,"trial":84},{"":256,"subject":2,"statement_identifier":120,"presentation_identifier":"Phase1","within_identifier":1,"between_identifier":1,"response":3,"repeated":0,"rt":10.168,"trial":85},{"":257,"subject":2,"statement_identifier":73,"presentation_identifier":"Phase1","within_identifier":1,"between_identifier":1,"response":4,"repeated":1,"rt":4.775,"trial":86},{"":258,"subject":2,"statement_identifier":70,"presentation_identifier":"Phase1","within_identifier":1,"between_identifier":1,"response":4,"repeated":1,"rt":2.739,"trial":87},{"":259,"subject":2,"statement_identifier":102,"presentation_identifier":"Phase1","within_identifier":1,"between_identifier":1,"response":2,"repeated":0,"rt":4.605,"trial":88},{"":260,"subject":2,"statement_identifier":84,"presentation_identifier":"Phase1","within_identifier":1,"between_identifier":1,"response":3,"repeated":1,"rt":3.549,"trial":89},{"":261,"subject":2,"statement_identifier":113,"presentation_identifier":"Phase1","within_identifier":1,"between_identifier":1,"response":4,"repeated":0,"rt":4.014,"trial":90},{"":262,"subject":2,"statement_identifier":54,"presentation_identifier":"Phase1","within_identifier":1,"between_identifier":1,"response":3,"repeated":1,"rt":3.912,"trial":91},{"":263,"subject":2,"statement_identifier":8,"presentation_identifier":"Phase1","within_identifier":1,"between_identifier":1,"response":3,"repeated":1,"rt":4.031,"trial":92},{"":264,"subject":2,"statement_identifier":14,"presentation_identifier":"Phase1","within_identifier":1,"between_identifier":1,"response":4,"repeated":1,"rt":1.052,"trial":93},{"":265,"subject":2,"statement_identifier":72,"presentation_identifier":"Phase2","within_identifier":1,"between_identifier":1,"response":4,"repeated":0,"rt":1.497,"trial":191},{"":266,"subject":2,"statement_identifier":55,"presentation_identifier":"Phase2","within_identifier":1,"between_identifier":1,"response":4,"repeated":0,"rt":3.557,"trial":192},{"":267,"subject":2,"statement_identifier":19,"presentation_identifier":"Phase2","within_identifier":1,"between_identifier":1,"response":4,"repeated":1,"rt":1.517,"trial":193},{"":268,"subject":2,"statement_identifier":63,"presentation_identifier":"Phase2","within_identifier":1,"between_identifier":1,"response":4,"repeated":1,"rt":0.993,"trial":194},{"":269,"subject":2,"statement_identifier":30,"presentation_identifier":"Phase2","within_identifier":1,"between_identifier":1,"response":3,"repeated":1,"rt":1.101,"trial":195},{"":270,"subject":2,"statement_identifier":14,"presentation_identifier":"Phase2","within_identifier":1,"between_identifier":1,"response":4,"repeated":1,"rt":0.756,"trial":196},{"":271,"subject":2,"statement_identifier":58,"presentation_identifier":"Phase2","within_identifier":1,"between_identifier":1,"response":3,"repeated":0,"rt":0.978,"trial":197},{"":272,"subject":2,"statement_identifier":28,"presentation_identifier":"Phase2","within_identifier":1,"between_identifier":1,"response":4,"repeated":1,"rt":1.134,"trial":198},{"":273,"subject":2,"statement_identifier":50,"presentation_identifier":"Phase2","within_identifier":1,"between_identifier":1,"response":3,"repeated":1,"rt":0.794,"trial":199},{"":274,"subject":2,"statement_identifier":43,"presentation_identifier":"Phase2","within_identifier":1,"between_identifier":1,"response":3,"repeated":0,"rt":2.23,"trial":200},{"":275,"subject":2,"statement_identifier":82,"presentation_identifier":"Phase2","within_identifier":1,"between_identifier":1,"response":4,"repeated":1,"rt":0.808,"trial":201},{"":276,"subject":2,"statement_identifier":44,"presentation_identifier":"Phase2","within_identifier":1,"between_identifier":1,"response":4,"repeated":0,"rt":2.722,"trial":202},{"":277,"subject":2,"statement_identifier":34,"presentation_identifier":"Phase2","within_identifier":1,"between_identifier":1,"response":4,"repeated":1,"rt":0.789,"trial":203},{"":278,"subject":2,"statement_identifier":47,"presentation_identifier":"Phase2","within_identifier":1,"between_identifier":1,"response":5,"repeated":1,"rt":0.75,"trial":204},{"":279,"subject":2,"statement_identifier":46,"presentation_identifier":"Phase2","within_identifier":1,"between_identifier":1,"response":4,"repeated":0,"rt":1.362,"trial":205},{"":280,"subject":2,"statement_identifier":49,"presentation_identifier":"Phase2","within_identifier":1,"between_identifier":1,"response":4,"repeated":1,"rt":0.792,"trial":206},{"":281,"subject":2,"statement_identifier":24,"presentation_identifier":"Phase2","within_identifier":1,"between_identifier":1,"response":3,"repeated":1,"rt":0.903,"trial":207},{"":282,"subject":2,"statement_identifier":27,"presentation_identifier":"Phase2","within_identifier":1,"between_identifier":1,"response":3,"repeated":1,"rt":0.926,"trial":208},{"":283,"subject":2,"statement_identifier":66,"presentation_identifier":"Phase2","within_identifier":1,"between_identifier":1,"response":4,"repeated":1,"rt":0.984,"trial":209},{"":284,"subject":2,"statement_identifier":73,"presentation_identifier":"Phase2","within_identifier":1,"between_identifier":1,"response":4,"repeated":1,"rt":0.743,"trial":210},{"":285,"subject":2,"statement_identifier":64,"presentation_identifier":"Phase2","within_identifier":1,"between_identifier":1,"response":4,"repeated":1,"rt":1.085,"trial":211},{"":286,"subject":2,"statement_identifier":17,"presentation_identifier":"Phase2","within_identifier":1,"between_identifier":1,"response":5,"repeated":0,"rt":0.962,"trial":212},{"":287,"subject":2,"statement_identifier":37,"presentation_identifier":"Phase2","within_identifier":1,"between_identifier":1,"response":6,"repeated":0,"rt":3.92,"trial":213},{"":288,"subject":2,"statement_identifier":3,"presentation_identifier":"Phase2","within_identifier":1,"between_identifier":1,"response":4,"repeated":1,"rt":0.685,"trial":214},{"":289,"subject":2,"statement_identifier":39,"presentation_identifier":"Phase2","within_identifier":1,"between_identifier":1,"response":3,"repeated":0,"rt":0.61,"trial":215},{"":290,"subject":2,"statement_identifier":52,"presentation_identifier":"Phase2","within_identifier":1,"between_identifier":1,"response":3,"repeated":0,"rt":2.322,"trial":216},{"":291,"subject":2,"statement_identifier":80,"presentation_identifier":"Phase2","within_identifier":1,"between_identifier":1,"response":4,"repeated":1,"rt":0.849,"trial":217},{"":292,"subject":2,"statement_identifier":51,"presentation_identifier":"Phase2","within_identifier":1,"between_identifier":1,"response":3,"repeated":0,"rt":3.538,"trial":218},{"":293,"subject":2,"statement_identifier":57,"presentation_identifier":"Phase2","within_identifier":1,"between_identifier":1,"response":3,"repeated":0,"rt":1.311,"trial":219},{"":294,"subject":2,"statement_identifier":74,"presentation_identifier":"Phase2","within_identifier":1,"between_identifier":1,"response":3,"repeated":0,"rt":1.04,"trial":220},{"":295,"subject":2,"statement_identifier":11,"presentation_identifier":"Phase2","within_identifier":1,"between_identifier":1,"response":3,"repeated":1,"rt":0.789,"trial":221},{"":296,"subject":2,"statement_identifier":4,"presentation_identifier":"Phase2","within_identifier":1,"between_identifier":1,"response":3,"repeated":0,"rt":1.712,"trial":222},{"":297,"subject":2,"statement_identifier":35,"presentation_identifier":"Phase2","within_identifier":1,"between_identifier":1,"response":2,"repeated":1,"rt":2.319,"trial":223},{"":298,"subject":2,"statement_identifier":65,"presentation_identifier":"Phase2","within_identifier":1,"between_identifier":1,"response":1,"repeated":0,"rt":2.357,"trial":224},{"":299,"subject":2,"statement_identifier":75,"presentation_identifier":"Phase2","within_identifier":1,"between_identifier":1,"response":3,"repeated":0,"rt":4.893,"trial":225},{"":300,"subject":2,"statement_identifier":5,"presentation_identifier":"Phase2","within_identifier":1,"between_identifier":1,"response":3,"repeated":0,"rt":5.603,"trial":226},{"":301,"subject":2,"statement_identifier":31,"presentation_identifier":"Phase2","within_identifier":1,"between_identifier":1,"response":5,"repeated":1,"rt":0.742,"trial":227},{"":302,"subject":2,"statement_identifier":10,"presentation_identifier":"Phase2","within_identifier":1,"between_identifier":1,"response":4,"repeated":1,"rt":0.707,"trial":228},{"":303,"subject":2,"statement_identifier":69,"presentation_identifier":"Phase2","within_identifier":1,"between_identifier":1,"response":3,"repeated":1,"rt":0.892,"trial":229},{"":304,"subject":2,"statement_identifier":18,"presentation_identifier":"Phase2","within_identifier":1,"between_identifier":1,"response":5,"repeated":0,"rt":3.483,"trial":230},{"":305,"subject":2,"statement_identifier":45,"presentation_identifier":"Phase2","within_identifier":1,"between_identifier":1,"response":3,"repeated":0,"rt":5.804,"trial":231},{"":306,"subject":2,"statement_identifier":81,"presentation_identifier":"Phase2","within_identifier":1,"between_identifier":1,"response":3,"repeated":1,"rt":0.777,"trial":232},{"":307,"subject":2,"statement_identifier":68,"presentation_identifier":"Phase2","within_identifier":1,"between_identifier":1,"response":4,"repeated":0,"rt":1.354,"trial":233},{"":308,"subject":2,"statement_identifier":9,"presentation_identifier":"Phase2","within_identifier":1,"between_identifier":1,"response":4,"repeated":1,"rt":2.051,"trial":234},{"":309,"subject":2,"statement_identifier":67,"presentation_identifier":"Phase2","within_identifier":1,"between_identifier":1,"response":6,"repeated":1,"rt":1.256,"trial":235},{"":310,"subject":2,"statement_identifier":29,"presentation_identifier":"Phase2","within_identifier":1,"between_identifier":1,"response":4,"repeated":0,"rt":1.203,"trial":236},{"":311,"subject":2,"statement_identifier":36,"presentation_identifier":"Phase2","within_identifier":1,"between_identifier":1,"response":3,"repeated":0,"rt":2.119,"trial":237},{"":312,"subject":2,"statement_identifier":6,"presentation_identifier":"Phase2","within_identifier":1,"between_identifier":1,"response":3,"repeated":1,"rt":0.695,"trial":238},{"":313,"subject":2,"statement_identifier":42,"presentation_identifier":"Phase2","within_identifier":1,"between_identifier":1,"response":3,"repeated":1,"rt":0.739,"trial":239},{"":314,"subject":2,"statement_identifier":8,"presentation_identifier":"Phase2","within_identifier":1,"between_identifier":1,"response":3,"repeated":1,"rt":1.49,"trial":240},{"":315,"subject":2,"statement_identifier":79,"presentation_identifier":"Phase2","within_identifier":1,"between_identifier":1,"response":3,"repeated":1,"rt":1.377,"trial":241},{"":316,"subject":2,"statement_identifier":15,"presentation_identifier":"Phase2","within_identifier":1,"between_identifier":1,"response":3,"repeated":0,"rt":4.201,"trial":242},{"":317,"subject":2,"statement_identifier":13,"presentation_identifier":"Phase2","within_identifier":1,"between_identifier":1,"response":4,"repeated":0,"rt":0.674,"trial":243},{"":318,"subject":2,"statement_identifier":59,"presentation_identifier":"Phase2","within_identifier":1,"between_identifier":1,"response":4,"repeated":1,"rt":0.8,"trial":244},{"":319,"subject":2,"statement_identifier":1,"presentation_identifier":"Phase2","within_identifier":1,"between_identifier":1,"response":5,"repeated":1,"rt":0.764,"trial":245},{"":320,"subject":2,"statement_identifier":26,"presentation_identifier":"Phase2","within_identifier":1,"between_identifier":1,"response":5,"repeated":1,"rt":1.781,"trial":246},{"":321,"subject":2,"statement_identifier":40,"presentation_identifier":"Phase2","within_identifier":1,"between_identifier":1,"response":3,"repeated":1,"rt":0.735,"trial":247},{"":322,"subject":2,"statement_identifier":88,"presentation_identifier":"Phase2","within_identifier":1,"between_identifier":1,"response":4,"repeated":0,"rt":4.09,"trial":248},{"":323,"subject":2,"statement_identifier":7,"presentation_identifier":"Phase2","within_identifier":1,"between_identifier":1,"response":4,"repeated":0,"rt":0.888,"trial":249},{"":324,"subject":2,"statement_identifier":54,"presentation_identifier":"Phase2","within_identifier":1,"between_identifier":1,"response":3,"repeated":1,"rt":0.863,"trial":250},{"":325,"subject":2,"statement_identifier":70,"presentation_identifier":"Phase2","within_identifier":1,"between_identifier":1,"response":3,"repeated":1,"rt":0.934,"trial":251},{"":326,"subject":2,"statement_identifier":84,"presentation_identifier":"Phase2","within_identifier":1,"between_identifier":1,"response":3,"repeated":1,"rt":0.917,"trial":252},{"":327,"subject":2,"statement_identifier":56,"presentation_identifier":"Phase2","within_identifier":1,"between_identifier":1,"response":2,"repeated":1,"rt":0.904,"trial":253},{"":328,"subject":2,"statement_identifier":41,"presentation_identifier":"Phase2","within_identifier":1,"between_identifier":1,"response":3,"repeated":0,"rt":0.676,"trial":254},{"":329,"subject":2,"statement_identifier":38,"presentation_identifier":"Phase2","within_identifier":1,"between_identifier":1,"response":4,"repeated":1,"rt":0.774,"trial":255},{"":330,"subject":2,"statement_identifier":71,"presentation_identifier":"Phase2","within_identifier":1,"between_identifier":1,"response":3,"repeated":1,"rt":0.841,"trial":256},{"":331,"subject":2,"statement_identifier":12,"presentation_identifier":"Phase2","within_identifier":1,"between_identifier":1,"response":3,"repeated":0,"rt":1.267,"trial":257},{"":332,"subject":2,"statement_identifier":85,"presentation_identifier":"Phase2","within_identifier":1,"between_identifier":1,"response":3,"repeated":0,"rt":0.73,"trial":258},{"":333,"subject":2,"statement_identifier":48,"presentation_identifier":"Phase2","within_identifier":1,"between_identifier":1,"response":4,"repeated":1,"rt":1.68,"trial":259},{"":334,"subject":2,"statement_identifier":25,"presentation_identifier":"Phase2","within_identifier":1,"between_identifier":1,"response":4,"repeated":0,"rt":1.845,"trial":260},{"":335,"subject":2,"statement_identifier":21,"presentation_identifier":"Phase2","within_identifier":1,"between_identifier":1,"response":4,"repeated":1,"rt":0.737,"trial":261},{"":336,"subject":2,"statement_identifier":61,"presentation_identifier":"Phase2","within_identifier":1,"between_identifier":1,"response":3,"repeated":0,"rt":0.849,"trial":262},{"":337,"subject":2,"statement_identifier":20,"presentation_identifier":"Phase2","within_identifier":1,"between_identifier":1,"response":4,"repeated":0,"rt":0.654,"trial":263},{"":338,"subject":2,"statement_identifier":77,"presentation_identifier":"Phase2","within_identifier":1,"between_identifier":1,"response":3,"repeated":0,"rt":0.674,"trial":264},{"":339,"subject":2,"statement_identifier":83,"presentation_identifier":"Phase2","within_identifier":1,"between_identifier":1,"response":4,"repeated":0,"rt":2.836,"trial":265},{"":340,"subject":2,"statement_identifier":16,"presentation_identifier":"Phase2","within_identifier":1,"between_identifier":1,"response":3,"repeated":1,"rt":0.663,"trial":266},{"":341,"subject":2,"statement_identifier":60,"presentation_identifier":"Phase2","within_identifier":1,"between_identifier":1,"response":3,"repeated":0,"rt":1.035,"trial":267},{"":342,"subject":2,"statement_identifier":86,"presentation_identifier":"Phase2","within_identifier":1,"between_identifier":1,"response":4,"repeated":1,"rt":0.754,"trial":268},{"":343,"subject":2,"statement_identifier":2,"presentation_identifier":"Phase2","within_identifier":1,"between_identifier":1,"response":2,"repeated":0,"rt":0.87,"trial":269},{"":344,"subject":2,"statement_identifier":22,"presentation_identifier":"Phase2","within_identifier":1,"between_identifier":1,"response":4,"repeated":1,"rt":0.77,"trial":270},{"":345,"subject":2,"statement_identifier":32,"presentation_identifier":"Phase2","within_identifier":1,"between_identifier":1,"response":4,"repeated":0,"rt":7.065,"trial":271},{"":346,"subject":2,"statement_identifier":87,"presentation_identifier":"Phase2","within_identifier":1,"between_identifier":1,"response":4,"repeated":0,"rt":1.243,"trial":272},{"":347,"subject":2,"statement_identifier":62,"presentation_identifier":"Phase2","within_identifier":1,"between_identifier":1,"response":3,"repeated":0,"rt":1.157,"trial":273},{"":348,"subject":2,"statement_identifier":76,"presentation_identifier":"Phase2","within_identifier":1,"between_identifier":1,"response":3,"repeated":0,"rt":0.732,"trial":274},{"":349,"subject":2,"statement_identifier":78,"presentation_identifier":"Phase2","within_identifier":1,"between_identifier":1,"response":3,"repeated":0,"rt":1.016,"trial":275},{"":350,"subject":2,"statement_identifier":23,"presentation_identifier":"Phase2","within_identifier":1,"between_identifier":1,"response":3,"repeated":0,"rt":1.29,"trial":276},{"":351,"subject":2,"statement_identifier":33,"presentation_identifier":"Phase2","within_identifier":1,"between_identifier":1,"response":3,"repeated":0,"rt":0.788,"trial":277},{"":352,"subject":2,"statement_identifier":53,"presentation_identifier":"Phase2","within_identifier":1,"between_identifier":1,"response":3,"repeated":0,"rt":2.346,"trial":278},{"":353,"subject":3,"statement_identifier":110,"presentation_identifier":"Phase1","within_identifier":1,"between_identifier":1,"response":3,"repeated":1,"rt":3.527,"trial":6},{"":354,"subject":3,"statement_identifier":85,"presentation_identifier":"Phase1","within_identifier":1,"between_identifier":1,"response":4,"repeated":0,"rt":3.05,"trial":7},{"":355,"subject":3,"statement_identifier":95,"presentation_identifier":"Phase1","within_identifier":1,"between_identifier":1,"response":2,"repeated":1,"rt":5.465,"trial":8},{"":356,"subject":3,"statement_identifier":29,"presentation_identifier":"Phase1","within_identifier":1,"between_identifier":1,"response":4,"repeated":0,"rt":6.215,"trial":9},{"":357,"subject":3,"statement_identifier":122,"presentation_identifier":"Phase1","within_identifier":1,"between_identifier":1,"response":3,"repeated":1,"rt":7.599,"trial":10},{"":358,"subject":3,"statement_identifier":20,"presentation_identifier":"Phase1","within_identifier":1,"between_identifier":1,"response":3,"repeated":0,"rt":7.81,"trial":11},{"":359,"subject":3,"statement_identifier":109,"presentation_identifier":"Phase1","within_identifier":1,"between_identifier":1,"response":5,"repeated":1,"rt":5.731,"trial":12},{"":360,"subject":3,"statement_identifier":104,"presentation_identifier":"Phase1","within_identifier":1,"between_identifier":1,"response":3,"repeated":1,"rt":6.745,"trial":13},{"":361,"subject":3,"statement_identifier":131,"presentation_identifier":"Phase1","within_identifier":1,"between_identifier":1,"response":3,"repeated":1,"rt":7.824,"trial":14},{"":362,"subject":3,"statement_identifier":44,"presentation_identifier":"Phase1","within_identifier":1,"between_identifier":1,"response":4,"repeated":0,"rt":5.992,"trial":15},{"":363,"subject":3,"statement_identifier":39,"presentation_identifier":"Phase1","within_identifier":1,"between_identifier":1,"response":4,"repeated":0,"rt":3.614,"trial":16},{"":364,"subject":3,"statement_identifier":72,"presentation_identifier":"Phase1","within_identifier":1,"between_identifier":1,"response":3,"repeated":0,"rt":7.237,"trial":17},{"":365,"subject":3,"statement_identifier":121,"presentation_identifier":"Phase1","within_identifier":1,"between_identifier":1,"response":4,"repeated":1,"rt":5.19,"trial":18},{"":366,"subject":3,"statement_identifier":105,"presentation_identifier":"Phase1","within_identifier":1,"between_identifier":1,"response":4,"repeated":1,"rt":6.457,"trial":19},{"":367,"subject":3,"statement_identifier":75,"presentation_identifier":"Phase1","within_identifier":1,"between_identifier":1,"response":3,"repeated":0,"rt":4.173,"trial":20},{"":368,"subject":3,"statement_identifier":33,"presentation_identifier":"Phase1","within_identifier":1,"between_identifier":1,"response":2,"repeated":0,"rt":3.541,"trial":21},{"":369,"subject":3,"statement_identifier":117,"presentation_identifier":"Phase1","within_identifier":1,"between_identifier":1,"response":4,"repeated":1,"rt":2.439,"trial":22},{"":370,"subject":3,"statement_identifier":4,"presentation_identifier":"Phase1","within_identifier":1,"between_identifier":1,"response":4,"repeated":0,"rt":2.357,"trial":23},{"":371,"subject":3,"statement_identifier":132,"presentation_identifier":"Phase1","within_identifier":1,"between_identifier":1,"response":4,"repeated":1,"rt":2.177,"trial":24},{"":372,"subject":3,"statement_identifier":119,"presentation_identifier":"Phase1","within_identifier":1,"between_identifier":1,"response":2,"repeated":1,"rt":7.755,"trial":25},{"":373,"subject":3,"statement_identifier":112,"presentation_identifier":"Phase1","within_identifier":1,"between_identifier":1,"response":3,"repeated":1,"rt":7.253,"trial":26},{"":374,"subject":3,"statement_identifier":129,"presentation_identifier":"Phase1","within_identifier":1,"between_identifier":1,"response":1,"repeated":1,"rt":2.082,"trial":27},{"":375,"subject":3,"statement_identifier":25,"presentation_identifier":"Phase1","within_identifier":1,"between_identifier":1,"response":1,"repeated":0,"rt":1.375,"trial":28},{"":376,"subject":3,"statement_identifier":60,"presentation_identifier":"Phase1","within_identifier":1,"between_identifier":1,"response":4,"repeated":0,"rt":4.124,"trial":29},{"":377,"subject":3,"statement_identifier":23,"presentation_identifier":"Phase1","within_identifier":1,"between_identifier":1,"response":4,"repeated":0,"rt":1.653,"trial":30},{"":378,"subject":3,"statement_identifier":41,"presentation_identifier":"Phase1","within_identifier":1,"between_identifier":1,"response":3,"repeated":0,"rt":1.034,"trial":31},{"":379,"subject":3,"statement_identifier":13,"presentation_identifier":"Phase1","within_identifier":1,"between_identifier":1,"response":4,"repeated":0,"rt":2.632,"trial":32},{"":380,"subject":3,"statement_identifier":116,"presentation_identifier":"Phase1","within_identifier":1,"between_identifier":1,"response":4,"repeated":1,"rt":1.794,"trial":33},{"":381,"subject":3,"statement_identifier":103,"presentation_identifier":"Phase1","within_identifier":1,"between_identifier":1,"response":4,"repeated":1,"rt":1.742,"trial":34},{"":382,"subject":3,"statement_identifier":83,"presentation_identifier":"Phase1","within_identifier":1,"between_identifier":1,"response":4,"repeated":0,"rt":4.215,"trial":35},{"":383,"subject":3,"statement_identifier":113,"presentation_identifier":"Phase1","within_identifier":1,"between_identifier":1,"response":4,"repeated":1,"rt":3.879,"trial":36},{"":384,"subject":3,"statement_identifier":58,"presentation_identifier":"Phase1","within_identifier":1,"between_identifier":1,"response":3,"repeated":0,"rt":8.638,"trial":37},{"":385,"subject":3,"statement_identifier":130,"presentation_identifier":"Phase1","within_identifier":1,"between_identifier":1,"response":3,"repeated":1,"rt":3.53,"trial":38},{"":386,"subject":3,"statement_identifier":17,"presentation_identifier":"Phase1","within_identifier":1,"between_identifier":1,"response":3,"repeated":0,"rt":1.392,"trial":39},{"":387,"subject":3,"statement_identifier":57,"presentation_identifier":"Phase1","within_identifier":1,"between_identifier":1,"response":3,"repeated":0,"rt":3.909,"trial":40},{"":388,"subject":3,"statement_identifier":90,"presentation_identifier":"Phase1","within_identifier":1,"between_identifier":1,"response":1,"repeated":1,"rt":3.802,"trial":41},{"":389,"subject":3,"statement_identifier":65,"presentation_identifier":"Phase1","within_identifier":1,"between_identifier":1,"response":2,"repeated":0,"rt":5.471,"trial":42},{"":390,"subject":3,"statement_identifier":87,"presentation_identifier":"Phase1","within_identifier":1,"between_identifier":1,"response":4,"repeated":0,"rt":1.873,"trial":43},{"":391,"subject":3,"statement_identifier":46,"presentation_identifier":"Phase1","within_identifier":1,"between_identifier":1,"response":4,"repeated":0,"rt":3.318,"trial":44},{"":392,"subject":3,"statement_identifier":111,"presentation_identifier":"Phase1","within_identifier":1,"between_identifier":1,"response":3,"repeated":1,"rt":2.599,"trial":45},{"":393,"subject":3,"statement_identifier":91,"presentation_identifier":"Phase1","within_identifier":1,"between_identifier":1,"response":4,"repeated":1,"rt":3.661,"trial":46},{"":394,"subject":3,"statement_identifier":125,"presentation_identifier":"Phase1","within_identifier":1,"between_identifier":1,"response":3,"repeated":1,"rt":4.512,"trial":47},{"":395,"subject":3,"statement_identifier":114,"presentation_identifier":"Phase1","within_identifier":1,"between_identifier":1,"response":3,"repeated":1,"rt":2.639,"trial":48},{"":396,"subject":3,"statement_identifier":100,"presentation_identifier":"Phase1","within_identifier":1,"between_identifier":1,"response":4,"repeated":1,"rt":1.968,"trial":49},{"":397,"subject":3,"statement_identifier":74,"presentation_identifier":"Phase1","within_identifier":1,"between_identifier":1,"response":6,"repeated":0,"rt":2.162,"trial":50},{"":398,"subject":3,"statement_identifier":106,"presentation_identifier":"Phase1","within_identifier":1,"between_identifier":1,"response":3,"repeated":1,"rt":13.146,"trial":51},{"":399,"subject":3,"statement_identifier":128,"presentation_identifier":"Phase1","within_identifier":1,"between_identifier":1,"response":4,"repeated":1,"rt":3.315,"trial":52},{"":400,"subject":3,"statement_identifier":43,"presentation_identifier":"Phase1","within_identifier":1,"between_identifier":1,"response":3,"repeated":0,"rt":7.731,"trial":53},{"":401,"subject":3,"statement_identifier":32,"presentation_identifier":"Phase1","within_identifier":1,"between_identifier":1,"response":3,"repeated":0,"rt":6.771,"trial":54},{"":402,"subject":3,"statement_identifier":53,"presentation_identifier":"Phase1","within_identifier":1,"between_identifier":1,"response":3,"repeated":0,"rt":2.281,"trial":55},{"":403,"subject":3,"statement_identifier":124,"presentation_identifier":"Phase1","within_identifier":1,"between_identifier":1,"response":3,"repeated":1,"rt":5.795,"trial":56},{"":404,"subject":3,"statement_identifier":68,"presentation_identifier":"Phase1","within_identifier":1,"between_identifier":1,"response":4,"repeated":0,"rt":1.945,"trial":57},{"":405,"subject":3,"statement_identifier":98,"presentation_identifier":"Phase1","within_identifier":1,"between_identifier":1,"response":4,"repeated":1,"rt":2.294,"trial":58},{"":406,"subject":3,"statement_identifier":94,"presentation_identifier":"Phase1","within_identifier":1,"between_identifier":1,"response":3,"repeated":1,"rt":3.631,"trial":59},{"":407,"subject":3,"statement_identifier":115,"presentation_identifier":"Phase1","within_identifier":1,"between_identifier":1,"response":4,"repeated":1,"rt":4.363,"trial":60},{"":408,"subject":3,"statement_identifier":89,"presentation_identifier":"Phase1","within_identifier":1,"between_identifier":1,"response":3,"repeated":1,"rt":1.193,"trial":61},{"":409,"subject":3,"statement_identifier":88,"presentation_identifier":"Phase1","within_identifier":1,"between_identifier":1,"response":3,"repeated":0,"rt":0.917,"trial":62},{"":410,"subject":3,"statement_identifier":77,"presentation_identifier":"Phase1","within_identifier":1,"between_identifier":1,"response":3,"repeated":0,"rt":1.088,"trial":63},{"":411,"subject":3,"statement_identifier":127,"presentation_identifier":"Phase1","within_identifier":1,"between_identifier":1,"response":3,"repeated":1,"rt":1.118,"trial":64},{"":412,"subject":3,"statement_identifier":52,"presentation_identifier":"Phase1","within_identifier":1,"between_identifier":1,"response":4,"repeated":0,"rt":5.901,"trial":65},{"":413,"subject":3,"statement_identifier":61,"presentation_identifier":"Phase1","within_identifier":1,"between_identifier":1,"response":2,"repeated":0,"rt":1.13,"trial":66},{"":414,"subject":3,"statement_identifier":96,"presentation_identifier":"Phase1","within_identifier":1,"between_identifier":1,"response":3,"repeated":1,"rt":4.857,"trial":67},{"":415,"subject":3,"statement_identifier":18,"presentation_identifier":"Phase1","within_identifier":1,"between_identifier":1,"response":5,"repeated":0,"rt":2.074,"trial":68},{"":416,"subject":3,"statement_identifier":12,"presentation_identifier":"Phase1","within_identifier":1,"between_identifier":1,"response":3,"repeated":0,"rt":2.273,"trial":69},{"":417,"subject":3,"statement_identifier":78,"presentation_identifier":"Phase1","within_identifier":1,"between_identifier":1,"response":3,"repeated":0,"rt":4.903,"trial":70},{"":418,"subject":3,"statement_identifier":62,"presentation_identifier":"Phase1","within_identifier":1,"between_identifier":1,"response":1,"repeated":0,"rt":3.477,"trial":71},{"":419,"subject":3,"statement_identifier":76,"presentation_identifier":"Phase1","within_identifier":1,"between_identifier":1,"response":4,"repeated":0,"rt":1.044,"trial":72},{"":420,"subject":3,"statement_identifier":101,"presentation_identifier":"Phase1","within_identifier":1,"between_identifier":1,"response":4,"repeated":1,"rt":1.725,"trial":73},{"":421,"subject":3,"statement_identifier":2,"presentation_identifier":"Phase1","within_identifier":1,"between_identifier":1,"response":3,"repeated":0,"rt":3.868,"trial":74},{"":422,"subject":3,"statement_identifier":108,"presentation_identifier":"Phase1","within_identifier":1,"between_identifier":1,"response":3,"repeated":1,"rt":6.721,"trial":75},{"":423,"subject":3,"statement_identifier":36,"presentation_identifier":"Phase1","within_identifier":1,"between_identifier":1,"response":3,"repeated":0,"rt":7.14,"trial":76},{"":424,"subject":3,"statement_identifier":55,"presentation_identifier":"Phase1","within_identifier":1,"between_identifier":1,"response":3,"repeated":0,"rt":2.81,"trial":77},{"":425,"subject":3,"statement_identifier":102,"presentation_identifier":"Phase1","within_identifier":1,"between_identifier":1,"response":4,"repeated":1,"rt":3.314,"trial":78},{"":426,"subject":3,"statement_identifier":45,"presentation_identifier":"Phase1","within_identifier":1,"between_identifier":1,"response":4,"repeated":0,"rt":3.321,"trial":79},{"":427,"subject":3,"statement_identifier":126,"presentation_identifier":"Phase1","within_identifier":1,"between_identifier":1,"response":4,"repeated":1,"rt":3.211,"trial":80},{"":428,"subject":3,"statement_identifier":51,"presentation_identifier":"Phase1","within_identifier":1,"between_identifier":1,"response":4,"repeated":0,"rt":4.871,"trial":81},{"":429,"subject":3,"statement_identifier":97,"presentation_identifier":"Phase1","within_identifier":1,"between_identifier":1,"response":4,"repeated":1,"rt":8.988,"trial":82},{"":430,"subject":3,"statement_identifier":37,"presentation_identifier":"Phase1","within_identifier":1,"between_identifier":1,"response":3,"repeated":0,"rt":2.277,"trial":83},{"":431,"subject":3,"statement_identifier":123,"presentation_identifier":"Phase1","within_identifier":1,"between_identifier":1,"response":6,"repeated":1,"rt":2.195,"trial":84},{"":432,"subject":3,"statement_identifier":5,"presentation_identifier":"Phase1","within_identifier":1,"between_identifier":1,"response":3,"repeated":0,"rt":6.32,"trial":85},{"":433,"subject":3,"statement_identifier":92,"presentation_identifier":"Phase1","within_identifier":1,"between_identifier":1,"response":4,"repeated":1,"rt":1.79,"trial":86},{"":434,"subject":3,"statement_identifier":120,"presentation_identifier":"Phase1","within_identifier":1,"between_identifier":1,"response":4,"repeated":1,"rt":3.702,"trial":87},{"":435,"subject":3,"statement_identifier":99,"presentation_identifier":"Phase1","within_identifier":1,"between_identifier":1,"response":4,"repeated":1,"rt":2.886,"trial":88},{"":436,"subject":3,"statement_identifier":7,"presentation_identifier":"Phase1","within_identifier":1,"between_identifier":1,"response":4,"repeated":0,"rt":2.97,"trial":89},{"":437,"subject":3,"statement_identifier":93,"presentation_identifier":"Phase1","within_identifier":1,"between_identifier":1,"response":6,"repeated":1,"rt":4.468,"trial":90},{"":438,"subject":3,"statement_identifier":118,"presentation_identifier":"Phase1","within_identifier":1,"between_identifier":1,"response":3,"repeated":1,"rt":6.967,"trial":91},{"":439,"subject":3,"statement_identifier":107,"presentation_identifier":"Phase1","within_identifier":1,"between_identifier":1,"response":4,"repeated":1,"rt":1.501,"trial":92},{"":440,"subject":3,"statement_identifier":15,"presentation_identifier":"Phase1","within_identifier":1,"between_identifier":1,"response":4,"repeated":0,"rt":0.862,"trial":93},{"":441,"subject":3,"statement_identifier":34,"presentation_identifier":"Phase2","within_identifier":1,"between_identifier":1,"response":4,"repeated":0,"rt":5.646,"trial":191},{"":442,"subject":3,"statement_identifier":70,"presentation_identifier":"Phase2","within_identifier":1,"between_identifier":1,"response":3,"repeated":0,"rt":0.802,"trial":192},{"":443,"subject":3,"statement_identifier":99,"presentation_identifier":"Phase2","within_identifier":1,"between_identifier":1,"response":4,"repeated":1,"rt":1.076,"trial":193},{"":444,"subject":3,"statement_identifier":22,"presentation_identifier":"Phase2","within_identifier":1,"between_identifier":1,"response":4,"repeated":0,"rt":3.434,"trial":194},{"":445,"subject":3,"statement_identifier":108,"presentation_identifier":"Phase2","within_identifier":1,"between_identifier":1,"response":3,"repeated":1,"rt":1.415,"trial":195},{"":446,"subject":3,"statement_identifier":101,"presentation_identifier":"Phase2","within_identifier":1,"between_identifier":1,"response":4,"repeated":1,"rt":3.354,"trial":196},{"":447,"subject":3,"statement_identifier":27,"presentation_identifier":"Phase2","within_identifier":1,"between_identifier":1,"response":4,"repeated":0,"rt":1.874,"trial":197},{"":448,"subject":3,"statement_identifier":3,"presentation_identifier":"Phase2","within_identifier":1,"between_identifier":1,"response":4,"repeated":0,"rt":1.031,"trial":198},{"":449,"subject":3,"statement_identifier":67,"presentation_identifier":"Phase2","within_identifier":1,"between_identifier":1,"response":4,"repeated":0,"rt":2.089,"trial":199},{"":450,"subject":3,"statement_identifier":6,"presentation_identifier":"Phase2","within_identifier":1,"between_identifier":1,"response":4,"repeated":0,"rt":1.329,"trial":200},{"":451,"subject":3,"statement_identifier":111,"presentation_identifier":"Phase2","within_identifier":1,"between_identifier":1,"response":3,"repeated":1,"rt":1.752,"trial":201},{"":452,"subject":3,"statement_identifier":63,"presentation_identifier":"Phase2","within_identifier":1,"between_identifier":1,"response":3,"repeated":0,"rt":3.149,"trial":202},{"":453,"subject":3,"statement_identifier":120,"presentation_identifier":"Phase2","within_identifier":1,"between_identifier":1,"response":4,"repeated":1,"rt":1.179,"trial":203},{"":454,"subject":3,"statement_identifier":24,"presentation_identifier":"Phase2","within_identifier":1,"between_identifier":1,"response":4,"repeated":0,"rt":2.098,"trial":204},{"":455,"subject":3,"statement_identifier":64,"presentation_identifier":"Phase2","within_identifier":1,"between_identifier":1,"response":5,"repeated":0,"rt":1.942,"trial":205},{"":456,"subject":3,"statement_identifier":35,"presentation_identifier":"Phase2","within_identifier":1,"between_identifier":1,"response":4,"repeated":0,"rt":1.203,"trial":206},{"":457,"subject":3,"statement_identifier":123,"presentation_identifier":"Phase2","within_identifier":1,"between_identifier":1,"response":6,"repeated":1,"rt":0.973,"trial":207},{"":458,"subject":3,"statement_identifier":10,"presentation_identifier":"Phase2","within_identifier":1,"between_identifier":1,"response":3,"repeated":0,"rt":0.755,"trial":208},{"":459,"subject":3,"statement_identifier":30,"presentation_identifier":"Phase2","within_identifier":1,"between_identifier":1,"response":4,"repeated":0,"rt":1.903,"trial":209},{"":460,"subject":3,"statement_identifier":54,"presentation_identifier":"Phase2","within_identifier":1,"between_identifier":1,"response":3,"repeated":0,"rt":1.884,"trial":210},{"":461,"subject":3,"statement_identifier":31,"presentation_identifier":"Phase2","within_identifier":1,"between_identifier":1,"response":3,"repeated":0,"rt":1.833,"trial":211},{"":462,"subject":3,"statement_identifier":112,"presentation_identifier":"Phase2","within_identifier":1,"between_identifier":1,"response":3,"repeated":1,"rt":3.631,"trial":212},{"":463,"subject":3,"statement_identifier":122,"presentation_identifier":"Phase2","within_identifier":1,"between_identifier":1,"response":3,"repeated":1,"rt":1.204,"trial":213},{"":464,"subject":3,"statement_identifier":97,"presentation_identifier":"Phase2","within_identifier":1,"between_identifier":1,"response":4,"repeated":1,"rt":0.857,"trial":214},{"":465,"subject":3,"statement_identifier":84,"presentation_identifier":"Phase2","within_identifier":1,"between_identifier":1,"response":4,"repeated":0,"rt":1.621,"trial":215},{"":466,"subject":3,"statement_identifier":128,"presentation_identifier":"Phase2","within_identifier":1,"between_identifier":1,"response":4,"repeated":1,"rt":0.953,"trial":216},{"":467,"subject":3,"statement_identifier":8,"presentation_identifier":"Phase2","within_identifier":1,"between_identifier":1,"response":5,"repeated":0,"rt":3.019,"trial":217},{"":468,"subject":3,"statement_identifier":42,"presentation_identifier":"Phase2","within_identifier":1,"between_identifier":1,"response":3,"repeated":0,"rt":3.643,"trial":218},{"":469,"subject":3,"statement_identifier":119,"presentation_identifier":"Phase2","within_identifier":1,"between_identifier":1,"response":2,"repeated":1,"rt":2.445,"trial":219},{"":470,"subject":3,"statement_identifier":80,"presentation_identifier":"Phase2","within_identifier":1,"between_identifier":1,"response":4,"repeated":0,"rt":3.123,"trial":220},{"":471,"subject":3,"statement_identifier":104,"presentation_identifier":"Phase2","within_identifier":1,"between_identifier":1,"response":3,"repeated":1,"rt":0.698,"trial":221},{"":472,"subject":3,"statement_identifier":16,"presentation_identifier":"Phase2","within_identifier":1,"between_identifier":1,"response":4,"repeated":0,"rt":2.707,"trial":222},{"":473,"subject":3,"statement_identifier":125,"presentation_identifier":"Phase2","within_identifier":1,"between_identifier":1,"response":3,"repeated":1,"rt":1.433,"trial":223},{"":474,"subject":3,"statement_identifier":107,"presentation_identifier":"Phase2","within_identifier":1,"between_identifier":1,"response":4,"repeated":1,"rt":1.495,"trial":224},{"":475,"subject":3,"statement_identifier":100,"presentation_identifier":"Phase2","within_identifier":1,"between_identifier":1,"response":4,"repeated":1,"rt":0.666,"trial":225},{"":476,"subject":3,"statement_identifier":132,"presentation_identifier":"Phase2","within_identifier":1,"between_identifier":1,"response":3,"repeated":1,"rt":1.1,"trial":226},{"":477,"subject":3,"statement_identifier":96,"presentation_identifier":"Phase2","within_identifier":1,"between_identifier":1,"response":3,"repeated":1,"rt":1.138,"trial":227},{"":478,"subject":3,"statement_identifier":9,"presentation_identifier":"Phase2","within_identifier":1,"between_identifier":1,"response":4,"repeated":0,"rt":1.381,"trial":228},{"":479,"subject":3,"statement_identifier":94,"presentation_identifier":"Phase2","within_identifier":1,"between_identifier":1,"response":3,"repeated":1,"rt":1.574,"trial":229},{"":480,"subject":3,"statement_identifier":95,"presentation_identifier":"Phase2","within_identifier":1,"between_identifier":1,"response":2,"repeated":1,"rt":2.813,"trial":230},{"":481,"subject":3,"statement_identifier":114,"presentation_identifier":"Phase2","within_identifier":1,"between_identifier":1,"response":4,"repeated":1,"rt":1.115,"trial":231},{"":482,"subject":3,"statement_identifier":19,"presentation_identifier":"Phase2","within_identifier":1,"between_identifier":1,"response":4,"repeated":0,"rt":1.695,"trial":232},{"":483,"subject":3,"statement_identifier":131,"presentation_identifier":"Phase2","within_identifier":1,"between_identifier":1,"response":3,"repeated":1,"rt":1.095,"trial":233},{"":484,"subject":3,"statement_identifier":69,"presentation_identifier":"Phase2","within_identifier":1,"between_identifier":1,"response":4,"repeated":0,"rt":1.884,"trial":234},{"":485,"subject":3,"statement_identifier":26,"presentation_identifier":"Phase2","within_identifier":1,"between_identifier":1,"response":4,"repeated":0,"rt":1.166,"trial":235},{"":486,"subject":3,"statement_identifier":47,"presentation_identifier":"Phase2","within_identifier":1,"between_identifier":1,"response":3,"repeated":0,"rt":2.149,"trial":236},{"":487,"subject":3,"statement_identifier":82,"presentation_identifier":"Phase2","within_identifier":1,"between_identifier":1,"response":4,"repeated":0,"rt":2.85,"trial":237},{"":488,"subject":3,"statement_identifier":121,"presentation_identifier":"Phase2","within_identifier":1,"between_identifier":1,"response":3,"repeated":1,"rt":0.891,"trial":238},{"":489,"subject":3,"statement_identifier":38,"presentation_identifier":"Phase2","within_identifier":1,"between_identifier":1,"response":3,"repeated":0,"rt":0.912,"trial":239},{"":490,"subject":3,"statement_identifier":71,"presentation_identifier":"Phase2","within_identifier":1,"between_identifier":1,"response":3,"repeated":0,"rt":3.387,"trial":240},{"":491,"subject":3,"statement_identifier":103,"presentation_identifier":"Phase2","within_identifier":1,"between_identifier":1,"response":3,"repeated":1,"rt":1.137,"trial":241},{"":492,"subject":3,"statement_identifier":50,"presentation_identifier":"Phase2","within_identifier":1,"between_identifier":1,"response":3,"repeated":0,"rt":2.301,"trial":242},{"":493,"subject":3,"statement_identifier":90,"presentation_identifier":"Phase2","within_identifier":1,"between_identifier":1,"response":1,"repeated":1,"rt":2.753,"trial":243},{"":494,"subject":3,"statement_identifier":113,"presentation_identifier":"Phase2","within_identifier":1,"between_identifier":1,"response":3,"repeated":1,"rt":0.867,"trial":244},{"":495,"subject":3,"statement_identifier":86,"presentation_identifier":"Phase2","within_identifier":1,"between_identifier":1,"response":2,"repeated":0,"rt":1.321,"trial":245},{"":496,"subject":3,"statement_identifier":117,"presentation_identifier":"Phase2","within_identifier":1,"between_identifier":1,"response":4,"repeated":1,"rt":0.779,"trial":246},{"":497,"subject":3,"statement_identifier":98,"presentation_identifier":"Phase2","within_identifier":1,"between_identifier":1,"response":4,"repeated":1,"rt":0.597,"trial":247},{"":498,"subject":3,"statement_identifier":48,"presentation_identifier":"Phase2","within_identifier":1,"between_identifier":1,"response":3,"repeated":0,"rt":1.096,"trial":248},{"":499,"subject":3,"statement_identifier":102,"presentation_identifier":"Phase2","within_identifier":1,"between_identifier":1,"response":3,"repeated":1,"rt":0.769,"trial":249},{"":500,"subject":3,"statement_identifier":116,"presentation_identifier":"Phase2","within_identifier":1,"between_identifier":1,"response":4,"repeated":1,"rt":0.823,"trial":250},{"":501,"subject":3,"statement_identifier":21,"presentation_identifier":"Phase2","within_identifier":1,"between_identifier":1,"response":4,"repeated":0,"rt":1.585,"trial":251},{"":502,"subject":3,"statement_identifier":118,"presentation_identifier":"Phase2","within_identifier":1,"between_identifier":1,"response":3,"repeated":1,"rt":1.124,"trial":252},{"":503,"subject":3,"statement_identifier":14,"presentation_identifier":"Phase2","within_identifier":1,"between_identifier":1,"response":3,"repeated":0,"rt":0.92,"trial":253},{"":504,"subject":3,"statement_identifier":92,"presentation_identifier":"Phase2","within_identifier":1,"between_identifier":1,"response":4,"repeated":1,"rt":0.996,"trial":254},{"":505,"subject":3,"statement_identifier":126,"presentation_identifier":"Phase2","within_identifier":1,"between_identifier":1,"response":4,"repeated":1,"rt":1.212,"trial":255},{"":506,"subject":3,"statement_identifier":93,"presentation_identifier":"Phase2","within_identifier":1,"between_identifier":1,"response":6,"repeated":1,"rt":0.851,"trial":256},{"":507,"subject":3,"statement_identifier":81,"presentation_identifier":"Phase2","within_identifier":1,"between_identifier":1,"response":4,"repeated":0,"rt":2.158,"trial":257},{"":508,"subject":3,"statement_identifier":89,"presentation_identifier":"Phase2","within_identifier":1,"between_identifier":1,"response":3,"repeated":1,"rt":0.918,"trial":258},{"":509,"subject":3,"statement_identifier":129,"presentation_identifier":"Phase2","within_identifier":1,"between_identifier":1,"response":2,"repeated":1,"rt":1.398,"trial":259},{"":510,"subject":3,"statement_identifier":106,"presentation_identifier":"Phase2","within_identifier":1,"between_identifier":1,"response":3,"repeated":1,"rt":1.199,"trial":260},{"":511,"subject":3,"statement_identifier":124,"presentation_identifier":"Phase2","within_identifier":1,"between_identifier":1,"response":3,"repeated":1,"rt":0.93,"trial":261},{"":512,"subject":3,"statement_identifier":40,"presentation_identifier":"Phase2","within_identifier":1,"between_identifier":1,"response":3,"repeated":0,"rt":4.676,"trial":262},{"":513,"subject":3,"statement_identifier":66,"presentation_identifier":"Phase2","within_identifier":1,"between_identifier":1,"response":4,"repeated":0,"rt":1.341,"trial":263},{"":514,"subject":3,"statement_identifier":91,"presentation_identifier":"Phase2","within_identifier":1,"between_identifier":1,"response":4,"repeated":1,"rt":1.026,"trial":264},{"":515,"subject":3,"statement_identifier":109,"presentation_identifier":"Phase2","within_identifier":1,"between_identifier":1,"response":4,"repeated":1,"rt":1.055,"trial":265},{"":516,"subject":3,"statement_identifier":105,"presentation_identifier":"Phase2","within_identifier":1,"between_identifier":1,"response":4,"repeated":1,"rt":0.636,"trial":266},{"":517,"subject":3,"statement_identifier":73,"presentation_identifier":"Phase2","within_identifier":1,"between_identifier":1,"response":3,"repeated":0,"rt":2.495,"trial":267},{"":518,"subject":3,"statement_identifier":79,"presentation_identifier":"Phase2","within_identifier":1,"between_identifier":1,"response":4,"repeated":0,"rt":0.779,"trial":268},{"":519,"subject":3,"statement_identifier":1,"presentation_identifier":"Phase2","within_identifier":1,"between_identifier":1,"response":4,"repeated":0,"rt":1.916,"trial":269},{"":520,"subject":3,"statement_identifier":56,"presentation_identifier":"Phase2","within_identifier":1,"between_identifier":1,"response":4,"repeated":0,"rt":1.521,"trial":270},{"":521,"subject":3,"statement_identifier":28,"presentation_identifier":"Phase2","within_identifier":1,"between_identifier":1,"response":4,"repeated":0,"rt":2.084,"trial":271},{"":522,"subject":3,"statement_identifier":59,"presentation_identifier":"Phase2","within_identifier":1,"between_identifier":1,"response":3,"repeated":0,"rt":1.014,"trial":272},{"":523,"subject":3,"statement_identifier":130,"presentation_identifier":"Phase2","within_identifier":1,"between_identifier":1,"response":3,"repeated":1,"rt":1.064,"trial":273},{"":524,"subject":3,"statement_identifier":115,"presentation_identifier":"Phase2","within_identifier":1,"between_identifier":1,"response":3,"repeated":1,"rt":2.812,"trial":274},{"":525,"subject":3,"statement_identifier":49,"presentation_identifier":"Phase2","within_identifier":1,"between_identifier":1,"response":3,"repeated":0,"rt":4.291,"trial":275},{"":526,"subject":3,"statement_identifier":110,"presentation_identifier":"Phase2","within_identifier":1,"between_identifier":1,"response":3,"repeated":1,"rt":0.698,"trial":276},{"":527,"subject":3,"statement_identifier":127,"presentation_identifier":"Phase2","within_identifier":1,"between_identifier":1,"response":3,"repeated":1,"rt":0.813,"trial":277},{"":528,"subject":3,"statement_identifier":11,"presentation_identifier":"Phase2","within_identifier":1,"between_identifier":1,"response":3,"repeated":0,"rt":1.676,"trial":278},{"":529,"subject":4,"statement_identifier":48,"presentation_identifier":"Phase1","within_identifier":1,"between_identifier":1,"response":3,"repeated":0,"rt":3.445,"trial":6},{"":530,"subject":4,"statement_identifier":78,"presentation_identifier":"Phase1","within_identifier":1,"between_identifier":1,"response":5,"repeated":1,"rt":3.181,"trial":7},{"":531,"subject":4,"statement_identifier":25,"presentation_identifier":"Phase1","within_identifier":1,"between_identifier":1,"response":5,"repeated":1,"rt":1.09,"trial":8},{"":532,"subject":4,"statement_identifier":34,"presentation_identifier":"Phase1","within_identifier":1,"between_identifier":1,"response":4,"repeated":0,"rt":1.229,"trial":9},{"":533,"subject":4,"statement_identifier":30,"presentation_identifier":"Phase1","within_identifier":1,"between_identifier":1,"response":3,"repeated":0,"rt":1.518,"trial":10},{"":534,"subject":4,"statement_identifier":88,"presentation_identifier":"Phase1","within_identifier":1,"between_identifier":1,"response":1,"repeated":1,"rt":2.252,"trial":11},{"":535,"subject":4,"statement_identifier":75,"presentation_identifier":"Phase1","within_identifier":1,"between_identifier":1,"response":2,"repeated":1,"rt":3.531,"trial":12},{"":536,"subject":4,"statement_identifier":31,"presentation_identifier":"Phase1","within_identifier":1,"between_identifier":1,"response":4,"repeated":0,"rt":0.922,"trial":13},{"":537,"subject":4,"statement_identifier":46,"presentation_identifier":"Phase1","within_identifier":1,"between_identifier":1,"response":2,"repeated":1,"rt":1.069,"trial":14},{"":538,"subject":4,"statement_identifier":63,"presentation_identifier":"Phase1","within_identifier":1,"between_identifier":1,"response":2,"repeated":0,"rt":3.884,"trial":15},{"":539,"subject":4,"statement_identifier":74,"presentation_identifier":"Phase1","within_identifier":1,"between_identifier":1,"response":6,"repeated":1,"rt":0.815,"trial":16},{"":540,"subject":4,"statement_identifier":65,"presentation_identifier":"Phase1","within_identifier":1,"between_identifier":1,"response":4,"repeated":1,"rt":1.455,"trial":17},{"":541,"subject":4,"statement_identifier":42,"presentation_identifier":"Phase1","within_identifier":1,"between_identifier":1,"response":4,"repeated":0,"rt":2.045,"trial":18},{"":542,"subject":4,"statement_identifier":56,"presentation_identifier":"Phase1","within_identifier":1,"between_identifier":1,"response":6,"repeated":0,"rt":5.106,"trial":19},{"":543,"subject":4,"statement_identifier":57,"presentation_identifier":"Phase1","within_identifier":1,"between_identifier":1,"response":4,"repeated":1,"rt":2.347,"trial":20},{"":544,"subject":4,"statement_identifier":71,"presentation_identifier":"Phase1","within_identifier":1,"between_identifier":1,"response":4,"repeated":0,"rt":2.152,"trial":21},{"":545,"subject":4,"statement_identifier":53,"presentation_identifier":"Phase1","within_identifier":1,"between_identifier":1,"response":4,"repeated":1,"rt":1.286,"trial":22},{"":546,"subject":4,"statement_identifier":60,"presentation_identifier":"Phase1","within_identifier":1,"between_identifier":1,"response":5,"repeated":1,"rt":3.872,"trial":23},{"":547,"subject":4,"statement_identifier":66,"presentation_identifier":"Phase1","within_identifier":1,"between_identifier":1,"response":4,"repeated":0,"rt":3.159,"trial":24},{"":548,"subject":4,"statement_identifier":84,"presentation_identifier":"Phase1","within_identifier":1,"between_identifier":1,"response":3,"repeated":0,"rt":1.881,"trial":25},{"":549,"subject":4,"statement_identifier":20,"presentation_identifier":"Phase1","within_identifier":1,"between_identifier":1,"response":3,"repeated":1,"rt":5.419,"trial":26},{"":550,"subject":4,"statement_identifier":5,"presentation_identifier":"Phase1","within_identifier":1,"between_identifier":1,"response":5,"repeated":1,"rt":1.148,"trial":27},{"":551,"subject":4,"statement_identifier":67,"presentation_identifier":"Phase1","within_identifier":1,"between_identifier":1,"response":4,"repeated":0,"rt":5.785,"trial":28},{"":552,"subject":4,"statement_identifier":18,"presentation_identifier":"Phase1","within_identifier":1,"between_identifier":1,"response":4,"repeated":1,"rt":2.728,"trial":29},{"":553,"subject":4,"statement_identifier":8,"presentation_identifier":"Phase1","within_identifier":1,"between_identifier":1,"response":3,"repeated":0,"rt":0.643,"trial":30},{"":554,"subject":4,"statement_identifier":2,"presentation_identifier":"Phase1","within_identifier":1,"between_identifier":1,"response":2,"repeated":1,"rt":2.381,"trial":31},{"":555,"subject":4,"statement_identifier":13,"presentation_identifier":"Phase1","within_identifier":1,"between_identifier":1,"response":4,"repeated":1,"rt":0.838,"trial":32},{"":556,"subject":4,"statement_identifier":1,"presentation_identifier":"Phase1","within_identifier":1,"between_identifier":1,"response":5,"repeated":0,"rt":5.557,"trial":33},{"":557,"subject":4,"statement_identifier":37,"presentation_identifier":"Phase1","within_identifier":1,"between_identifier":1,"response":3,"repeated":1,"rt":3.793,"trial":34},{"":558,"subject":4,"statement_identifier":21,"presentation_identifier":"Phase1","within_identifier":1,"between_identifier":1,"response":4,"repeated":0,"rt":2.491,"trial":35},{"":559,"subject":4,"statement_identifier":11,"presentation_identifier":"Phase1","within_identifier":1,"between_identifier":1,"response":4,"repeated":0,"rt":3.224,"trial":36},{"":560,"subject":4,"statement_identifier":54,"presentation_identifier":"Phase1","within_identifier":1,"between_identifier":1,"response":4,"repeated":0,"rt":2.169,"trial":37},{"":561,"subject":4,"statement_identifier":14,"presentation_identifier":"Phase1","within_identifier":1,"between_identifier":1,"response":3,"repeated":0,"rt":2.099,"trial":38},{"":562,"subject":4,"statement_identifier":72,"presentation_identifier":"Phase1","within_identifier":1,"between_identifier":1,"response":2,"repeated":1,"rt":5.421,"trial":39},{"":563,"subject":4,"statement_identifier":51,"presentation_identifier":"Phase1","within_identifier":1,"between_identifier":1,"response":5,"repeated":1,"rt":1.541,"trial":40},{"":564,"subject":4,"statement_identifier":59,"presentation_identifier":"Phase1","within_identifier":1,"between_identifier":1,"response":3,"repeated":0,"rt":2.069,"trial":41},{"":565,"