"","subject","statement_identifier","presentation_identifier","within_identifier","between_identifier","response","repeated","rt","trial"
"1",1,1,"JudgmentsP1",1,1,3,0,7.455,6
"2",1,2,"JudgmentsP1",1,1,5,0,4.45,7
"3",1,3,"JudgmentsP1",1,1,4,0,2.347,8
"4",1,4,"JudgmentsP1",1,1,2,0,2.244,9
"5",1,5,"JudgmentsP1",1,1,4,0,1.096,10
"6",1,6,"JudgmentsP1",1,1,4,0,2.704,11
"7",1,7,"JudgmentsP1",1,1,4,0,0.939,12
"8",1,8,"JudgmentsP1",1,1,4,0,2.195,13
"9",1,9,"JudgmentsP1",1,1,4,0,3.013,14
"10",1,10,"JudgmentsP1",1,1,3,0,3.674,15
"11",1,11,"JudgmentsP1",1,1,4,0,3.36,16
"12",1,12,"JudgmentsP1",1,1,4,0,0.846,17
"13",1,13,"JudgmentsP1",1,1,5,0,1.848,18
"14",1,14,"JudgmentsP1",1,1,5,0,1.456,19
"15",1,15,"JudgmentsP1",1,1,5,0,1.529,20
"16",1,16,"JudgmentsP1",1,1,5,0,2.356,21
"17",1,17,"JudgmentsP1",1,1,5,0,4.856,22
"18",1,18,"JudgmentsP1",1,1,4,0,3.522,23
"19",1,19,"JudgmentsP1",1,1,4,0,2.355,24
"20",1,20,"JudgmentsP1",1,1,6,0,0.91,25
"21",1,21,"JudgmentsP1",1,1,3,0,4.25,26
"22",1,22,"JudgmentsP1",1,1,4,0,1.243,27
"23",1,23,"JudgmentsP1",1,1,4,0,1.418,28
"24",1,24,"JudgmentsP1",1,1,3,0,1.403,29
"25",1,25,"JudgmentsP1",1,1,3,0,2.57,30
"26",1,26,"JudgmentsP1",1,1,2,0,1.41,31
"27",1,27,"JudgmentsP1",1,1,3,0,2.3,32
"28",1,28,"JudgmentsP1",1,1,4,0,1.471,33
"29",1,29,"JudgmentsP1",1,1,4,0,1.003,34
"30",1,30,"JudgmentsP1",1,1,6,0,1.225,35
"31",1,31,"JudgmentsP1",1,1,4,0,1.343,36
"32",1,32,"JudgmentsP1",1,1,4,0,1.185,37
"33",1,33,"JudgmentsP1",1,1,3,0,4.398,38
"34",1,34,"JudgmentsP1",1,1,4,0,0.686,39
"35",1,35,"JudgmentsP1",1,1,5,0,1.33,40
"36",1,36,"JudgmentsP1",1,1,4,0,1.132,41
"37",1,37,"JudgmentsP1",1,1,5,0,2.204,42
"38",1,38,"JudgmentsP1",1,1,4,0,2.504,43
"39",1,39,"JudgmentsP1",1,1,3,0,2.518,44
"40",1,40,"JudgmentsP1",1,1,5,0,5.963,45
"41",1,41,"JudgmentsP1",1,1,4,0,1.221,46
"42",1,42,"JudgmentsP1",1,1,3,0,5.15,47
"43",1,43,"JudgmentsP1",1,1,3,0,1.271,48
"44",1,44,"JudgmentsP1",1,1,3,0,3.394,49
"45",1,45,"JudgmentsP1",1,1,2,0,2.079,50
"46",1,46,"JudgmentsP1",1,1,5,0,0.841,51
"47",1,47,"JudgmentsP1",1,1,3,0,2.909,52
"48",1,48,"JudgmentsP1",1,1,4,0,0.851,53
"49",1,49,"JudgmentsP1",1,1,3,0,2.506,54
"50",1,50,"JudgmentsP1",1,1,5,0,2.811,55
"51",1,51,"JudgmentsP1",1,1,4,0,0.949,56
"52",1,52,"JudgmentsP1",1,1,3,0,7.519,57
"53",1,53,"JudgmentsP1",1,1,4,0,0.885,58
"54",1,54,"JudgmentsP1",1,1,3,0,1.559,59
"55",1,55,"JudgmentsP1",1,1,6,0,1.143,60
"56",1,56,"JudgmentsP1",1,1,2,0,2.501,61
"57",1,57,"JudgmentsP1",1,1,4,0,5.875,62
"58",1,58,"JudgmentsP1",1,1,5,0,0.768,63
"59",1,59,"JudgmentsP1",1,1,4,0,2.088,64
"60",1,60,"JudgmentsP1",1,1,3,0,3.223,65
"61",1,61,"JudgmentsP1",1,1,5,0,1.302,66
"62",1,62,"JudgmentsP1",1,1,5,0,0.702,67
"63",1,63,"JudgmentsP1",1,1,4,0,0.976,68
"64",1,64,"JudgmentsP1",1,1,5,0,0.761,69
"65",1,65,"JudgmentsP1",1,1,5,0,0.739,70
"66",1,66,"JudgmentsP1",1,1,3,0,3.921,71
"67",1,67,"JudgmentsP1",1,1,2,0,2.525,72
"68",1,68,"JudgmentsP1",1,1,3,0,1.519,73
"69",1,69,"JudgmentsP1",1,1,1,0,4.854,74
"70",1,70,"JudgmentsP1",1,1,4,0,1.838,75
"71",1,71,"JudgmentsP1",1,1,4,0,0.677,76
"72",1,72,"JudgmentsP1",1,1,5,0,2.653,77
"73",1,73,"JudgmentsP1",1,1,4,0,1.015,78
"74",1,74,"JudgmentsP1",1,1,4,0,0.889,79
"75",1,75,"JudgmentsP1",1,1,4,0,1.552,80
"76",1,76,"JudgmentsP1",1,1,4,0,1.272,81
"77",1,77,"JudgmentsP1",1,1,4,0,1.682,82
"78",1,78,"JudgmentsP1",1,1,5,0,0.731,83
"79",1,79,"JudgmentsP1",1,1,5,0,0.752,84
"80",1,80,"JudgmentsP1",1,1,3,0,2.298,85
"81",1,81,"JudgmentsP1",1,1,3,0,1.114,86
"82",1,82,"JudgmentsP1",1,1,4,0,0.755,87
"83",1,83,"JudgmentsP1",1,1,4,0,2.015,88
"84",1,84,"JudgmentsP1",1,1,4,0,3.269,89
"85",1,85,"JudgmentsP1",1,1,4,0,0.684,90
"86",1,86,"JudgmentsP1",1,1,3,0,1.586,91
"87",1,87,"JudgmentsP1",1,1,3,0,0.725,92
"88",1,88,"JudgmentsP1",1,1,5,0,0.796,93
"89",1,61,"JudgmentsP2",1,1,4,1,0.636,702
"90",1,89,"JudgmentsP2",1,1,4,0,0.911,703
"91",1,90,"JudgmentsP2",1,1,4,0,1.191,704
"92",1,91,"JudgmentsP2",1,1,3,0,2.119,705
"93",1,72,"JudgmentsP2",1,1,5,1,0.793,706
"94",1,92,"JudgmentsP2",1,1,4,0,0.65,707
"95",1,93,"JudgmentsP2",1,1,4,0,3.48,708
"96",1,2,"JudgmentsP2",1,1,5,1,0.688,709
"97",1,94,"JudgmentsP2",1,1,3,0,1.171,710
"98",1,80,"JudgmentsP2",1,1,3,1,0.736,711
"99",1,81,"JudgmentsP2",1,1,2,1,0.878,712
"100",1,33,"JudgmentsP2",1,1,3,1,0.849,713
"101",1,95,"JudgmentsP2",1,1,4,0,1.726,714
"102",1,65,"JudgmentsP2",1,1,5,1,0.665,715
"103",1,48,"JudgmentsP2",1,1,4,1,1.241,716
"104",1,96,"JudgmentsP2",1,1,3,0,1.396,717
"105",1,97,"JudgmentsP2",1,1,4,0,1.974,718
"106",1,98,"JudgmentsP2",1,1,5,0,1.155,719
"107",1,99,"JudgmentsP2",1,1,4,0,1.267,720
"108",1,100,"JudgmentsP2",1,1,4,0,2.283,721
"109",1,75,"JudgmentsP2",1,1,4,1,0.652,722
"110",1,21,"JudgmentsP2",1,1,3,1,0.794,723
"111",1,86,"JudgmentsP2",1,1,3,1,0.658,724
"112",1,73,"JudgmentsP2",1,1,4,1,1.08,725
"113",1,25,"JudgmentsP2",1,1,3,1,0.947,726
"114",1,41,"JudgmentsP2",1,1,4,1,0.995,727
"115",1,77,"JudgmentsP2",1,1,4,1,0.899,728
"116",1,101,"JudgmentsP2",1,1,4,0,0.8,729
"117",1,51,"JudgmentsP2",1,1,4,1,2.027,730
"118",1,102,"JudgmentsP2",1,1,4,0,1.506,731
"119",1,103,"JudgmentsP2",1,1,5,0,0.642,732
"120",1,104,"JudgmentsP2",1,1,5,0,0.701,733
"121",1,105,"JudgmentsP2",1,1,3,0,2.643,734
"122",1,14,"JudgmentsP2",1,1,4,1,0.533,735
"123",1,106,"JudgmentsP2",1,1,4,0,1.083,736
"124",1,107,"JudgmentsP2",1,1,3,0,3.814,737
"125",1,108,"JudgmentsP2",1,1,3,0,1.024,738
"126",1,109,"JudgmentsP2",1,1,4,0,1.649,739
"127",1,110,"JudgmentsP2",1,1,4,0,0.691,740
"128",1,46,"JudgmentsP2",1,1,5,1,0.953,741
"129",1,111,"JudgmentsP2",1,1,3,0,4.289,742
"130",1,84,"JudgmentsP2",1,1,4,1,0.553,743
"131",1,38,"JudgmentsP2",1,1,4,1,0.538,744
"132",1,35,"JudgmentsP2",1,1,5,1,0.903,745
"133",1,112,"JudgmentsP2",1,1,3,0,1.903,746
"134",1,45,"JudgmentsP2",1,1,2,1,0.646,747
"135",1,113,"JudgmentsP2",1,1,4,0,1.378,748
"136",1,67,"JudgmentsP2",1,1,3,1,0.679,749
"137",1,114,"JudgmentsP2",1,1,5,0,1.298,750
"138",1,49,"JudgmentsP2",1,1,3,1,0.671,751
"139",1,115,"JudgmentsP2",1,1,5,0,1.016,752
"140",1,20,"JudgmentsP2",1,1,6,1,0.692,753
"141",1,31,"JudgmentsP2",1,1,4,1,0.49,754
"142",1,42,"JudgmentsP2",1,1,3,1,0.624,755
"143",1,83,"JudgmentsP2",1,1,4,1,0.537,756
"144",1,116,"JudgmentsP2",1,1,1,0,2.391,757
"145",1,26,"JudgmentsP2",1,1,3,1,5.862,758
"146",1,88,"JudgmentsP2",1,1,5,1,0.607,759
"147",1,117,"JudgmentsP2",1,1,5,0,0.69,760
"148",1,118,"JudgmentsP2",1,1,4,0,0.584,761
"149",1,40,"JudgmentsP2",1,1,4,1,0.505,762
"150",1,9,"JudgmentsP2",1,1,4,1,0.841,763
"151",1,119,"JudgmentsP2",1,1,4,0,1.507,764
"152",1,82,"JudgmentsP2",1,1,4,1,0.499,765
"153",1,120,"JudgmentsP2",1,1,3,0,1.401,766
"154",1,121,"JudgmentsP2",1,1,4,0,1.644,767
"155",1,64,"JudgmentsP2",1,1,5,1,1.39,768
"156",1,23,"JudgmentsP2",1,1,4,1,0.814,769
"157",1,27,"JudgmentsP2",1,1,3,1,0.9,770
"158",1,122,"JudgmentsP2",1,1,5,0,1.017,771
"159",1,17,"JudgmentsP2",1,1,6,1,2.511,772
"160",1,123,"JudgmentsP2",1,1,3,0,1.262,773
"161",1,43,"JudgmentsP2",1,1,4,1,0.49,774
"162",1,54,"JudgmentsP2",1,1,3,1,0.624,775
"163",1,124,"JudgmentsP2",1,1,4,0,0.929,776
"164",1,125,"JudgmentsP2",1,1,5,0,0.654,777
"165",1,29,"JudgmentsP2",1,1,4,1,1.18,778
"166",1,74,"JudgmentsP2",1,1,5,1,0.586,779
"167",1,126,"JudgmentsP2",1,1,5,0,1.233,780
"168",1,10,"JudgmentsP2",1,1,3,1,0.553,781
"169",1,127,"JudgmentsP2",1,1,4,0,0.546,782
"170",1,128,"JudgmentsP2",1,1,4,0,3.179,783
"171",1,129,"JudgmentsP2",1,1,5,0,0.614,784
"172",1,130,"JudgmentsP2",1,1,4,0,1.02,785
"173",1,34,"JudgmentsP2",1,1,3,1,1.586,786
"174",1,60,"JudgmentsP2",1,1,4,1,0.873,787
"175",1,131,"JudgmentsP2",1,1,3,0,1.146,788
"176",1,132,"JudgmentsP2",1,1,5,0,0.666,789
"177",1,133,"JudgmentsP3",1,1,4,0,1.244,1
"178",1,1,"JudgmentsP3",1,1,3,1,1.007,2
"179",1,134,"JudgmentsP3",1,1,4,0,2.321,3
"180",1,135,"JudgmentsP3",1,1,4,0,0.914,4
"181",1,53,"JudgmentsP3",1,1,4,1,1.194,5
"182",1,70,"JudgmentsP3",1,1,3,1,0.699,6
"183",1,76,"JudgmentsP3",1,1,4,1,0.712,7
"184",1,136,"JudgmentsP3",1,1,3,0,4.202,8
"185",1,137,"JudgmentsP3",1,1,4,0,0.865,9
"186",1,138,"JudgmentsP3",1,1,4,0,0.569,10
"187",1,139,"JudgmentsP3",1,1,5,0,1.639,11
"188",1,71,"JudgmentsP3",1,1,5,1,0.705,12
"189",1,55,"JudgmentsP3",1,1,5,1,1.122,13
"190",1,140,"JudgmentsP3",1,1,5,0,0.748,14
"191",1,141,"JudgmentsP3",1,1,3,0,0.612,15
"192",1,142,"JudgmentsP3",1,1,5,0,1.866,16
"193",1,143,"JudgmentsP3",1,1,5,0,0.634,17
"194",1,68,"JudgmentsP3",1,1,5,1,0.778,18
"195",1,144,"JudgmentsP3",1,1,3,0,0.6,19
"196",1,11,"JudgmentsP3",1,1,4,1,0.875,20
"197",1,62,"JudgmentsP3",1,1,5,1,0.867,21
"198",1,145,"JudgmentsP3",1,1,4,0,3.316,22
"199",1,39,"JudgmentsP3",1,1,4,1,1.066,23
"200",1,8,"JudgmentsP3",1,1,5,1,0.809,24
"201",1,146,"JudgmentsP3",1,1,4,0,2.983,25
"202",1,147,"JudgmentsP3",1,1,5,0,0.659,26
"203",1,6,"JudgmentsP3",1,1,5,1,0.705,27
"204",1,148,"JudgmentsP3",1,1,4,0,1.657,28
"205",1,149,"JudgmentsP3",1,1,5,0,1.102,29
"206",1,150,"JudgmentsP3",1,1,3,0,3.654,30
"207",1,47,"JudgmentsP3",1,1,4,1,0.705,31
"208",1,52,"JudgmentsP3",1,1,5,1,1.778,32
"209",1,50,"JudgmentsP3",1,1,5,1,1.023,33
"210",1,58,"JudgmentsP3",1,1,5,1,0.663,34
"211",1,151,"JudgmentsP3",1,1,4,0,1.839,35
"212",1,78,"JudgmentsP3",1,1,4,1,2.225,36
"213",1,152,"JudgmentsP3",1,1,5,0,1.161,37
"214",1,153,"JudgmentsP3",1,1,3,0,1.539,38
"215",1,154,"JudgmentsP3",1,1,5,0,0.919,39
"216",1,155,"JudgmentsP3",1,1,3,0,1.57,40
"217",1,156,"JudgmentsP3",1,1,4,0,2.88,41
"218",1,36,"JudgmentsP3",1,1,5,1,0.689,42
"219",1,66,"JudgmentsP3",1,1,3,1,0.678,43
"220",1,18,"JudgmentsP3",1,1,4,1,0.786,44
"221",1,85,"JudgmentsP3",1,1,5,1,0.786,45
"222",1,7,"JudgmentsP3",1,1,5,1,0.883,46
"223",1,157,"JudgmentsP3",1,1,4,0,1.246,47
"224",1,158,"JudgmentsP3",1,1,2,0,2.104,48
"225",1,5,"JudgmentsP3",1,1,4,1,1.086,49
"226",1,12,"JudgmentsP3",1,1,4,1,1.881,50
"227",1,69,"JudgmentsP3",1,1,5,1,1.243,51
"228",1,159,"JudgmentsP3",1,1,5,0,1.382,52
"229",1,79,"JudgmentsP3",1,1,5,1,0.686,53
"230",1,15,"JudgmentsP3",1,1,4,1,0.529,54
"231",1,160,"JudgmentsP3",1,1,4,0,1.487,55
"232",1,161,"JudgmentsP3",1,1,2,0,0.634,56
"233",1,162,"JudgmentsP3",1,1,4,0,0.85,57
"234",1,163,"JudgmentsP3",1,1,3,0,1.68,58
"235",1,164,"JudgmentsP3",1,1,4,0,3.778,59
"236",1,19,"JudgmentsP3",1,1,5,1,0.621,60
"237",1,165,"JudgmentsP3",1,1,2,0,1.883,61
"238",1,166,"JudgmentsP3",1,1,6,0,1.164,62
"239",1,16,"JudgmentsP3",1,1,5,1,0.871,63
"240",1,167,"JudgmentsP3",1,1,4,0,0.839,64
"241",1,168,"JudgmentsP3",1,1,4,0,0.69,65
"242",1,59,"JudgmentsP3",1,1,4,1,1.888,66
"243",1,22,"JudgmentsP3",1,1,4,1,1.858,67
"244",1,57,"JudgmentsP3",1,1,5,1,1.407,68
"245",1,169,"JudgmentsP3",1,1,5,0,0.553,69
"246",1,170,"JudgmentsP3",1,1,3,0,2.514,70
"247",1,13,"JudgmentsP3",1,1,5,1,0.937,71
"248",1,171,"JudgmentsP3",1,1,3,0,4.895,72
"249",1,3,"JudgmentsP3",1,1,4,1,0.569,73
"250",1,172,"JudgmentsP3",1,1,4,0,1.111,74
"251",1,87,"JudgmentsP3",1,1,3,1,0.535,75
"252",1,63,"JudgmentsP3",1,1,3,1,1.084,76
"253",1,4,"JudgmentsP3",1,1,2,1,0.622,77
"254",1,173,"JudgmentsP3",1,1,4,0,1.487,78
"255",1,56,"JudgmentsP3",1,1,2,1,1.37,79
"256",1,174,"JudgmentsP3",1,1,4,0,1.983,80
"257",1,37,"JudgmentsP3",1,1,5,1,0.83,81
"258",1,30,"JudgmentsP3",1,1,5,1,0.83,82
"259",1,24,"JudgmentsP3",1,1,3,1,0.727,83
"260",1,44,"JudgmentsP3",1,1,4,1,0.689,84
"261",1,175,"JudgmentsP3",1,1,3,0,4.264,85
"262",1,32,"JudgmentsP3",1,1,5,1,0.746,86
"263",1,28,"JudgmentsP3",1,1,4,1,0.554,87
"264",1,176,"JudgmentsP3",1,1,4,0,1.291,88
"265",2,31,"JudgmentsP1",1,1,4,0,26.012,6
"266",2,22,"JudgmentsP1",1,1,2,0,2.118,7
"267",2,3,"JudgmentsP1",1,1,4,0,1.438,8
"268",2,57,"JudgmentsP1",1,1,4,0,0.899,9
"269",2,24,"JudgmentsP1",1,1,3,0,1.714,10
"270",2,55,"JudgmentsP1",1,1,5,0,0.983,11
"271",2,17,"JudgmentsP1",1,1,1,0,5.535,12
"272",2,67,"JudgmentsP1",1,1,3,0,4.626,13
"273",2,8,"JudgmentsP1",1,1,1,0,5.423,14
"274",2,85,"JudgmentsP1",1,1,4,0,3.443,15
"275",2,26,"JudgmentsP1",1,1,3,0,1.092,16
"276",2,79,"JudgmentsP1",1,1,1,0,1.89,17
"277",2,29,"JudgmentsP1",1,1,5,0,5.984,18
"278",2,62,"JudgmentsP1",1,1,4,0,1.082,19
"279",2,5,"JudgmentsP1",1,1,3,0,2.211,20
"280",2,1,"JudgmentsP1",1,1,3,0,0.987,21
"281",2,77,"JudgmentsP1",1,1,4,0,1.186,22
"282",2,39,"JudgmentsP1",1,1,5,0,1.034,23
"283",2,58,"JudgmentsP1",1,1,4,0,1.683,24
"284",2,63,"JudgmentsP1",1,1,3,0,14.699,25
"285",2,37,"JudgmentsP1",1,1,3,0,22.245,26
"286",2,13,"JudgmentsP1",1,1,4,0,0.843,27
"287",2,50,"JudgmentsP1",1,1,3,0,4.128,28
"288",2,76,"JudgmentsP1",1,1,3,0,8.095,29
"289",2,2,"JudgmentsP1",1,1,5,0,6.122,30
"290",2,75,"JudgmentsP1",1,1,4,0,0.968,31
"291",2,60,"JudgmentsP1",1,1,5,0,8.863,32
"292",2,23,"JudgmentsP1",1,1,6,0,1.11,33
"293",2,20,"JudgmentsP1",1,1,4,0,1.382,34
"294",2,46,"JudgmentsP1",1,1,2,0,6.209,35
"295",2,80,"JudgmentsP1",1,1,3,0,16.124,36
"296",2,19,"JudgmentsP1",1,1,4,0,9.534,37
"297",2,51,"JudgmentsP1",1,1,1,0,1.105,38
"298",2,82,"JudgmentsP1",1,1,5,0,3.084,39
"299",2,6,"JudgmentsP1",1,1,3,0,8.557,40
"300",2,52,"JudgmentsP1",1,1,5,0,7.212,41
"301",2,33,"JudgmentsP1",1,1,3,0,1.041,42
"302",2,12,"JudgmentsP1",1,1,2,0,1.888,43
"303",2,72,"JudgmentsP1",1,1,3,0,14.166,44
"304",2,53,"JudgmentsP1",1,1,5,0,2.171,45
"305",2,49,"JudgmentsP1",1,1,6,0,2.091,46
"306",2,78,"JudgmentsP1",1,1,5,0,1.801,47
"307",2,28,"JudgmentsP1",1,1,4,0,1.364,48
"308",2,11,"JudgmentsP1",1,1,3,0,1.473,49
"309",2,83,"JudgmentsP1",1,1,5,0,9.102,50
"310",2,61,"JudgmentsP1",1,1,4,0,2.191,51
"311",2,44,"JudgmentsP1",1,1,3,0,4.264,52
"312",2,32,"JudgmentsP1",1,1,5,0,1.697,53
"313",2,88,"JudgmentsP1",1,1,5,0,1.323,54
"314",2,9,"JudgmentsP1",1,1,4,0,1.54,55
"315",2,69,"JudgmentsP1",1,1,3,0,3.046,56
"316",2,25,"JudgmentsP1",1,1,5,0,0.866,57
"317",2,42,"JudgmentsP1",1,1,5,0,0.851,58
"318",2,41,"JudgmentsP1",1,1,4,0,3.526,59
"319",2,84,"JudgmentsP1",1,1,5,0,1.007,60
"320",2,87,"JudgmentsP1",1,1,3,0,0.809,61
"321",2,35,"JudgmentsP1",1,1,5,0,1.448,62
"322",2,38,"JudgmentsP1",1,1,5,0,1.017,63
"323",2,48,"JudgmentsP1",1,1,3,0,0.993,64
"324",2,27,"JudgmentsP1",1,1,5,0,0.713,65
"325",2,74,"JudgmentsP1",1,1,4,0,0.934,66
"326",2,54,"JudgmentsP1",1,1,4,0,4.154,67
"327",2,43,"JudgmentsP1",1,1,3,0,5.727,68
"328",2,65,"JudgmentsP1",1,1,5,0,2.003,69
"329",2,30,"JudgmentsP1",1,1,6,0,5.515,70
"330",2,36,"JudgmentsP1",1,1,4,0,2.266,71
"331",2,10,"JudgmentsP1",1,1,3,0,0.895,72
"332",2,4,"JudgmentsP1",1,1,4,0,8.931,73
"333",2,34,"JudgmentsP1",1,1,4,0,5.151,74
"334",2,68,"JudgmentsP1",1,1,4,0,0.968,75
"335",2,14,"JudgmentsP1",1,1,1,0,6.776,76
"336",2,40,"JudgmentsP1",1,1,4,0,6.2,77
"337",2,47,"JudgmentsP1",1,1,3,0,3.59,78
"338",2,70,"JudgmentsP1",1,1,3,0,0.837,79
"339",2,81,"JudgmentsP1",1,1,3,0,1.801,80
"340",2,45,"JudgmentsP1",1,1,3,0,5.43,81
"341",2,59,"JudgmentsP1",1,1,5,0,1.038,82
"342",2,64,"JudgmentsP1",1,1,4,0,11.319,83
"343",2,73,"JudgmentsP1",1,1,2,0,3.847,84
"344",2,16,"JudgmentsP1",1,1,4,0,4.968,85
"345",2,21,"JudgmentsP1",1,1,3,0,2.35,86
"346",2,15,"JudgmentsP1",1,1,3,0,1.737,87
"347",2,7,"JudgmentsP1",1,1,4,0,0.679,88
"348",2,66,"JudgmentsP1",1,1,2,0,1.805,89
"349",2,71,"JudgmentsP1",1,1,4,0,4.614,90
"350",2,18,"JudgmentsP1",1,1,1,0,6.35,91
"351",2,56,"JudgmentsP1",1,1,3,0,5.701,92
"352",2,86,"JudgmentsP1",1,1,6,0,0.864,93
"353",2,60,"JudgmentsP2",1,1,5,1,0.918,702
"354",2,49,"JudgmentsP2",1,1,5,1,0.881,703
"355",2,161,"JudgmentsP2",1,1,3,0,1.068,704
"356",2,2,"JudgmentsP2",1,1,5,1,0.707,705
"357",2,171,"JudgmentsP2",1,1,3,0,6.125,706
"358",2,73,"JudgmentsP2",1,1,2,1,2.211,707
"359",2,154,"JudgmentsP2",1,1,2,0,2.063,708
"360",2,23,"JudgmentsP2",1,1,6,1,1.727,709
"361",2,164,"JudgmentsP2",1,1,4,0,3.913,710
"362",2,75,"JudgmentsP2",1,1,4,1,0.686,711
"363",2,136,"JudgmentsP2",1,1,3,0,0.826,712
"364",2,159,"JudgmentsP2",1,1,4,0,1.146,713
"365",2,77,"JudgmentsP2",1,1,4,1,0.61,714
"366",2,82,"JudgmentsP2",1,1,5,1,0.727,715
"367",2,51,"JudgmentsP2",1,1,1,1,0.882,716
"368",2,80,"JudgmentsP2",1,1,3,1,0.581,717
"369",2,174,"JudgmentsP2",1,1,3,0,23.39,718
"370",2,168,"JudgmentsP2",1,1,3,0,0.559,719
"371",2,9,"JudgmentsP2",1,1,4,1,0.618,720
"372",2,35,"JudgmentsP2",1,1,5,1,0.695,721
"373",2,86,"JudgmentsP2",1,1,6,1,0.901,722
"374",2,157,"JudgmentsP2",1,1,3,0,3.163,723
"375",2,160,"JudgmentsP2",1,1,4,0,0.996,724
"376",2,17,"JudgmentsP2",1,1,1,1,1.59,725
"377",2,74,"JudgmentsP2",1,1,4,1,0.686,726
"378",2,172,"JudgmentsP2",1,1,2,0,1.361,727
"379",2,43,"JudgmentsP2",1,1,3,1,0.652,728
"380",2,137,"JudgmentsP2",1,1,3,0,2.482,729
"381",2,61,"JudgmentsP2",1,1,4,1,0.691,730
"382",2,29,"JudgmentsP2",1,1,5,1,0.608,731
"383",2,25,"JudgmentsP2",1,1,5,1,0.598,732
"384",2,54,"JudgmentsP2",1,1,4,1,0.529,733
"385",2,153,"JudgmentsP2",1,1,3,0,6.856,734
"386",2,42,"JudgmentsP2",1,1,5,1,0.848,735
"387",2,148,"JudgmentsP2",1,1,3,0,0.835,736
"388",2,162,"JudgmentsP2",1,1,3,0,2.391,737
"389",2,27,"JudgmentsP2",1,1,5,1,0.733,738
"390",2,155,"JudgmentsP2",1,1,5,0,0.85,739
"391",2,176,"JudgmentsP2",1,1,3,0,0.648,740
"392",2,134,"JudgmentsP2",1,1,4,0,0.539,741
"393",2,133,"JudgmentsP2",1,1,4,0,0.545,742
"394",2,88,"JudgmentsP2",1,1,5,1,0.809,743
"395",2,139,"JudgmentsP2",1,1,3,0,0.535,744
"396",2,83,"JudgmentsP2",1,1,5,1,0.837,745
"397",2,14,"JudgmentsP2",1,1,1,1,0.936,746
"398",2,147,"JudgmentsP2",1,1,3,0,3.997,747
"399",2,26,"JudgmentsP2",1,1,3,1,0.643,748
"400",2,64,"JudgmentsP2",1,1,4,1,0.582,749
"401",2,81,"JudgmentsP2",1,1,3,1,0.791,750
"402",2,48,"JudgmentsP2",1,1,3,1,0.567,751
"403",2,170,"JudgmentsP2",1,1,3,0,1.45,752
"404",2,21,"JudgmentsP2",1,1,3,1,0.535,753
"405",2,72,"JudgmentsP2",1,1,3,1,1.189,754
"406",2,138,"JudgmentsP2",1,1,3,0,0.485,755
"407",2,33,"JudgmentsP2",1,1,3,1,0.664,756
"408",2,31,"JudgmentsP2",1,1,4,1,2.793,757
"409",2,167,"JudgmentsP2",1,1,2,0,1.511,758
"410",2,38,"JudgmentsP2",1,1,5,1,0.695,759
"411",2,41,"JudgmentsP2",1,1,4,1,1.061,760
"412",2,156,"JudgmentsP2",1,1,3,0,0.617,761
"413",2,141,"JudgmentsP2",1,1,4,0,0.615,762
"414",2,143,"JudgmentsP2",1,1,4,0,0.629,763
"415",2,173,"JudgmentsP2",1,1,4,0,1.014,764
"416",2,165,"JudgmentsP2",1,1,3,0,0.947,765
"417",2,140,"JudgmentsP2",1,1,4,0,0.58,766
"418",2,158,"JudgmentsP2",1,1,3,0,2.314,767
"419",2,40,"JudgmentsP2",1,1,4,1,0.537,768
"420",2,163,"JudgmentsP2",1,1,4,0,1.086,769
"421",2,152,"JudgmentsP2",1,1,4,0,1.848,770
"422",2,145,"JudgmentsP2",1,1,3,0,0.963,771
"423",2,169,"JudgmentsP2",1,1,4,0,0.805,772
"424",2,10,"JudgmentsP2",1,1,3,1,0.505,773
"425",2,45,"JudgmentsP2",1,1,3,1,0.609,774
"426",2,151,"JudgmentsP2",1,1,4,0,2.391,775
"427",2,149,"JudgmentsP2",1,1,3,0,3.214,776
"428",2,67,"JudgmentsP2",1,1,3,1,0.546,777
"429",2,144,"JudgmentsP2",1,1,2,0,1.194,778
"430",2,166,"JudgmentsP2",1,1,4,0,0.529,779
"431",2,46,"JudgmentsP2",1,1,2,1,0.759,780
"432",2,34,"JudgmentsP2",1,1,5,1,0.994,781
"433",2,135,"JudgmentsP2",1,1,4,0,0.571,782
"434",2,175,"JudgmentsP2",1,1,4,0,0.625,783
"435",2,146,"JudgmentsP2",1,1,3,0,0.617,784
"436",2,20,"JudgmentsP2",1,1,4,1,0.614,785
"437",2,84,"JudgmentsP2",1,1,5,1,0.908,786
"438",2,150,"JudgmentsP2",1,1,3,0,2.668,787
"439",2,65,"JudgmentsP2",1,1,5,1,0.675,788
"440",2,142,"JudgmentsP2",1,1,3,0,19.929,789
"441",2,123,"JudgmentsP3",1,1,4,0,3.311,1
"442",2,59,"JudgmentsP3",1,1,6,1,1.973,2
"443",2,119,"JudgmentsP3",1,1,3,0,2.242,3
"444",2,111,"JudgmentsP3",1,1,4,0,2.348,4
"445",2,97,"JudgmentsP3",1,1,3,0,6.484,5
"446",2,6,"JudgmentsP3",1,1,3,1,1.145,6
"447",2,13,"JudgmentsP3",1,1,4,1,0.721,7
"448",2,52,"JudgmentsP3",1,1,5,1,3.923,8
"449",2,118,"JudgmentsP3",1,1,3,0,1.892,9
"450",2,87,"JudgmentsP3",1,1,3,1,0.841,10
"451",2,94,"JudgmentsP3",1,1,4,0,10.942,11
"452",2,36,"JudgmentsP3",1,1,5,1,1.001,12
"453",2,22,"JudgmentsP3",1,1,2,1,0.74,13
"454",2,131,"JudgmentsP3",1,1,3,0,1.89,14
"455",2,102,"JudgmentsP3",1,1,4,0,1.718,15
"456",2,63,"JudgmentsP3",1,1,5,1,2.705,16
"457",2,55,"JudgmentsP3",1,1,5,1,0.839,17
"458",2,95,"JudgmentsP3",1,1,4,0,8.515,18
"459",2,3,"JudgmentsP3",1,1,5,1,0.821,19
"460",2,122,"JudgmentsP3",1,1,5,0,0.85,20
"461",2,132,"JudgmentsP3",1,1,4,0,5.68,21
"462",2,8,"JudgmentsP3",1,1,1,1,0.895,22
"463",2,110,"JudgmentsP3",1,1,3,0,4.804,23
"464",2,39,"JudgmentsP3",1,1,5,1,0.724,24
"465",2,125,"JudgmentsP3",1,1,4,0,1.327,25
"466",2,117,"JudgmentsP3",1,1,5,0,1.145,26
"467",2,113,"JudgmentsP3",1,1,4,0,2.242,27
"468",2,70,"JudgmentsP3",1,1,3,1,0.755,28
"469",2,76,"JudgmentsP3",1,1,4,1,3.638,29
"470",2,98,"JudgmentsP3",1,1,5,0,5.512,30
"471",2,24,"JudgmentsP3",1,1,4,1,1.187,31
"472",2,50,"JudgmentsP3",1,1,4,1,1.467,32
"473",2,127,"JudgmentsP3",1,1,4,0,0.795,33
"474",2,68,"JudgmentsP3",1,1,5,1,1.822,34
"475",2,108,"JudgmentsP3",1,1,4,0,2.411,35
"476",2,89,"JudgmentsP3",1,1,6,0,1.047,36
"477",2,106,"JudgmentsP3",1,1,4,0,0.882,37
"478",2,58,"JudgmentsP3",1,1,5,1,1.053,38
"479",2,18,"JudgmentsP3",1,1,2,1,0.978,39
"480",2,19,"JudgmentsP3",1,1,4,1,0.832,40
"481",2,112,"JudgmentsP3",1,1,3,0,0.92,41
"482",2,96,"JudgmentsP3",1,1,4,0,1.018,42
"483",2,85,"JudgmentsP3",1,1,4,1,0.904,43
"484",2,12,"JudgmentsP3",1,1,3,1,0.696,44
"485",2,116,"JudgmentsP3",1,1,3,0,4.711,45
"486",2,71,"JudgmentsP3",1,1,4,1,1.195,46
"487",2,99,"JudgmentsP3",1,1,3,0,4.284,47
"488",2,4,"JudgmentsP3",1,1,4,1,1.171,48
"489",2,104,"JudgmentsP3",1,1,5,0,1.848,49
"490",2,37,"JudgmentsP3",1,1,4,1,6.395,50
"491",2,57,"JudgmentsP3",1,1,5,1,0.742,51
"492",2,5,"JudgmentsP3",1,1,2,1,0.751,52
"493",2,16,"JudgmentsP3",1,1,4,1,1.359,53
"494",2,56,"JudgmentsP3",1,1,3,1,0.666,54
"495",2,15,"JudgmentsP3",1,1,3,1,0.825,55
"496",2,109,"JudgmentsP3",1,1,3,0,0.85,56
"497",2,92,"JudgmentsP3",1,1,3,0,0.608,57
"498",2,128,"JudgmentsP3",1,1,4,0,2.419,58
"499",2,44,"JudgmentsP3",1,1,3,1,1.271,59
"500",2,91,"JudgmentsP3",1,1,5,0,2.007,60
"501",2,126,"JudgmentsP3",1,1,5,0,0.993,61
"502",2,93,"JudgmentsP3",1,1,2,0,1.113,62
"503",2,114,"JudgmentsP3",1,1,2,0,4.673,63
"504",2,1,"JudgmentsP3",1,1,3,1,1.046,64
"505",2,90,"JudgmentsP3",1,1,3,0,2.905,65
"506",2,101,"JudgmentsP3",1,1,2,0,1.152,66
"507",2,115,"JudgmentsP3",1,1,3,0,4.312,67
"508",2,120,"JudgmentsP3",1,1,3,0,3.486,68
"509",2,11,"JudgmentsP3",1,1,4,1,1.101,69
"510",2,103,"JudgmentsP3",1,1,2,0,2.772,70
"511",2,105,"JudgmentsP3",1,1,3,0,1.471,71
"512",2,69,"JudgmentsP3",1,1,3,1,0.679,72
"513",2,47,"JudgmentsP3",1,1,4,1,1.922,73
"514",2,62,"JudgmentsP3",1,1,5,1,0.716,74
"515",2,30,"JudgmentsP3",1,1,6,1,5.808,75
"516",2,53,"JudgmentsP3",1,1,6,1,0.878,76
"517",2,7,"JudgmentsP3",1,1,4,1,0.872,77
"518",2,32,"JudgmentsP3",1,1,6,1,1.561,78
"519",2,79,"JudgmentsP3",1,1,2,1,0.723,79
"520",2,129,"JudgmentsP3",1,1,4,0,1.238,80
"521",2,130,"JudgmentsP3",1,1,4,0,3.345,81
"522",2,107,"JudgmentsP3",1,1,4,0,1.455,82
"523",2,78,"JudgmentsP3",1,1,4,1,0.772,83
"524",2,28,"JudgmentsP3",1,1,3,1,1.41,84
"525",2,100,"JudgmentsP3",1,1,5,0,0.767,85
"526",2,66,"JudgmentsP3",1,1,2,1,0.674,86
"527",2,121,"JudgmentsP3",1,1,5,0,1.923,87
"528",2,124,"JudgmentsP3",1,1,3,0,5.021,88
"529",3,57,"JudgmentsP1",1,1,3,0,1.848,6
"530",3,83,"JudgmentsP1",1,1,3,0,1.257,7
"531",3,10,"JudgmentsP1",1,1,5,0,1.288,8
"532",3,87,"JudgmentsP1",1,1,4,0,0.801,9
"533",3,27,"JudgmentsP1",1,1,3,0,1.303,10
"534",3,67,"JudgmentsP1",1,1,2,0,1.163,11
"535",3,51,"JudgmentsP1",1,1,4,0,0.666,12
"536",3,17,"JudgmentsP1",1,1,6,0,0.803,13
"537",3,39,"JudgmentsP1",1,1,4,0,1.172,14
"538",3,28,"JudgmentsP1",1,1,3,0,2.157,15
"539",3,73,"JudgmentsP1",1,1,4,0,1.055,16
"540",3,41,"JudgmentsP1",1,1,4,0,2.015,17
"541",3,26,"JudgmentsP1",1,1,3,0,1.607,18
"542",3,70,"JudgmentsP1",1,1,3,0,0.505,19
"543",3,75,"JudgmentsP1",1,1,3,0,0.597,20
"544",3,76,"JudgmentsP1",1,1,4,0,0.856,21
"545",3,64,"JudgmentsP1",1,1,5,0,1.226,22
"546",3,8,"JudgmentsP1",1,1,2,0,1.4,23
"547",3,74,"JudgmentsP1",1,1,4,0,1.113,24
"548",3,24,"JudgmentsP1",1,1,3,0,0.554,25
"549",3,50,"JudgmentsP1",1,1,4,0,1.064,26
"550",3,71,"JudgmentsP1",1,1,4,0,0.738,27
"551",3,33,"JudgmentsP1",1,1,3,0,0.619,28
"552",3,20,"JudgmentsP1",1,1,3,0,0.673,29
"553",3,3,"JudgmentsP1",1,1,5,0,1.428,30
"554",3,85,"JudgmentsP1",1,1,4,0,0.839,31
"555",3,4,"JudgmentsP1",1,1,4,0,0.806,32
"556",3,38,"JudgmentsP1",1,1,5,0,1.396,33
"557",3,72,"JudgmentsP1",1,1,3,0,0.832,34
"558",3,32,"JudgmentsP1",1,1,2,0,1.529,35
"559",3,1,"JudgmentsP1",1,1,3,0,1.09,36
"560",3,21,"JudgmentsP1",1,1,3,0,0.558,37
"561",3,37,"JudgmentsP1",1,1,3,0,0.768,38
"562",3,18,"JudgmentsP1",1,1,3,0,0.588,39
"563",3,68,"JudgmentsP1",1,1,3,0,0.672,40
"564",3,30,"JudgmentsP1",1,1,4,0,1.703,41
"565",3,81,"JudgmentsP1",1,1,3,0,1.818,42
"566",3,63,"JudgmentsP1",1,1,3,0,0.946,43
"567",3,82,"JudgmentsP1",1,1,3,0,1.012,44
"568",3,13,"JudgmentsP1",1,1,4,0,1.412,45
"569",3,25,"JudgmentsP1",1,1,3,0,0.927,46
"570",3,22,"JudgmentsP1",1,1,3,0,1.745,47
"571",3,54,"JudgmentsP1",1,1,3,0,0.593,48
"572",3,29,"JudgmentsP1",1,1,3,0,0.646,49
"573",3,15,"JudgmentsP1",1,1,4,0,1.194,50
"574",3,58,"JudgmentsP1",1,1,3,0,0.649,51
"575",3,42,"JudgmentsP1",1,1,4,0,0.544,52
"576",3,84,"JudgmentsP1",1,1,4,0,0.804,53
"577",3,88,"JudgmentsP1",1,1,5,0,1.067,54
"578",3,48,"JudgmentsP1",1,1,3,0,1.529,55
"579",3,34,"JudgmentsP1",1,1,3,0,0.716,56
"580",3,19,"JudgmentsP1",1,1,3,0,0.689,57
"581",3,46,"JudgmentsP1",1,1,3,0,0.844,58
"582",3,59,"JudgmentsP1",1,1,4,0,1.515,59
"583",3,6,"JudgmentsP1",1,1,3,0,1.312,60
"584",3,61,"JudgmentsP1",1,1,3,0,0.883,61
"585",3,86,"JudgmentsP1",1,1,3,0,1.656,62
"586",3,12,"JudgmentsP1",1,1,4,0,1.478,63
"587",3,60,"JudgmentsP1",1,1,6,0,0.735,64
"588",3,45,"JudgmentsP1",1,1,4,0,0.753,65
"589",3,11,"JudgmentsP1",1,1,3,0,0.533,66
"590",3,9,"JudgmentsP1",1,1,3,0,1.006,67
"591",3,77,"JudgmentsP1",1,1,2,0,0.952,68
"592",3,5,"JudgmentsP1",1,1,3,0,0.548,69
"593",3,31,"JudgmentsP1",1,1,3,0,1.003,70
"594",3,56,"JudgmentsP1",1,1,3,0,0.711,71
"595",3,65,"JudgmentsP1",1,1,3,0,1.283,72
"596",3,2,"JudgmentsP1",1,1,4,0,1.406,73
"597",3,79,"JudgmentsP1",1,1,4,0,0.524,74
"598",3,78,"JudgmentsP1",1,1,4,0,0.828,75
"599",3,14,"JudgmentsP1",1,1,3,0,0.857,76
"600",3,47,"JudgmentsP1",1,1,3,0,2.093,77
"601",3,35,"JudgmentsP1",1,1,4,0,0.643,78
"602",3,7,"JudgmentsP1",1,1,3,0,0.53,79
"603",3,44,"JudgmentsP1",1,1,3,0,2.194,80
"604",3,16,"JudgmentsP1",1,1,4,0,0.939,81
"605",3,36,"JudgmentsP1",1,1,3,0,1.805,82
"606",3,52,"JudgmentsP1",1,1,5,0,0.919,83
"607",3,43,"JudgmentsP1",1,1,3,0,0.478,84
"608",3,49,"JudgmentsP1",1,1,4,0,1.511,85
"609",3,55,"JudgmentsP1",1,1,5,0,0.904,86
"610",3,62,"JudgmentsP1",1,1,3,0,0.972,87
"611",3,53,"JudgmentsP1",1,1,5,0,0.715,88
"612",3,69,"JudgmentsP1",1,1,4,0,1.151,89
"613",3,66,"JudgmentsP1",1,1,3,0,0.742,90
"614",3,23,"JudgmentsP1",1,1,3,0,1.848,91
"615",3,40,"JudgmentsP1",1,1,3,0,0.579,92
"616",3,80,"JudgmentsP1",1,1,4,0,0.541,93
"617",3,113,"JudgmentsP2",1,1,3,0,1.124,702
"618",3,57,"JudgmentsP2",1,1,3,1,0.63,703
"619",3,12,"JudgmentsP2",1,1,3,1,0.831,704
"620",3,99,"JudgmentsP2",1,1,4,0,1.071,705
"621",3,132,"JudgmentsP2",1,1,4,0,0.856,706
"622",3,89,"JudgmentsP2",1,1,6,0,0.964,707
"623",3,76,"JudgmentsP2",1,1,3,1,0.479,708
"624",3,96,"JudgmentsP2",1,1,3,0,0.971,709
"625",3,22,"JudgmentsP2",1,1,3,1,0.376,710
"626",3,95,"JudgmentsP2",1,1,3,0,0.558,711
"627",3,108,"JudgmentsP2",1,1,4,0,0.81,712
"628",3,85,"JudgmentsP2",1,1,3,1,0.534,713
"629",3,69,"JudgmentsP2",1,1,4,1,0.652,714
"630",3,59,"JudgmentsP2",1,1,3,1,0.586,715
"631",3,124,"JudgmentsP2",1,1,3,0,1.643,716
"632",3,109,"JudgmentsP2",1,1,3,0,0.629,717
"633",3,71,"JudgmentsP2",1,1,5,1,0.597,718
"634",3,78,"JudgmentsP2",1,1,4,1,0.56,719
"635",3,106,"JudgmentsP2",1,1,3,0,1.267,720
"636",3,105,"JudgmentsP2",1,1,3,0,1.523,721
"637",3,53,"JudgmentsP2",1,1,5,1,0.605,722
"638",3,11,"JudgmentsP2",1,1,4,1,0.561,723
"639",3,128,"JudgmentsP2",1,1,4,0,0.86,724
"640",3,4,"JudgmentsP2",1,1,3,1,0.538,725
"641",3,32,"JudgmentsP2",1,1,3,1,0.543,726
"642",3,3,"JudgmentsP2",1,1,4,1,0.479,727
"643",3,110,"JudgmentsP2",1,1,4,0,1.043,728
"644",3,68,"JudgmentsP2",1,1,3,1,0.518,729
"645",3,117,"JudgmentsP2",1,1,4,0,1.481,730
"646",3,94,"JudgmentsP2",1,1,4,0,2.187,731
"647",3,39,"JudgmentsP2",1,1,3,1,0.562,732
"648",3,28,"JudgmentsP2",1,1,4,1,0.589,733
"649",3,120,"JudgmentsP2",1,1,4,0,0.821,734
"650",3,8,"JudgmentsP2",1,1,3,1,0.518,735
"651",3,30,"JudgmentsP2",1,1,4,1,1.105,736
"652",3,103,"JudgmentsP2",1,1,3,0,1.297,737
"653",3,36,"JudgmentsP2",1,1,3,1,0.559,738
"654",3,104,"JudgmentsP2",1,1,4,0,1.226,739
"655",3,15,"JudgmentsP2",1,1,3,1,1.346,740
"656",3,19,"JudgmentsP2",1,1,3,1,0.489,741
"657",3,101,"JudgmentsP2",1,1,3,0,0.495,742
"658",3,55,"JudgmentsP2",1,1,5,1,0.733,743
"659",3,58,"JudgmentsP2",1,1,3,1,0.587,744
"660",3,66,"JudgmentsP2",1,1,3,1,0.587,745
"661",3,116,"JudgmentsP2",1,1,5,0,1.067,746
"662",3,93,"JudgmentsP2",1,1,3,0,0.475,747
"663",3,123,"JudgmentsP2",1,1,3,0,1.119,748
"664",3,98,"JudgmentsP2",1,1,5,0,0.537,749
"665",3,13,"JudgmentsP2",1,1,5,1,1.343,750
"666",3,47,"JudgmentsP2",1,1,3,1,0.807,751
"667",3,52,"JudgmentsP2",1,1,4,1,0.529,752
"668",3,90,"JudgmentsP2",1,1,2,0,1.567,753
"669",3,97,"JudgmentsP2",1,1,3,0,2.003,754
"670",3,24,"JudgmentsP2",1,1,3,1,0.724,755
"671",3,44,"JudgmentsP2",1,1,3,1,0.567,756
"672",3,50,"JudgmentsP2",1,1,4,1,0.562,757
"673",3,125,"JudgmentsP2",1,1,4,0,0.51,758
"674",3,115,"JudgmentsP2",1,1,4,0,0.614,759
"675",3,56,"JudgmentsP2",1,1,3,1,0.652,760
"676",3,1,"JudgmentsP2",1,1,4,1,0.585,761
"677",3,79,"JudgmentsP2",1,1,4,1,0.61,762
"678",3,70,"JudgmentsP2",1,1,3,1,0.48,763
"679",3,91,"JudgmentsP2",1,1,3,0,1.107,764
"680",3,92,"JudgmentsP2",1,1,3,0,0.523,765
"681",3,121,"JudgmentsP2",1,1,4,0,0.469,766
"682",3,102,"JudgmentsP2",1,1,3,0,1.166,767
"683",3,112,"JudgmentsP2",1,1,4,0,1.569,768
"684",3,7,"JudgmentsP2",1,1,3,1,0.462,769
"685",3,129,"JudgmentsP2",1,1,5,0,0.591,770
"686",3,6,"JudgmentsP2",1,1,3,1,0.583,771
"687",3,131,"JudgmentsP2",1,1,4,0,0.647,772
"688",3,16,"JudgmentsP2",1,1,4,1,0.546,773
"689",3,18,"JudgmentsP2",1,1,3,1,0.643,774
"690",3,63,"JudgmentsP2",1,1,3,1,0.55,775
"691",3,100,"JudgmentsP2",1,1,2,0,0.799,776
"692",3,5,"JudgmentsP2",1,1,4,1,0.841,777
"693",3,37,"JudgmentsP2",1,1,3,1,0.7,778
"694",3,111,"JudgmentsP2",1,1,3,0,1.698,779
"695",3,62,"JudgmentsP2",1,1,3,1,0.623,780
"696",3,87,"JudgmentsP2",1,1,4,1,0.543,781
"697",3,118,"JudgmentsP2",1,1,4,0,1.304,782
"698",3,127,"JudgmentsP2",1,1,4,0,0.536,783
"699",3,122,"JudgmentsP2",1,1,4,0,0.902,784
"700",3,114,"JudgmentsP2",1,1,3,0,1.484,785
"701",3,130,"JudgmentsP2",1,1,3,0,0.773,786
"702",3,126,"JudgmentsP2",1,1,4,0,1.315,787
"703",3,107,"JudgmentsP2",1,1,3,0,1.011,788
"704",3,119,"JudgmentsP2",1,1,3,0,0.512,789
"705",3,173,"JudgmentsP3",1,1,3,0,1.293,1
"706",3,157,"JudgmentsP3",1,1,3,0,1.075,2
"707",3,82,"JudgmentsP3",1,1,5,1,1.043,3
"708",3,54,"JudgmentsP3",1,1,4,1,1.822,4
"709",3,38,"JudgmentsP3",1,1,5,1,0.905,5
"710",3,139,"JudgmentsP3",1,1,3,0,0.786,6
"711",3,154,"JudgmentsP3",1,1,3,0,1.826,7
"712",3,41,"JudgmentsP3",1,1,4,1,0.522,8
"713",3,155,"JudgmentsP3",1,1,3,0,2.861,9
"714",3,149,"JudgmentsP3",1,1,3,0,0.617,10
"715",3,140,"JudgmentsP3",1,1,5,0,0.959,11
"716",3,45,"JudgmentsP3",1,1,4,1,0.642,12
"717",3,175,"JudgmentsP3",1,1,4,0,1.285,13
"718",3,134,"JudgmentsP3",1,1,3,0,0.447,14
"719",3,143,"JudgmentsP3",1,1,4,0,0.546,15
"720",3,142,"JudgmentsP3",1,1,4,0,1.467,16
"721",3,141,"JudgmentsP3",1,1,3,0,0.531,17
"722",3,147,"JudgmentsP3",1,1,3,0,0.633,18
"723",3,86,"JudgmentsP3",1,1,4,1,0.536,19
"724",3,9,"JudgmentsP3",1,1,3,1,0.79,20
"725",3,138,"JudgmentsP3",1,1,3,0,0.559,21
"726",3,164,"JudgmentsP3",1,1,3,0,0.658,22
"727",3,137,"JudgmentsP3",1,1,4,0,0.928,23
"728",3,72,"JudgmentsP3",1,1,3,1,0.683,24
"729",3,83,"JudgmentsP3",1,1,4,1,0.798,25
"730",3,17,"JudgmentsP3",1,1,6,1,0.904,26
"731",3,150,"JudgmentsP3",1,1,4,0,0.632,27
"732",3,34,"JudgmentsP3",1,1,4,1,0.521,28
"733",3,25,"JudgmentsP3",1,1,4,1,0.868,29
"734",3,162,"JudgmentsP3",1,1,3,0,1.173,30
"735",3,61,"JudgmentsP3",1,1,3,1,1.378,31
"736",3,136,"JudgmentsP3",1,1,3,0,0.566,32
"737",3,33,"JudgmentsP3",1,1,3,1,1.018,33
"738",3,153,"JudgmentsP3",1,1,4,0,0.767,34
"739",3,133,"JudgmentsP3",1,1,4,0,1.042,35
"740",3,161,"JudgmentsP3",1,1,3,0,1.149,36
"741",3,67,"JudgmentsP3",1,1,3,1,0.789,37
"742",3,176,"JudgmentsP3",1,1,3,0,0.622,38
"743",3,152,"JudgmentsP3",1,1,5,0,1.244,39
"744",3,158,"JudgmentsP3",1,1,5,0,1.781,40
"745",3,159,"JudgmentsP3",1,1,3,0,1.314,41
"746",3,49,"JudgmentsP3",1,1,4,1,0.514,42
"747",3,46,"JudgmentsP3",1,1,3,1,0.507,43
"748",3,170,"JudgmentsP3",1,1,4,0,0.579,44
"749",3,77,"JudgmentsP3",1,1,5,1,0.529,45
"750",3,74,"JudgmentsP3",1,1,5,1,0.607,46
"751",3,31,"JudgmentsP3",1,1,4,1,1.218,47
"752",3,144,"JudgmentsP3",1,1,4,0,0.647,48
"753",3,10,"JudgmentsP3",1,1,5,1,1.026,49
"754",3,166,"JudgmentsP3",1,1,5,0,1.467,50
"755",3,172,"JudgmentsP3",1,1,4,0,0.698,51
"756",3,48,"JudgmentsP3",1,1,3,1,0.64,52
"757",3,23,"JudgmentsP3",1,1,3,1,0.667,53
"758",3,169,"JudgmentsP3",1,1,4,0,0.499,54
"759",3,51,"JudgmentsP3",1,1,3,1,0.569,55
"760",3,14,"JudgmentsP3",1,1,3,1,0.911,56
"761",3,151,"JudgmentsP3",1,1,4,0,0.332,57
"762",3,135,"JudgmentsP3",1,1,4,0,1.123,58
"763",3,81,"JudgmentsP3",1,1,3,1,0.54,59
"764",3,27,"JudgmentsP3",1,1,5,1,0.602,60
"765",3,145,"JudgmentsP3",1,1,4,0,0.71,61
"766",3,42,"JudgmentsP3",1,1,4,1,1.75,62
"767",3,2,"JudgmentsP3",1,1,5,1,0.472,63
"768",3,160,"JudgmentsP3",1,1,3,0,0.897,64
"769",3,171,"JudgmentsP3",1,1,3,0,1.207,65
"770",3,156,"JudgmentsP3",1,1,4,0,0.904,66
"771",3,167,"JudgmentsP3",1,1,3,0,1.394,67
"772",3,35,"JudgmentsP3",1,1,5,1,0.576,68
"773",3,73,"JudgmentsP3",1,1,4,1,0.838,69
"774",3,174,"JudgmentsP3",1,1,3,0,0.737,70
"775",3,64,"JudgmentsP3",1,1,5,1,0.903,71
"776",3,40,"JudgmentsP3",1,1,4,1,0.84,72
"777",3,168,"JudgmentsP3",1,1,3,0,0.498,73
"778",3,88,"JudgmentsP3",1,1,5,1,0.608,74
"779",3,29,"JudgmentsP3",1,1,4,1,0.571,75
"780",3,165,"JudgmentsP3",1,1,4,0,1.553,76
"781",3,84,"JudgmentsP3",1,1,4,1,0.529,77
"782",3,75,"JudgmentsP3",1,1,3,1,1.183,78
"783",3,65,"JudgmentsP3",1,1,4,1,0.727,79
"784",3,148,"JudgmentsP3",1,1,3,0,1.498,80
"785",3,43,"JudgmentsP3",1,1,4,1,0.542,81
"786",3,26,"JudgmentsP3",1,1,3,1,0.431,82
"787",3,146,"JudgmentsP3",1,1,4,0,1.023,83
"788",3,20,"JudgmentsP3",1,1,4,1,0.712,84
"789",3,80,"JudgmentsP3",1,1,4,1,0.48,85
"790",3,163,"JudgmentsP3",1,1,4,0,0.411,86
"791",3,21,"JudgmentsP3",1,1,4,1,1.473,87
"792",3,60,"JudgmentsP3",1,1,6,1,0.84,88
"793",4,31,"JudgmentsP1",1,1,2,0,2.887,6
"794",4,2,"JudgmentsP1",1,1,4,0,1.894,7
"795",4,19,"JudgmentsP1",1,1,3,0,2.849,8
"796",4,52,"JudgmentsP1",1,1,5,0,2.158,9
"797",4,28,"JudgmentsP1",1,1,5,0,1.208,10
"798",4,11,"JudgmentsP1",1,1,3,0,2.659,11
"799",4,12,"JudgmentsP1",1,1,4,0,1.111,12
"800",4,7,"JudgmentsP1",1,1,5,0,0.714,13
"801",4,56,"JudgmentsP1",1,1,2,0,2.594,14
"802",4,27,"JudgmentsP1",1,1,4,0,1.203,15
"803",4,64,"JudgmentsP1",1,1,4,0,0.673,16
"804",4,10,"JudgmentsP1",1,1,5,0,1.801,17
"805",4,75,"JudgmentsP1",1,1,2,0,0.949,18
"806",4,40,"JudgmentsP1",1,1,5,0,1.491,19
"807",4,34,"JudgmentsP1",1,1,3,0,5.467,20
"808",4,22,"JudgmentsP1",1,1,2,0,1.56,21
"809",4,14,"JudgmentsP1",1,1,4,0,3.391,22
"810",4,73,"JudgmentsP1",1,1,4,0,1.697,23
"811",4,50,"JudgmentsP1",1,1,5,0,0.753,24
"812",4,43,"JudgmentsP1",1,1,2,0,1.866,25
"813",4,42,"JudgmentsP1",1,1,5,0,0.762,26
"814",4,58,"JudgmentsP1",1,1,5,0,0.672,27
"815",4,9,"JudgmentsP1",1,1,4,0,1.323,28
"816",4,55,"JudgmentsP1",1,1,6,0,0.833,29
"817",4,72,"JudgmentsP1",1,1,5,0,0.686,30
"818",4,61,"JudgmentsP1",1,1,4,0,1.418,31
"819",4,88,"JudgmentsP1",1,1,3,0,1.62,32
"820",4,38,"JudgmentsP1",1,1,4,0,1.002,33
"821",4,8,"JudgmentsP1",1,1,5,0,1.251,34
"822",4,54,"JudgmentsP1",1,1,5,0,0.904,35
"823",4,6,"JudgmentsP1",1,1,2,0,0.812,36
"824",4,85,"JudgmentsP1",1,1,4,0,0.915,37
"825",4,23,"JudgmentsP1",1,1,3,0,0.729,38
"826",4,18,"JudgmentsP1",1,1,4,0,0.528,39
"827",4,62,"JudgmentsP1",1,1,3,0,0.735,40
"828",4,3,"JudgmentsP1",1,1,3,0,0.623,41
"829",4,79,"JudgmentsP1",1,1,5,0,0.867,42
"830",4,32,"JudgmentsP1",1,1,2,0,1.41,43
"831",4,21,"JudgmentsP1",1,1,4,0,0.802,44
"832",4,48,"JudgmentsP1",1,1,2,0,1.075,45
"833",4,67,"JudgmentsP1",1,1,3,0,4.462,46
"834",4,78,"JudgmentsP1",1,1,3,0,0.722,47
"835",4,57,"JudgmentsP1",1,1,4,0,1.03,48
"836",4,16,"JudgmentsP1",1,1,4,0,1.269,49
"837",4,87,"JudgmentsP1",1,1,2,0,0.661,50
"838",4,83,"JudgmentsP1",1,1,5,0,1.513,51
"839",4,46,"JudgmentsP1",1,1,2,0,1.322,52
"840",4,1,"JudgmentsP1",1,1,4,0,0.746,53
"841",4,13,"JudgmentsP1",1,1,4,0,0.599,54
"842",4,66,"JudgmentsP1",1,1,4,0,0.803,55
"843",4,82,"JudgmentsP1",1,1,4,0,0.698,56
"844",4,68,"JudgmentsP1",1,1,2,0,0.59,57
"845",4,80,"JudgmentsP1",1,1,3,0,1.253,58
"846",4,63,"JudgmentsP1",1,1,3,0,3.798,59
"847",4,36,"JudgmentsP1",1,1,3,0,3.389,60
"848",4,5,"JudgmentsP1",1,1,5,0,0.818,61
"849",4,20,"JudgmentsP1",1,1,4,0,0.595,62
"850",4,24,"JudgmentsP1",1,1,3,0,1.334,63
"851",4,37,"JudgmentsP1",1,1,3,0,0.983,64
"852",4,76,"JudgmentsP1",1,1,4,0,0.792,65
"853",4,60,"JudgmentsP1",1,1,5,0,0.798,66
"854",4,29,"JudgmentsP1",1,1,3,0,0.856,67
"855",4,30,"JudgmentsP1",1,1,6,0,0.76,68
"856",4,41,"JudgmentsP1",1,1,4,0,1.591,69
"857",4,65,"JudgmentsP1",1,1,1,0,2.363,70
"858",4,4,"JudgmentsP1",1,1,5,0,0.68,71
"859",4,49,"JudgmentsP1",1,1,4,0,0.671,72
"860",4,45,"JudgmentsP1",1,1,4,0,0.826,73
"861",4,35,"JudgmentsP1",1,1,2,0,1.17,74
"862",4,39,"JudgmentsP1",1,1,4,0,1.195,75
"863",4,77,"JudgmentsP1",1,1,2,0,1.049,76
"864",4,53,"JudgmentsP1",1,1,5,0,0.699,77
"865",4,15,"JudgmentsP1",1,1,3,0,0.965,78
"866",4,17,"JudgmentsP1",1,1,2,0,2.068,79
"867",4,71,"JudgmentsP1",1,1,4,0,1.871,80
"868",4,47,"JudgmentsP1",1,1,5,0,0.65,81
"869",4,69,"JudgmentsP1",1,1,5,0,1.154,82
"870",4,59,"JudgmentsP1",1,1,6,0,0.888,83
"871",4,86,"JudgmentsP1",1,1,5,0,0.747,84
"872",4,74,"JudgmentsP1",1,1,3,0,1.574,85
"873",4,70,"JudgmentsP1",1,1,5,0,1.131,86
"874",4,81,"JudgmentsP1",1,1,3,0,0.95,87
"875",4,25,"JudgmentsP1",1,1,4,0,1.032,88
"876",4,84,"JudgmentsP1",1,1,4,0,0.7,89
"877",4,33,"JudgmentsP1",1,1,4,0,0.72,90
"878",4,44,"JudgmentsP1",1,1,4,0,0.953,91
"879",4,26,"JudgmentsP1",1,1,4,0,1.592,92
"880",4,51,"JudgmentsP1",1,1,5,0,1.811,93
"881",4,59,"JudgmentsP2",1,1,6,1,0.801,702
"882",4,52,"JudgmentsP2",1,1,5,1,0.692,703
"883",4,44,"JudgmentsP2",1,1,4,1,0.578,704
"884",4,12,"JudgmentsP2",1,1,4,1,1.976,705
"885",4,172,"JudgmentsP2",1,1,5,0,0.804,706
"886",4,70,"JudgmentsP2",1,1,5,1,0.735,707
"887",4,36,"JudgmentsP2",1,1,3,1,1.141,708
"888",4,135,"JudgmentsP2",1,1,4,0,3.019,709
"889",4,141,"JudgmentsP2",1,1,3,0,0.621,710
"890",4,156,"JudgmentsP2",1,1,4,0,0.726,711
"891",4,63,"JudgmentsP2",1,1,3,1,0.873,712
"892",4,47,"JudgmentsP2",1,1,5,1,0.809,713
"893",4,1,"JudgmentsP2",1,1,4,1,0.855,714
"894",4,163,"JudgmentsP2",1,1,4,0,0.765,715
"895",4,174,"JudgmentsP2",1,1,5,0,0.624,716
"896",4,68,"JudgmentsP2",1,1,4,1,2.209,717
"897",4,24,"JudgmentsP2",1,1,3,1,0.593,718
"898",4,7,"JudgmentsP2",1,1,5,1,0.746,719
"899",4,11,"JudgmentsP2",1,1,3,1,0.61,720
"900",4,66,"JudgmentsP2",1,1,5,1,0.768,721
"901",4,147,"JudgmentsP2",1,1,3,0,0.694,722
"902",4,171,"JudgmentsP2",1,1,4,0,2.308,723
"903",4,152,"JudgmentsP2",1,1,4,0,0.507,724
"904",4,18,"JudgmentsP2",1,1,5,1,0.699,725
"905",4,87,"JudgmentsP2",1,1,2,1,0.545,726
"906",4,146,"JudgmentsP2",1,1,4,0,3.665,727
"907",4,170,"JudgmentsP2",1,1,5,0,0.623,728
"908",4,134,"JudgmentsP2",1,1,5,0,1.136,729
"909",4,176,"JudgmentsP2",1,1,3,0,0.565,730
"910",4,5,"JudgmentsP2",1,1,5,1,0.656,731
"911",4,32,"JudgmentsP2",1,1,3,1,0.494,732
"912",4,151,"JudgmentsP2",1,1,2,0,0.699,733
"913",4,85,"JudgmentsP2",1,1,4,1,0.649,734
"914",4,173,"JudgmentsP2",1,1,3,0,1.487,735
"915",4,30,"JudgmentsP2",1,1,6,1,0.721,736
"916",4,69,"JudgmentsP2",1,1,3,1,0.565,737
"917",4,53,"JudgmentsP2",1,1,5,1,0.72,738
"918",4,71,"JudgmentsP2",1,1,5,1,0.642,739
"919",4,137,"JudgmentsP2",1,1,2,0,0.405,740
"920",4,133,"JudgmentsP2",1,1,4,0,0.841,741
"921",4,79,"JudgmentsP2",1,1,3,1,0.804,742
"922",4,148,"JudgmentsP2",1,1,4,0,0.735,743
"923",4,157,"JudgmentsP2",1,1,6,0,0.925,744
"924",4,78,"JudgmentsP2",1,1,3,1,0.527,745
"925",4,139,"JudgmentsP2",1,1,3,0,0.722,746
"926",4,8,"JudgmentsP2",1,1,5,1,0.645,747
"927",4,13,"JudgmentsP2",1,1,5,1,0.712,748
"928",4,161,"JudgmentsP2",1,1,2,0,0.969,749
"929",4,144,"JudgmentsP2",1,1,4,0,0.663,750
"930",4,138,"JudgmentsP2",1,1,4,0,0.542,751
"931",4,19,"JudgmentsP2",1,1,3,1,0.615,752
"932",4,76,"JudgmentsP2",1,1,3,1,0.597,753
"933",4,57,"JudgmentsP2",1,1,4,1,0.528,754
"934",4,155,"JudgmentsP2",1,1,4,0,0.822,755
"935",4,145,"JudgmentsP2",1,1,4,0,2.75,756
"936",4,28,"JudgmentsP2",1,1,5,1,0.725,757
"937",4,168,"JudgmentsP2",1,1,4,0,1.088,758
"938",4,154,"JudgmentsP2",1,1,4,0,0.778,759
"939",4,3,"JudgmentsP2",1,1,2,1,0.608,760
"940",4,62,"JudgmentsP2",1,1,3,1,0.619,761
"941",4,143,"JudgmentsP2",1,1,4,0,0.561,762
"942",4,167,"JudgmentsP2",1,1,4,0,0.564,763
"943",4,162,"JudgmentsP2",1,1,5,0,0.631,764
"944",4,50,"JudgmentsP2",1,1,5,1,0.711,765
"945",4,140,"JudgmentsP2",1,1,5,0,0.536,766
"946",4,56,"JudgmentsP2",1,1,3,1,0.566,767
"947",4,158,"JudgmentsP2",1,1,4,0,0.617,768
"948",4,22,"JudgmentsP2",1,1,3,1,0.538,769
"949",4,159,"JudgmentsP2",1,1,5,0,0.62,770
"950",4,6,"JudgmentsP2",1,1,2,1,0.586,771
"951",4,149,"JudgmentsP2",1,1,5,0,0.555,772
"952",4,150,"JudgmentsP2",1,1,3,0,0.651,773
"953",4,166,"JudgmentsP2",1,1,6,0,0.441,774
"954",4,153,"JudgmentsP2",1,1,4,0,0.747,775
"955",4,16,"JudgmentsP2",1,1,4,1,0.515,776
"956",4,55,"JudgmentsP2",1,1,6,1,0.751,777
"957",4,169,"JudgmentsP2",1,1,2,0,0.999,778
"958",4,39,"JudgmentsP2",1,1,4,1,0.57,779
"959",4,58,"JudgmentsP2",1,1,4,1,0.648,780
"960",4,160,"JudgmentsP2",1,1,4,0,0.522,781
"961",4,15,"JudgmentsP2",1,1,4,1,0.55,782
"962",4,165,"JudgmentsP2",1,1,3,0,1.126,783
"963",4,175,"JudgmentsP2",1,1,4,0,0.953,784
"964",4,164,"JudgmentsP2",1,1,5,0,0.689,785
"965",4,4,"JudgmentsP2",1,1,5,1,0.727,786
"966",4,37,"JudgmentsP2",1,1,3,1,2.482,787
"967",4,136,"JudgmentsP2",1,1,4,0,0.532,788
"968",4,142,"JudgmentsP2",1,1,4,0,2.754,789
"969",4,126,"JudgmentsP3",1,1,5,0,0.895,1
"970",4,121,"JudgmentsP3",1,1,2,0,0.805,2
"971",4,72,"JudgmentsP3",1,1,5,1,0.687,3
"972",4,21,"JudgmentsP3",1,1,2,1,1.386,4
"973",4,95,"JudgmentsP3",1,1,5,0,0.746,5
"974",4,26,"JudgmentsP3",1,1,5,1,0.675,6
"975",4,27,"JudgmentsP3",1,1,4,1,0.763,7
"976",4,107,"JudgmentsP3",1,1,5,0,1.254,8
"977",4,124,"JudgmentsP3",1,1,5,0,0.564,9
"978",4,103,"JudgmentsP3",1,1,4,0,0.71,10
"979",4,118,"JudgmentsP3",1,1,4,0,0.647,11
"980",4,117,"JudgmentsP3",1,1,5,0,0.69,12
"981",4,10,"JudgmentsP3",1,1,5,1,0.888,13
"982",4,34,"JudgmentsP3",1,1,4,1,0.971,14
"983",4,102,"JudgmentsP3",1,1,2,0,1.288,15
"984",4,86,"JudgmentsP3",1,1,4,1,0.827,16
"985",4,88,"JudgmentsP3",1,1,3,1,0.498,17
"986",4,99,"JudgmentsP3",1,1,3,0,0.776,18
"987",4,73,"JudgmentsP3",1,1,4,1,0.638,19
"988",4,20,"JudgmentsP3",1,1,2,1,0.849,20
"989",4,81,"JudgmentsP3",1,1,4,1,0.943,21
"990",4,54,"JudgmentsP3",1,1,3,1,1.143,22
"991",4,114,"JudgmentsP3",1,1,4,0,0.535,23
"992",4,2,"JudgmentsP3",1,1,3,1,0.621,24
"993",4,33,"JudgmentsP3",1,1,3,1,0.514,25
"994",4,112,"JudgmentsP3",1,1,3,0,1.707,26
"995",4,38,"JudgmentsP3",1,1,4,1,0.515,27
"996",4,82,"JudgmentsP3",1,1,4,1,0.619,28
"997",4,92,"JudgmentsP3",1,1,3,0,2.713,29
"998",4,25,"JudgmentsP3",1,1,4,1,0.711,30
"999",4,97,"JudgmentsP3",1,1,5,0,0.808,31
"1000",4,49,"JudgmentsP3",1,1,3,1,0.915,32
"1001",4,75,"JudgmentsP3",1,1,3,1,0.699,33
"1002",4,108,"JudgmentsP3",1,1,4,0,2.209,34
"1003",4,40,"JudgmentsP3",1,1,5,1,0.891,35
"1004",4,9,"JudgmentsP3",1,1,3,1,0.592,36
"1005",4,113,"JudgmentsP3",1,1,6,0,0.865,37
"1006",4,35,"JudgmentsP3",1,1,3,1,0.616,38
"1007",4,93,"JudgmentsP3",1,1,3,0,0.934,39
"1008",4,109,"JudgmentsP3",1,1,3,0,0.58,40
"1009",4,115,"JudgmentsP3",1,1,5,0,0.842,41
"1010",4,31,"JudgmentsP3",1,1,3,1,0.629,42
"1011",4,128,"JudgmentsP3",1,1,4,0,0.533,43
"1012",4,84,"JudgmentsP3",1,1,4,1,0.57,44
"1013",4,94,"JudgmentsP3",1,1,4,0,0.592,45
"1014",4,91,"JudgmentsP3",1,1,3,0,1.153,46
"1015",4,105,"JudgmentsP3",1,1,3,0,0.769,47
"1016",4,42,"JudgmentsP3",1,1,5,1,0.607,48
"1017",4,45,"JudgmentsP3",1,1,5,1,1.25,49
"1018",4,116,"JudgmentsP3",1,1,5,0,0.632,50
"1019",4,132,"JudgmentsP3",1,1,4,0,0.695,51
"1020",4,90,"JudgmentsP3",1,1,4,0,0.557,52
"1021",4,51,"JudgmentsP3",1,1,3,1,0.608,53
"1022",4,83,"JudgmentsP3",1,1,5,1,0.558,54
"1023",4,122,"JudgmentsP3",1,1,4,0,1.266,55
"1024",4,106,"JudgmentsP3",1,1,5,0,0.802,56
"1025",4,130,"JudgmentsP3",1,1,3,0,0.58,57
"1026",4,48,"JudgmentsP3",1,1,3,1,0.746,58
"1027",4,100,"JudgmentsP3",1,1,2,0,0.562,59
"1028",4,104,"JudgmentsP3",1,1,4,0,0.581,60
"1029",4,60,"JudgmentsP3",1,1,5,1,0.899,61
"1030",4,77,"JudgmentsP3",1,1,2,1,0.705,62
"1031",4,46,"JudgmentsP3",1,1,2,1,0.561,63
"1032",4,123,"JudgmentsP3",1,1,4,0,1.22,64
"1033",4,129,"JudgmentsP3",1,1,5,0,0.841,65
"1034",4,120,"JudgmentsP3",1,1,4,0,1.54,66
"1035",4,61,"JudgmentsP3",1,1,4,1,0.801,67
"1036",4,29,"JudgmentsP3",1,1,4,1,1.1,68
"1037",4,41,"JudgmentsP3",1,1,3,1,0.682,69
"1038",4,131,"JudgmentsP3",1,1,5,0,0.564,70
"1039",4,119,"JudgmentsP3",1,1,4,0,0.695,71
"1040",4,23,"JudgmentsP3",1,1,2,1,3.069,72
"1041",4,125,"JudgmentsP3",1,1,4,0,0.644,73
"1042",4,96,"JudgmentsP3",1,1,3,0,0.951,74
"1043",4,80,"JudgmentsP3",1,1,4,1,0.503,75
"1044",4,98,"JudgmentsP3",1,1,4,0,3.176,76
"1045",4,101,"JudgmentsP3",1,1,3,0,1.851,77
"1046",4,17,"JudgmentsP3",1,1,4,1,0.84,78
"1047",4,110,"JudgmentsP3",1,1,4,0,1.395,79
"1048",4,74,"JudgmentsP3",1,1,5,1,0.491,80
"1049",4,65,"JudgmentsP3",1,1,2,1,0.904,81
"1050",4,43,"JudgmentsP3",1,1,4,1,1.072,82
"1051",4,89,"JudgmentsP3",1,1,6,0,0.785,83
"1052",4,127,"JudgmentsP3",1,1,3,0,1.033,84
"1053",4,67,"JudgmentsP3",1,1,3,1,0.657,85
"1054",4,111,"JudgmentsP3",1,1,4,0,0.631,86
"1055",4,14,"JudgmentsP3",1,1,4,1,0.976,87
"1056",4,64,"JudgmentsP3",1,1,3,1,1.1,88
"1057",5,96,"JudgmentsP1",1,1,3,0,4.072,6
"1058",5,108,"JudgmentsP1",1,1,4,0,5.807,7
"1059",5,114,"JudgmentsP1",1,1,4,0,1.097,8
"1060",5,143,"JudgmentsP1",1,1,2,0,1.34,9
"1061",5,124,"JudgmentsP1",1,1,4,0,3.448,10
"1062",5,121,"JudgmentsP1",1,1,4,0,3.473,11
"1063",5,120,"JudgmentsP1",1,1,4,0,2.984,12
"1064",5,89,"JudgmentsP1",1,1,5,0,0.73,13
"1065",5,163,"JudgmentsP1",1,1,4,0,3.803,14
"1066",5,175,"JudgmentsP1",1,1,3,0,1.027,15
"1067",5,157,"JudgmentsP1",1,1,3,0,3.289,16
"1068",5,170,"JudgmentsP1",1,1,4,0,1.725,17
"1069",5,165,"JudgmentsP1",1,1,2,0,2.255,18
"1070",5,118,"JudgmentsP1",1,1,3,0,2.587,19
"1071",5,167,"JudgmentsP1",1,1,5,0,3.633,20
"1072",5,111,"JudgmentsP1",1,1,2,0,3.154,21
"1073",5,148,"JudgmentsP1",1,1,5,0,4.957,22
"1074",5,90,"JudgmentsP1",1,1,5,0,0.821,23
"1075",5,93,"JudgmentsP1",1,1,2,0,0.942,24
"1076",5,171,"JudgmentsP1",1,1,3,0,2.066,25
"1077",5,173,"JudgmentsP1",1,1,4,0,2.398,26
"1078",5,155,"JudgmentsP1",1,1,5,0,1.015,27
"1079",5,98,"JudgmentsP1",1,1,6,0,3.276,28
"1080",5,169,"JudgmentsP1",1,1,5,0,1.176,29
"1081",5,101,"JudgmentsP1",1,1,4,0,0.91,30
"1082",5,94,"JudgmentsP1",1,1,5,0,1.178,31
"1083",5,136,"JudgmentsP1",1,1,3,0,2.412,32
"1084",5,131,"JudgmentsP1",1,1,2,0,1.158,33
"1085",5,158,"JudgmentsP1",1,1,1,0,1.084,34
"1086",5,145,"JudgmentsP1",1,1,3,0,1.241,35
"1087",5,164,"JudgmentsP1",1,1,4,0,2.808,36
"1088",5,144,"JudgmentsP1",1,1,5,0,0.767,37
"1089",5,127,"JudgmentsP1",1,1,4,0,1.21,38
"1090",5,133,"JudgmentsP1",1,1,5,0,0.654,39
"1091",5,107,"JudgmentsP1",1,1,2,0,2.499,40
"1092",5,147,"JudgmentsP1",1,1,3,0,1.75,41
"1093",5,140,"JudgmentsP1",1,1,2,0,0.991,42
"1094",5,160,"JudgmentsP1",1,1,4,0,9.5,43
"1095",5,129,"JudgmentsP1",1,1,5,0,1.614,44
"1096",5,110,"JudgmentsP1",1,1,2,0,0.799,45
"1097",5,116,"JudgmentsP1",1,1,5,0,2.444,46
"1098",5,149,"JudgmentsP1",1,1,4,0,3.148,47
"1099",5,153,"JudgmentsP1",1,1,6,0,3.051,48
"1100",5,104,"JudgmentsP1",1,1,6,0,0.956,49
"1101",5,119,"JudgmentsP1",1,1,4,0,3.391,50
"1102",5,113,"JudgmentsP1",1,1,6,0,1.166,51
"1103",5,97,"JudgmentsP1",1,1,4,0,3.658,52
"1104",5,152,"JudgmentsP1",1,1,5,0,1.867,53
"1105",5,128,"JudgmentsP1",1,1,3,0,2.906,54
"1106",5,109,"JudgmentsP1",1,1,5,0,0.885,55
"1107",5,100,"JudgmentsP1",1,1,2,0,1.494,56
"1108",5,92,"JudgmentsP1",1,1,2,0,2.068,57
"1109",5,122,"JudgmentsP1",1,1,4,0,2.135,58
"1110",5,135,"JudgmentsP1",1,1,3,0,2.359,59
"1111",5,154,"JudgmentsP1",1,1,2,0,6.97,60
"1112",5,166,"JudgmentsP1",1,1,2,0,0.845,61
"1113",5,112,"JudgmentsP1",1,1,5,0,2.681,62
"1114",5,125,"JudgmentsP1",1,1,5,0,0.972,63
"1115",5,130,"JudgmentsP1",1,1,3,0,2.698,64
"1116",5,91,"JudgmentsP1",1,1,2,0,4.54,65
"1117",5,138,"JudgmentsP1",1,1,4,0,3.246,66
"1118",5,99,"JudgmentsP1",1,1,5,0,2.5,67
"1119",5,176,"JudgmentsP1",1,1,5,0,1.12,68
"1120",5,150,"JudgmentsP1",1,1,4,0,1.82,69
"1121",5,162,"JudgmentsP1",1,1,5,0,1.198,70
"1122",5,117,"JudgmentsP1",1,1,5,0,0.918,71
"1123",5,103,"JudgmentsP1",1,1,5,0,1.257,72
"1124",5,115,"JudgmentsP1",1,1,5,0,0.857,73
"1125",5,151,"JudgmentsP1",1,1,4,0,1.155,74
"1126",5,174,"JudgmentsP1",1,1,5,0,3.716,75
"1127",5,137,"JudgmentsP1",1,1,5,0,0.934,76
"1128",5,161,"JudgmentsP1",1,1,2,0,2.511,77
"1129",5,134,"JudgmentsP1",1,1,1,0,2.425,78
"1130",5,126,"JudgmentsP1",1,1,5,0,0.84,79
"1131",5,172,"JudgmentsP1",1,1,2,0,1.057,80
"1132",5,146,"JudgmentsP1",1,1,3,0,3.727,81
"1133",5,139,"JudgmentsP1",1,1,2,0,1.04,82
"1134",5,106,"JudgmentsP1",1,1,2,0,2.007,83
"1135",5,95,"JudgmentsP1",1,1,5,0,2.233,84
"1136",5,168,"JudgmentsP1",1,1,2,0,0.789,85
"1137",5,102,"JudgmentsP1",1,1,4,0,1.688,86
"1138",5,142,"JudgmentsP1",1,1,5,0,3.754,87
"1139",5,105,"JudgmentsP1",1,1,3,0,2.582,88
"1140",5,123,"JudgmentsP1",1,1,2,0,4.199,89
"1141",5,159,"JudgmentsP1",1,1,3,0,1.616,90
"1142",5,156,"JudgmentsP1",1,1,3,0,6.689,91
"1143",5,141,"JudgmentsP1",1,1,5,0,0.916,92
"1144",5,132,"JudgmentsP1",1,1,5,0,0.985,93
"1145",5,103,"JudgmentsP2",1,1,4,1,1.51,702
"1146",5,46,"JudgmentsP2",1,1,4,0,2.021,703
"1147",5,125,"JudgmentsP2",1,1,5,1,0.658,704
"1148",5,27,"JudgmentsP2",1,1,3,0,1.263,705
"1149",5,104,"JudgmentsP2",1,1,5,1,0.663,706
"1150",5,92,"JudgmentsP2",1,1,2,1,0.688,707
"1151",5,72,"JudgmentsP2",1,1,3,0,2.499,708
"1152",5,121,"JudgmentsP2",1,1,5,1,0.495,709
"1153",5,40,"JudgmentsP2",1,1,3,0,1.165,710
"1154",5,35,"JudgmentsP2",1,1,2,0,2.032,711
"1155",5,61,"JudgmentsP2",1,1,2,0,2.215,712
"1156",5,116,"JudgmentsP2",1,1,5,1,0.643,713
"1157",5,115,"JudgmentsP2",1,1,5,1,0.639,714
"1158",5,67,"JudgmentsP2",1,1,4,0,2.834,715
"1159",5,110,"JudgmentsP2",1,1,2,1,0.68,716
"1160",5,106,"JudgmentsP2",1,1,2,1,1.035,717
"1161",5,29,"JudgmentsP2",1,1,4,0,3.316,718
"1162",5,90,"JudgmentsP2",1,1,6,1,0.825,719
"1163",5,65,"JudgmentsP2",1,1,5,0,4.33,720
"1164",5,95,"JudgmentsP2",1,1,5,1,1.234,721
"1165",5,122,"JudgmentsP2",1,1,5,1,0.601,722
"1166",5,96,"JudgmentsP2",1,1,2,1,0.892,723
"1167",5,82,"JudgmentsP2",1,1,4,0,3.786,724
"1168",5,86,"JudgmentsP2",1,1,4,0,0.592,725
"1169",5,21,"JudgmentsP2",1,1,3,0,1.144,726
"1170",5,89,"JudgmentsP2",1,1,5,1,0.64,727
"1171",5,75,"JudgmentsP2",1,1,4,0,1.964,728
"1172",5,51,"JudgmentsP2",1,1,3,0,0.59,729
"1173",5,14,"JudgmentsP2",1,1,4,0,4.03,730
"1174",5,77,"JudgmentsP2",1,1,3,0,0.66,731
"1175",5,91,"JudgmentsP2",1,1,2,1,1.298,732
"1176",5,119,"JudgmentsP2",1,1,3,1,0.663,733
"1177",5,131,"JudgmentsP2",1,1,5,1,0.607,734
"1178",5,9,"JudgmentsP2",1,1,4,0,5.811,735
"1179",5,80,"JudgmentsP2",1,1,2,0,2.073,736
"1180",5,114,"JudgmentsP2",1,1,4,1,3.056,737
"1181",5,97,"JudgmentsP2",1,1,4,1,5.429,738
"1182",5,94,"JudgmentsP2",1,1,5,1,0.649,739
"1183",5,118,"JudgmentsP2",1,1,4,1,0.886,740
"1184",5,113,"JudgmentsP2",1,1,6,1,0.761,741
"1185",5,33,"JudgmentsP2",1,1,2,0,1.468,742
"1186",5,49,"JudgmentsP2",1,1,5,0,2.308,743
"1187",5,25,"JudgmentsP2",1,1,4,0,3.443,744
"1188",5,17,"JudgmentsP2",1,1,5,0,2.9,745
"1189",5,127,"JudgmentsP2",1,1,4,1,0.823,746
"1190",5,111,"JudgmentsP2",1,1,3,1,0.952,747
"1191",5,54,"JudgmentsP2",1,1,5,0,3.176,748
"1192",5,123,"JudgmentsP2",1,1,2,1,4.509,749
"1193",5,132,"JudgmentsP2",1,1,5,1,0.801,750
"1194",5,100,"JudgmentsP2",1,1,3,1,1.349,751
"1195",5,81,"JudgmentsP2",1,1,3,0,3.541,752
"1196",5,112,"JudgmentsP2",1,1,4,1,0.471,753
"1197",5,105,"JudgmentsP2",1,1,4,1,0.576,754
"1198",5,130,"JudgmentsP2",1,1,2,1,0.998,755
"1199",5,93,"JudgmentsP2",1,1,2,1,0.936,756
"1200",5,42,"JudgmentsP2",1,1,5,0,1.622,757
"1201",5,98,"JudgmentsP2",1,1,6,1,0.731,758
"1202",5,45,"JudgmentsP2",1,1,5,0,0.657,759
"1203",5,43,"JudgmentsP2",1,1,5,0,1.134,760
"1204",5,41,"JudgmentsP2",1,1,3,0,2.812,761
"1205",5,74,"JudgmentsP2",1,1,4,0,2.224,762
"1206",5,129,"JudgmentsP2",1,1,5,1,0.694,763
"1207",5,108,"JudgmentsP2",1,1,4,1,0.908,764
"1208",5,20,"JudgmentsP2",1,1,5,0,1.356,765
"1209",5,31,"JudgmentsP2",1,1,4,0,1.583,766
"1210",5,10,"JudgmentsP2",1,1,5,0,0.959,767
"1211",5,101,"JudgmentsP2",1,1,4,1,0.546,768
"1212",5,38,"JudgmentsP2",1,1,2,0,2.426,769
"1213",5,84,"JudgmentsP2",1,1,5,0,1.113,770
"1214",5,102,"JudgmentsP2",1,1,4,1,0.737,771
"1215",5,128,"JudgmentsP2",1,1,3,1,1.199,772
"1216",5,73,"JudgmentsP2",1,1,3,0,3.21,773
"1217",5,26,"JudgmentsP2",1,1,2,0,1.563,774
"1218",5,124,"JudgmentsP2",1,1,3,1,0.756,775
"1219",5,23,"JudgmentsP2",1,1,2,0,2.808,776
"1220",5,107,"JudgmentsP2",1,1,2,1,0.744,777
"1221",5,88,"JudgmentsP2",1,1,4,0,4.162,778
"1222",5,48,"JudgmentsP2",1,1,4,0,2.434,779
"1223",5,99,"JudgmentsP2",1,1,5,1,0.801,780
"1224",5,34,"JudgmentsP2",1,1,3,0,5.724,781
"1225",5,120,"JudgmentsP2",1,1,5,1,0.538,782
"1226",5,60,"JudgmentsP2",1,1,4,0,1.632,783
"1227",5,109,"JudgmentsP2",1,1,5,1,0.688,784
"1228",5,2,"JudgmentsP2",1,1,4,0,4.915,785
"1229",5,64,"JudgmentsP2",1,1,4,0,4.976,786
"1230",5,126,"JudgmentsP2",1,1,5,1,0.938,787
"1231",5,83,"JudgmentsP2",1,1,4,0,0.975,788
"1232",5,117,"JudgmentsP2",1,1,4,1,1.773,789
"1233",5,70,"JudgmentsP3",1,1,5,0,1.589,1
"1234",5,136,"JudgmentsP3",1,1,3,1,2.469,2
"1235",5,150,"JudgmentsP3",1,1,5,1,0.977,3
"1236",5,168,"JudgmentsP3",1,1,3,1,1.383,4
"1237",5,175,"JudgmentsP3",1,1,2,1,3.039,5
"1238",5,145,"JudgmentsP3",1,1,2,1,5.176,6
"1239",5,174,"JudgmentsP3",1,1,4,1,3.457,7
"1240",5,171,"JudgmentsP3",1,1,3,1,2.388,8
"1241",5,141,"JudgmentsP3",1,1,5,1,0.747,9
"1242",5,63,"JudgmentsP3",1,1,5,0,1.228,10
"1243",5,165,"JudgmentsP3",1,1,5,1,2.892,11
"1244",5,76,"JudgmentsP3",1,1,4,0,0.824,12
"1245",5,58,"JudgmentsP3",1,1,5,0,2.928,13
"1246",5,147,"JudgmentsP3",1,1,3,1,1.225,14
"1247",5,66,"JudgmentsP3",1,1,3,0,2.913,15
"1248",5,18,"JudgmentsP3",1,1,3,0,2.848,16
"1249",5,158,"JudgmentsP3",1,1,1,1,1.001,17
"1250",5,152,"JudgmentsP3",1,1,5,1,1.148,18
"1251",5,167,"JudgmentsP3",1,1,6,1,0.796,19
"1252",5,159,"JudgmentsP3",1,1,4,1,2.239,20
"1253",5,140,"JudgmentsP3",1,1,4,1,2.033,21
"1254",5,59,"JudgmentsP3",1,1,3,0,3.64,22
"1255",5,156,"JudgmentsP3",1,1,3,1,4.809,23
"1256",5,3,"JudgmentsP3",1,1,5,0,0.704,24
"1257",5,47,"JudgmentsP3",1,1,3,0,4.009,25
"1258",5,153,"JudgmentsP3",1,1,2,1,1.825,26
"1259",5,172,"JudgmentsP3",1,1,2,1,0.777,27
"1260",5,6,"JudgmentsP3",1,1,4,0,5.159,28
"1261",5,143,"JudgmentsP3",1,1,4,1,1.675,29
"1262",5,69,"JudgmentsP3",1,1,4,0,1.547,30
"1263",5,7,"JudgmentsP3",1,1,3,0,1.826,31
"1264",5,162,"JudgmentsP3",1,1,5,1,3.562,32
"1265",5,5,"JudgmentsP3",1,1,5,0,1.186,33
"1266",5,13,"JudgmentsP3",1,1,4,0,1.33,34
"1267",5,85,"JudgmentsP3",1,1,4,0,1.112,35
"1268",5,164,"JudgmentsP3",1,1,4,1,1.944,36
"1269",5,68,"JudgmentsP3",1,1,4,0,0.591,37
"1270",5,134,"JudgmentsP3",1,1,5,1,0.775,38
"1271",5,155,"JudgmentsP3",1,1,4,1,3.045,39
"1272",5,176,"JudgmentsP3",1,1,3,1,2.167,40
"1273",5,8,"JudgmentsP3",1,1,1,0,1.56,41
"1274",5,55,"JudgmentsP3",1,1,5,0,2.635,42
"1275",5,157,"JudgmentsP3",1,1,4,1,2.713,43
"1276",5,4,"JudgmentsP3",1,1,3,0,2.088,44
"1277",5,36,"JudgmentsP3",1,1,3,0,8.867,45
"1278",5,138,"JudgmentsP3",1,1,3,1,1.193,46
"1279",5,139,"JudgmentsP3",1,1,2,1,0.808,47
"1280",5,22,"JudgmentsP3",1,1,3,0,1.838,48
"1281",5,135,"JudgmentsP3",1,1,4,1,4.617,49
"1282",5,32,"JudgmentsP3",1,1,4,0,6.547,50
"1283",5,16,"JudgmentsP3",1,1,4,0,0.998,51
"1284",5,57,"JudgmentsP3",1,1,4,0,0.529,52
"1285",5,169,"JudgmentsP3",1,1,4,1,0.791,53
"1286",5,133,"JudgmentsP3",1,1,4,1,0.688,54
"1287",5,11,"JudgmentsP3",1,1,4,0,1.115,55
"1288",5,44,"JudgmentsP3",1,1,3,0,3.499,56
"1289",5,39,"JudgmentsP3",1,1,4,0,1.318,57
"1290",5,79,"JudgmentsP3",1,1,3,0,1.249,58
"1291",5,149,"JudgmentsP3",1,1,4,1,0.579,59
"1292",5,19,"JudgmentsP3",1,1,2,0,2.722,60
"1293",5,160,"JudgmentsP3",1,1,3,1,1.986,61
"1294",5,12,"JudgmentsP3",1,1,3,0,2.178,62
"1295",5,1,"JudgmentsP3",1,1,4,0,2.919,63
"1296",5,154,"JudgmentsP3",1,1,4,1,2.616,64
"1297",5,148,"JudgmentsP3",1,1,4,1,1.812,65
"1298",5,62,"JudgmentsP3",1,1,2,0,5.473,66
"1299",5,137,"JudgmentsP3",1,1,5,1,0.933,67
"1300",5,142,"JudgmentsP3",1,1,4,1,11.059,68
"1301",5,53,"JudgmentsP3",1,1,5,0,0.599,69
"1302",5,30,"JudgmentsP3",1,1,5,0,1.203,70
"1303",5,28,"JudgmentsP3",1,1,5,0,1.461,71
"1304",5,146,"JudgmentsP3",1,1,4,1,3.675,72
"1305",5,166,"JudgmentsP3",1,1,2,1,0.832,73
"1306",5,144,"JudgmentsP3",1,1,4,1,1.217,74
"1307",5,78,"JudgmentsP3",1,1,3,0,0.974,75
"1308",5,52,"JudgmentsP3",1,1,5,0,0.972,76
"1309",5,71,"JudgmentsP3",1,1,4,0,0.72,77
"1310",5,170,"JudgmentsP3",1,1,4,1,1.651,78
"1311",5,24,"JudgmentsP3",1,1,3,0,1.712,79
"1312",5,161,"JudgmentsP3",1,1,2,1,0.728,80
"1313",5,56,"JudgmentsP3",1,1,2,0,3.262,81
"1314",5,87,"JudgmentsP3",1,1,2,0,2.505,82
"1315",5,173,"JudgmentsP3",1,1,4,1,3.089,83
"1316",5,151,"JudgmentsP3",1,1,4,1,1.818,84
"1317",5,15,"JudgmentsP3",1,1,4,0,1.246,85
"1318",5,50,"JudgmentsP3",1,1,3,0,1.458,86
"1319",5,163,"JudgmentsP3",1,1,5,1,0.798,87
"1320",5,37,"JudgmentsP3",1,1,2,0,2.201,88
"1321",6,161,"JudgmentsP1",1,1,4,0,3.699,6
"1322",6,105,"JudgmentsP1",1,1,5,0,7.648,7
"1323",6,133,"JudgmentsP1",1,1,6,0,1.382,8
"1324",6,93,"JudgmentsP1",1,1,6,0,1.187,9
"1325",6,127,"JudgmentsP1",1,1,1,0,1.958,10
"1326",6,136,"JudgmentsP1",1,1,2,0,1.986,11
"1327",6,153,"JudgmentsP1",1,1,1,0,2.39,12
"1328",6,112,"JudgmentsP1",1,1,4,0,1.978,13
"1329",6,116,"JudgmentsP1",1,1,6,0,9.245,14
"1330",6,124,"JudgmentsP1",1,1,1,0,3.225,15
"1331",6,175,"JudgmentsP1",1,1,1,0,2.778,16
"1332",6,135,"JudgmentsP1",1,1,1,0,5.742,17
"1333",6,158,"JudgmentsP1",1,1,1,0,6.545,18
"1334",6,98,"JudgmentsP1",1,1,6,0,1.283,19
"1335",6,173,"JudgmentsP1",1,1,3,0,6.192,20
"1336",6,142,"JudgmentsP1",1,1,1,0,1.487,21
"1337",6,126,"JudgmentsP1",1,1,2,0,5.88,22
"1338",6,149,"JudgmentsP1",1,1,3,0,1.56,23
"1339",6,155,"JudgmentsP1",1,1,3,0,4.611,24
"1340",6,130,"JudgmentsP1",1,1,1,0,1.25,25
"1341",6,147,"JudgmentsP1",1,1,1,0,0.811,26
"1342",6,104,"JudgmentsP1",1,1,3,0,2.366,27
"1343",6,115,"JudgmentsP1",1,1,5,0,2.394,28
"1344",6,154,"JudgmentsP1",1,1,3,0,9.71,29
"1345",6,108,"JudgmentsP1",1,1,4,0,2.145,30
"1346",6,159,"JudgmentsP1",1,1,3,0,2.442,31
"1347",6,167,"JudgmentsP1",1,1,5,0,10.538,32
"1348",6,120,"JudgmentsP1",1,1,4,0,2.853,33
"1349",6,119,"JudgmentsP1",1,1,2,0,2.16,34
"1350",6,110,"JudgmentsP1",1,1,2,0,5.635,35
"1351",6,157,"JudgmentsP1",1,1,1,0,1.611,36
"1352",6,152,"JudgmentsP1",1,1,5,0,3.599,37
"1353",6,171,"JudgmentsP1",1,1,3,0,3.377,38
"1354",6,140,"JudgmentsP1",1,1,3,0,5.897,39
"1355",6,118,"JudgmentsP1",1,1,4,0,13.444,40
"1356",6,128,"JudgmentsP1",1,1,1,0,1.448,41
"1357",6,117,"JudgmentsP1",1,1,6,0,1.624,42
"1358",6,101,"JudgmentsP1",1,1,6,0,3.206,43
"1359",6,162,"JudgmentsP1",1,1,1,0,2.345,44
"1360",6,125,"JudgmentsP1",1,1,4,0,3.991,45
"1361",6,106,"JudgmentsP1",1,1,5,0,1.697,46
"1362",6,114,"JudgmentsP1",1,1,3,0,5.916,47
"1363",6,99,"JudgmentsP1",1,1,5,0,2.146,48
"1364",6,121,"JudgmentsP1",1,1,1,0,1.722,49
"1365",6,141,"JudgmentsP1",1,1,1,0,1.373,50
"1366",6,176,"JudgmentsP1",1,1,1,0,14.579,51
"1367",6,109,"JudgmentsP1",1,1,2,0,2.278,52
"1368",6,131,"JudgmentsP1",1,1,1,0,5.735,53
"1369",6,134,"JudgmentsP1",1,1,5,0,4.619,54
"1370",6,97,"JudgmentsP1",1,1,1,0,2.328,55
"1371",6,92,"JudgmentsP1",1,1,3,0,3.466,56
"1372",6,132,"JudgmentsP1",1,1,5,0,1.376,57
"1373",6,151,"JudgmentsP1",1,1,6,0,6.96,58
"1374",6,146,"JudgmentsP1",1,1,2,0,3.619,59
"1375",6,111,"JudgmentsP1",1,1,5,0,0.661,60
"1376",6,143,"JudgmentsP1",1,1,5,0,1.694,61
"1377",6,170,"JudgmentsP1",1,1,2,0,2.937,62
"1378",6,122,"JudgmentsP1",1,1,3,0,4.056,63
"1379",6,129,"JudgmentsP1",1,1,5,0,5.12,64
"1380",6,96,"JudgmentsP1",1,1,5,0,1.519,65
"1381",6,172,"JudgmentsP1",1,1,4,0,7.562,66
"1382",6,90,"JudgmentsP1",1,1,5,0,5.403,67
"1383",6,113,"JudgmentsP1",1,1,2,0,2.063,68
"1384",6,138,"JudgmentsP1",1,1,3,0,3.531,69
"1385",6,144,"JudgmentsP1",1,1,2,0,4.08,70
"1386",6,91,"JudgmentsP1",1,1,5,0,6.297,71
"1387",6,156,"JudgmentsP1",1,1,1,0,3.559,72
"1388",6,174,"JudgmentsP1",1,1,3,0,2.3,73
"1389",6,165,"JudgmentsP1",1,1,2,0,3.175,74
"1390",6,164,"JudgmentsP1",1,1,2,0,6.434,75
"1391",6,102,"JudgmentsP1",1,1,3,0,5.699,76
"1392",6,160,"JudgmentsP1",1,1,2,0,2.904,77
"1393",6,150,"JudgmentsP1",1,1,3,0,4.176,78
"1394",6,139,"JudgmentsP1",1,1,2,0,1.399,79
"1395",6,107,"JudgmentsP1",1,1,2,0,1.325,80
"1396",6,89,"JudgmentsP1",1,1,2,0,2.552,81
"1397",6,137,"JudgmentsP1",1,1,2,0,1.672,82
"1398",6,95,"JudgmentsP1",1,1,2,0,1.198,83
"1399",6,166,"JudgmentsP1",1,1,5,0,1.821,84
"1400",6,94,"JudgmentsP1",1,1,2,0,1.43,85
"1401",6,100,"JudgmentsP1",1,1,5,0,0.921,86
"1402",6,145,"JudgmentsP1",1,1,3,0,2.721,87
"1403",6,169,"JudgmentsP1",1,1,3,0,1.405,88
"1404",6,168,"JudgmentsP1",1,1,3,0,0.866,89
"1405",6,163,"JudgmentsP1",1,1,5,0,2.283,90
"1406",6,103,"JudgmentsP1",1,1,5,0,6.27,91
"1407",6,148,"JudgmentsP1",1,1,2,0,2.756,92
"1408",6,123,"JudgmentsP1",1,1,2,0,5.103,93
"1409",6,69,"JudgmentsP2",1,1,1,0,9.498,702
"1410",6,104,"JudgmentsP2",1,1,2,1,2.567,703
"1411",6,100,"JudgmentsP2",1,1,2,1,5.457,704
"1412",6,78,"JudgmentsP2",1,1,5,0,4.907,705
"1413",6,124,"JudgmentsP2",1,1,3,1,2.456,706
"1414",6,28,"JudgmentsP2",1,1,3,0,2.668,707
"1415",6,126,"JudgmentsP2",1,1,3,1,3.394,708
"1416",6,44,"JudgmentsP2",1,1,2,0,3.256,709
"1417",6,85,"JudgmentsP2",1,1,5,0,3.38,710
"1418",6,56,"JudgmentsP2",1,1,3,0,10.064,711
"1419",6,79,"JudgmentsP2",1,1,1,0,2.902,712
"1420",6,108,"JudgmentsP2",1,1,5,1,1.057,713
"1421",6,89,"JudgmentsP2",1,1,2,1,0.799,714
"1422",6,59,"JudgmentsP2",1,1,5,0,8.467,715
"1423",6,109,"JudgmentsP2",1,1,2,1,0.753,716
"1424",6,114,"JudgmentsP2",1,1,2,1,0.786,717
"1425",6,90,"JudgmentsP2",1,1,3,1,1.274,718
"1426",6,39,"JudgmentsP2",1,1,2,0,1.602,719
"1427",6,6,"JudgmentsP2",1,1,2,0,0.853,720
"1428",6,57,"JudgmentsP2",1,1,5,0,2.138,721
"1429",6,63,"JudgmentsP2",1,1,5,0,8.287,722
"1430",6,70,"JudgmentsP2",1,1,2,0,0.707,723
"1431",6,103,"JudgmentsP2",1,1,3,1,2.523,724
"1432",6,118,"JudgmentsP2",1,1,3,1,4.758,725
"1433",6,129,"JudgmentsP2",1,1,5,1,1.307,726
"1434",6,36,"JudgmentsP2",1,1,5,0,5.259,727
"1435",6,37,"JudgmentsP2",1,1,5,0,3.076,728
"1436",6,18,"JudgmentsP2",1,1,5,0,0.827,729
"1437",6,71,"JudgmentsP2",1,1,5,0,0.707,730
"1438",6,58,"JudgmentsP2",1,1,5,0,2.203,731
"1439",6,123,"JudgmentsP2",1,1,2,1,1.437,732
"1440",6,16,"JudgmentsP2",1,1,2,0,0.92,733
"1441",6,4,"JudgmentsP2",1,1,2,0,1.947,734
"1442",6,32,"JudgmentsP2",1,1,5,0,1.306,735
"1443",6,22,"JudgmentsP2",1,1,1,0,1.218,736
"1444",6,102,"JudgmentsP2",1,1,5,1,0.894,737
"1445",6,5,"JudgmentsP2",1,1,5,0,2.676,738
"1446",6,19,"JudgmentsP2",1,1,3,0,2.652,739
"1447",6,101,"JudgmentsP2",1,1,5,1,0.807,740
"1448",6,93,"JudgmentsP2",1,1,6,1,1.45,741
"1449",6,107,"JudgmentsP2",1,1,2,1,0.831,742
"1450",6,99,"JudgmentsP2",1,1,5,1,0.799,743
"1451",6,7,"JudgmentsP2",1,1,5,0,0.778,744
"1452",6,52,"JudgmentsP2",1,1,5,0,10.177,745
"1453",6,112,"JudgmentsP2",1,1,5,1,0.87,746
"1454",6,131,"JudgmentsP2",1,1,1,1,3.287,747
"1455",6,97,"JudgmentsP2",1,1,2,1,1.047,748
"1456",6,117,"JudgmentsP2",1,1,2,1,1.594,749
"1457",6,95,"JudgmentsP2",1,1,2,1,0.802,750
"1458",6,106,"JudgmentsP2",1,1,5,1,4.829,751
"1459",6,12,"JudgmentsP2",1,1,5,0,2.026,752
"1460",6,110,"JudgmentsP2",1,1,3,1,2.697,753
"1461",6,66,"JudgmentsP2",1,1,5,0,1.157,754
"1462",6,111,"JudgmentsP2",1,1,2,1,2.736,755
"1463",6,125,"JudgmentsP2",1,1,2,1,1.708,756
"1464",6,94,"JudgmentsP2",1,1,2,1,0.923,757
"1465",6,92,"JudgmentsP2",1,1,2,1,1.23,758
"1466",6,120,"JudgmentsP2",1,1,5,1,1.206,759
"1467",6,1,"JudgmentsP2",1,1,2,0,1.561,760
"1468",6,13,"JudgmentsP2",1,1,2,0,2.003,761
"1469",6,130,"JudgmentsP2",1,1,1,1,3.501,762
"1470",6,132,"JudgmentsP2",1,1,5,1,4.817,763
"1471",6,24,"JudgmentsP2",1,1,5,0,3.091,764
"1472",6,62,"JudgmentsP2",1,1,2,0,7.663,765
"1473",6,127,"JudgmentsP2",1,1,2,1,1.535,766
"1474",6,11,"JudgmentsP2",1,1,2,0,1.3,767
"1475",6,53,"JudgmentsP2",1,1,5,0,1.129,768
"1476",6,121,"JudgmentsP2",1,1,2,1,1.67,769
"1477",6,122,"JudgmentsP2",1,1,5,1,2.878,770
"1478",6,115,"JudgmentsP2",1,1,5,1,1.663,771
"1479",6,91,"JudgmentsP2",1,1,5,1,0.775,772
"1480",6,3,"JudgmentsP2",1,1,2,0,0.66,773
"1481",6,128,"JudgmentsP2",1,1,5,1,0.705,774
"1482",6,55,"JudgmentsP2",1,1,5,0,2.171,775
"1483",6,98,"JudgmentsP2",1,1,5,1,1.062,776
"1484",6,30,"JudgmentsP2",1,1,5,0,2.431,777
"1485",6,68,"JudgmentsP2",1,1,5,0,2.79,778
"1486",6,113,"JudgmentsP2",1,1,2,1,0.868,779
"1487",6,8,"JudgmentsP2",1,1,2,0,2.997,780
"1488",6,116,"JudgmentsP2",1,1,5,1,1.155,781
"1489",6,47,"JudgmentsP2",1,1,1,0,6.188,782
"1490",6,50,"JudgmentsP2",1,1,5,0,1.783,783
"1491",6,76,"JudgmentsP2",1,1,2,0,1.495,784
"1492",6,15,"JudgmentsP2",1,1,3,0,6.669,785
"1493",6,96,"JudgmentsP2",1,1,5,1,4.632,786
"1494",6,105,"JudgmentsP2",1,1,4,1,1.589,787
"1495",6,87,"JudgmentsP2",1,1,3,0,2.012,788
"1496",6,119,"JudgmentsP2",1,1,3,1,1.273,789
"1497",6,141,"JudgmentsP3",1,1,1,1,1.547,1
"1498",6,168,"JudgmentsP3",1,1,3,1,1.091,2
"1499",6,167,"JudgmentsP3",1,1,3,1,0.616,3
"1500",6,172,"JudgmentsP3",1,1,5,1,3.431,4
"1501",6,45,"JudgmentsP3",1,1,5,0,1.053,5
"1502",6,152,"JudgmentsP3",1,1,3,1,1.802,6
"1503",6,163,"JudgmentsP3",1,1,5,1,0.883,7
"1504",6,151,"JudgmentsP3",1,1,5,1,1.302,8
"1505",6,137,"JudgmentsP3",1,1,5,1,2.47,9
"1506",6,72,"JudgmentsP3",1,1,5,0,3.518,10
"1507",6,156,"JudgmentsP3",1,1,1,1,1.278,11
"1508",6,61,"JudgmentsP3",1,1,5,0,3.321,12
"1509",6,27,"JudgmentsP3",1,1,3,0,0.914,13
"1510",6,139,"JudgmentsP3",1,1,3,1,1.457,14
"1511",6,49,"JudgmentsP3",1,1,3,0,1.326,15
"1512",6,143,"JudgmentsP3",1,1,5,1,1.017,16
"1513",6,160,"JudgmentsP3",1,1,3,1,0.687,17
"1514",6,26,"JudgmentsP3",1,1,3,0,2.522,18
"1515",6,43,"JudgmentsP3",1,1,5,0,1.675,19
"1516",6,174,"JudgmentsP3",1,1,5,1,2.139,20
"1517",6,161,"JudgmentsP3",1,1,3,1,0.911,21
"1518",6,86,"JudgmentsP3",1,1,2,0,1.68,22
"1519",6,35,"JudgmentsP3",1,1,4,0,4.874,23
"1520",6,164,"JudgmentsP3",1,1,3,1,2.663,24
"1521",6,155,"JudgmentsP3",1,1,3,1,1.419,25
"1522",6,176,"JudgmentsP3",1,1,3,1,2.488,26
"1523",6,46,"JudgmentsP3",1,1,5,0,2.738,27
"1524",6,73,"JudgmentsP3",1,1,5,0,1.469,28
"1525",6,142,"JudgmentsP3",1,1,6,1,2.181,29
"1526",6,21,"JudgmentsP3",1,1,6,0,4.939,30
"1527",6,150,"JudgmentsP3",1,1,5,1,3.461,31
"1528",6,38,"JudgmentsP3",1,1,5,0,0.92,32
"1529",6,40,"JudgmentsP3",1,1,5,0,2.003,33
"1530",6,77,"JudgmentsP3",1,1,3,0,1.309,34
"1531",6,33,"JudgmentsP3",1,1,1,0,3.797,35
"1532",6,74,"JudgmentsP3",1,1,5,0,0.81,36
"1533",6,154,"JudgmentsP3",1,1,3,1,0.728,37
"1534",6,2,"JudgmentsP3",1,1,3,0,2.811,38
"1535",6,67,"JudgmentsP3",1,1,4,0,1.839,39
"1536",6,170,"JudgmentsP3",1,1,3,1,6.089,40
"1537",6,159,"JudgmentsP3",1,1,3,1,1.231,41
"1538",6,162,"JudgmentsP3",1,1,3,1,1.055,42
"1539",6,83,"JudgmentsP3",1,1,4,0,2.165,43
"1540",6,54,"JudgmentsP3",1,1,3,0,1.063,44
"1541",6,23,"JudgmentsP3",1,1,4,0,0.879,45
"1542",6,64,"JudgmentsP3",1,1,3,0,3.442,46
"1543",6,20,"JudgmentsP3",1,1,5,0,2.187,47
"1544",6,146,"JudgmentsP3",1,1,3,1,1.762,48
"1545",6,17,"JudgmentsP3",1,1,3,0,1.596,49
"1546",6,133,"JudgmentsP3",1,1,5,1,1.15,50
"1547",6,75,"JudgmentsP3",1,1,5,0,0.71,51
"1548",6,169,"JudgmentsP3",1,1,1,1,2.255,52
"1549",6,134,"JudgmentsP3",1,1,3,1,2.515,53
"1550",6,34,"JudgmentsP3",1,1,1,0,3.426,54
"1551",6,25,"JudgmentsP3",1,1,3,0,3.424,55
"1552",6,138,"JudgmentsP3",1,1,3,1,1.15,56
"1553",6,84,"JudgmentsP3",1,1,2,0,1.934,57
"1554",6,31,"JudgmentsP3",1,1,3,0,4.3,58
"1555",6,157,"JudgmentsP3",1,1,1,1,1.197,59
"1556",6,140,"JudgmentsP3",1,1,3,1,1.688,60
"1557",6,135,"JudgmentsP3",1,1,3,1,1.186,61
"1558",6,147,"JudgmentsP3",1,1,1,1,0.97,62
"1559",6,148,"JudgmentsP3",1,1,2,1,1.672,63
"1560",6,136,"JudgmentsP3",1,1,4,1,1.96,64
"1561",6,9,"JudgmentsP3",1,1,1,0,2.05,65
"1562",6,158,"JudgmentsP3",1,1,1,1,0.998,66
"1563",6,48,"JudgmentsP3",1,1,4,0,1.601,67
"1564",6,175,"JudgmentsP3",1,1,4,1,1.299,68
"1565",6,60,"JudgmentsP3",1,1,3,0,3.777,69
"1566",6,153,"JudgmentsP3",1,1,1,1,1.588,70
"1567",6,88,"JudgmentsP3",1,1,2,0,1.531,71
"1568",6,29,"JudgmentsP3",1,1,6,0,0.84,72
"1569",6,41,"JudgmentsP3",1,1,6,0,1.171,73
"1570",6,165,"JudgmentsP3",1,1,4,1,1.873,74
"1571",6,14,"JudgmentsP3",1,1,3,0,2.816,75
"1572",6,144,"JudgmentsP3",1,1,3,1,1.596,76
"1573",6,10,"JudgmentsP3",1,1,4,0,2.247,77
"1574",6,81,"JudgmentsP3",1,1,1,0,2.36,78
"1575",6,166,"JudgmentsP3",1,1,5,1,0.49,79
"1576",6,51,"JudgmentsP3",1,1,6,0,1.624,80
"1577",6,173,"JudgmentsP3",1,1,5,1,1.536,81
"1578",6,80,"JudgmentsP3",1,1,6,0,1.172,82
"1579",6,145,"JudgmentsP3",1,1,3,1,3.618,83
"1580",6,149,"JudgmentsP3",1,1,3,1,1.605,84
"1581",6,82,"JudgmentsP3",1,1,4,0,1.416,85
"1582",6,42,"JudgmentsP3",1,1,3,0,2.957,86
"1583",6,65,"JudgmentsP3",1,1,4,0,3.043,87
"1584",6,171,"JudgmentsP3",1,1,3,1,2.892,88
"1585",7,172,"JudgmentsP1",1,1,4,0,4.422,6
"1586",7,123,"JudgmentsP1",1,1,4,0,5.797,7
"1587",7,156,"JudgmentsP1",1,1,4,0,7.472,8
"1588",7,162,"JudgmentsP1",1,1,3,0,1.843,9
"1589",7,142,"JudgmentsP1",1,1,4,0,9.495,10
"1590",7,127,"JudgmentsP1",1,1,4,0,7.05,11
"1591",7,149,"JudgmentsP1",1,1,3,0,9.575,12
"1592",7,109,"JudgmentsP1",1,1,3,0,6.539,13
"1593",7,165,"JudgmentsP1",1,1,4,0,10.948,14
"1594",7,141,"JudgmentsP1",1,1,4,0,7.467,15
"1595",7,168,"JudgmentsP1",1,1,5,0,9.737,16
"1596",7,170,"JudgmentsP1",1,1,5,0,5.666,17
"1597",7,169,"JudgmentsP1",1,1,3,0,8.402,18
"1598",7,101,"JudgmentsP1",1,1,5,0,3.578,19
"1599",7,167,"JudgmentsP1",1,1,4,0,1.925,20
"1600",7,176,"JudgmentsP1",1,1,4,0,8.278,21
"1601",7,158,"JudgmentsP1",1,1,6,0,11.989,22
"1602",7,140,"JudgmentsP1",1,1,4,0,2.467,23
"1603",7,113,"JudgmentsP1",1,1,4,0,1.663,24
"1604",7,108,"JudgmentsP1",1,1,3,0,4.627,25
"1605",7,93,"JudgmentsP1",1,1,2,0,9.392,26
"1606",7,159,"JudgmentsP1",1,1,4,0,3.395,27
"1607",7,160,"JudgmentsP1",1,1,4,0,5.994,28
"1608",7,147,"JudgmentsP1",1,1,3,0,5.082,29
"1609",7,134,"JudgmentsP1",1,1,4,0,4.713,30
"1610",7,130,"JudgmentsP1",1,1,4,0,7.65,31
"1611",7,143,"JudgmentsP1",1,1,3,0,4.123,32
"1612",7,144,"JudgmentsP1",1,1,5,0,5.503,33
"1613",7,129,"JudgmentsP1",1,1,5,0,1.347,34
"1614",7,94,"JudgmentsP1",1,1,4,0,8.913,35
"1615",7,154,"JudgmentsP1",1,1,4,0,3.123,36
"1616",7,115,"JudgmentsP1",1,1,4,0,5.927,37
"1617",7,173,"JudgmentsP1",1,1,4,0,4.385,38
"1618",7,175,"JudgmentsP1",1,1,3,0,0.888,39
"1619",7,121,"JudgmentsP1",1,1,3,0,3.292,40
"1620",7,105,"JudgmentsP1",1,1,3,0,3.97,41
"1621",7,125,"JudgmentsP1",1,1,3,0,2.895,42
"1622",7,114,"JudgmentsP1",1,1,3,0,2.486,43
"1623",7,120,"JudgmentsP1",1,1,4,0,14.558,44
"1624",7,110,"JudgmentsP1",1,1,3,0,8.492,45
"1625",7,118,"JudgmentsP1",1,1,4,0,3.214,46
"1626",7,122,"JudgmentsP1",1,1,5,0,7.254,47
"1627",7,97,"JudgmentsP1",1,1,3,0,6.076,48
"1628",7,148,"JudgmentsP1",1,1,1,0,6.135,49
"1629",7,98,"JudgmentsP1",1,1,5,0,6.076,50
"1630",7,161,"JudgmentsP1",1,1,5,0,6.318,51
"1631",7,150,"JudgmentsP1",1,1,4,0,3.712,52
"1632",7,104,"JudgmentsP1",1,1,5,0,1.718,53
"1633",7,96,"JudgmentsP1",1,1,3,0,12.155,54
"1634",7,106,"JudgmentsP1",1,1,4,0,4.131,55
"1635",7,157,"JudgmentsP1",1,1,3,0,7.731,56
"1636",7,139,"JudgmentsP1",1,1,4,0,8.33,57
"1637",7,91,"JudgmentsP1",1,1,3,0,4.18,58
"1638",7,119,"JudgmentsP1",1,1,3,0,5.458,59
"1639",7,155,"JudgmentsP1",1,1,2,0,11.577,60
"1640",7,112,"JudgmentsP1",1,1,4,0,1.504,61
"1641",7,102,"JudgmentsP1",1,1,4,0,10.448,62
"1642",7,145,"JudgmentsP1",1,1,3,0,4.195,63
"1643",7,117,"JudgmentsP1",1,1,4,0,4.057,64
"1644",7,146,"JudgmentsP1",1,1,5,0,12.84,65
"1645",7,131,"JudgmentsP1",1,1,3,0,9.949,66
"1646",7,103,"JudgmentsP1",1,1,4,0,1.182,67
"1647",7,135,"JudgmentsP1",1,1,3,0,5.231,68
"1648",7,174,"JudgmentsP1",1,1,3,0,8.507,69
"1649",7,163,"JudgmentsP1",1,1,5,0,17.412,70
"1650",7,111,"JudgmentsP1",1,1,5,0,6.007,71
"1651",7,89,"JudgmentsP1",1,1,3,0,5.247,72
"1652",7,107,"JudgmentsP1",1,1,3,0,6.932,73
"1653",7,128,"JudgmentsP1",1,1,4,0,2.415,74
"1654",7,171,"JudgmentsP1",1,1,4,0,7.112,75
"1655",7,95,"JudgmentsP1",1,1,3,0,4.872,76
"1656",7,116,"JudgmentsP1",1,1,3,0,14.1,77
"1657",7,151,"JudgmentsP1",1,1,5,0,4.707,78
"1658",7,137,"JudgmentsP1",1,1,4,0,3.773,79
"1659",7,126,"JudgmentsP1",1,1,5,0,1.265,80
"1660",7,132,"JudgmentsP1",1,1,5,0,1.187,81
"1661",7,138,"JudgmentsP1",1,1,4,0,5.276,82
"1662",7,133,"JudgmentsP1",1,1,3,0,11.793,83
"1663",7,166,"JudgmentsP1",1,1,3,0,3.12,84
"1664",7,152,"JudgmentsP1",1,1,4,0,6.609,85
"1665",7,153,"JudgmentsP1",1,1,1,0,17.911,86
"1666",7,164,"JudgmentsP1",1,1,4,0,4.624,87
"1667",7,124,"JudgmentsP1",1,1,4,0,4.456,88
"1668",7,136,"JudgmentsP1",1,1,2,0,8.358,89
"1669",7,100,"JudgmentsP1",1,1,2,0,3.945,90
"1670",7,99,"JudgmentsP1",1,1,3,0,3.775,91
"1671",7,90,"JudgmentsP1",1,1,2,0,7.642,92
"1672",7,92,"JudgmentsP1",1,1,4,0,1.895,93
"1673",7,165,"JudgmentsP2",1,1,4,1,3.012,702
"1674",7,144,"JudgmentsP2",1,1,5,1,3.151,703
"1675",7,42,"JudgmentsP2",1,1,2,0,1.333,704
"1676",7,43,"JudgmentsP2",1,1,2,0,3.907,705
"1677",7,153,"JudgmentsP2",1,1,1,1,2.84,706
"1678",7,172,"JudgmentsP2",1,1,4,1,6.106,707
"1679",7,26,"JudgmentsP2",1,1,3,0,1.379,708
"1680",7,72,"JudgmentsP2",1,1,3,0,1.616,709
"1681",7,167,"JudgmentsP2",1,1,4,1,1.477,710
"1682",7,163,"JudgmentsP2",1,1,4,1,1.608,711
"1683",7,138,"JudgmentsP2",1,1,3,1,2.386,712
"1684",7,41,"JudgmentsP2",1,1,3,0,1.825,713
"1685",7,152,"JudgmentsP2",1,1,3,1,1.401,714
"1686",7,86,"JudgmentsP2",1,1,3,0,1.362,715
"1687",7,146,"JudgmentsP2",1,1,5,1,0.653,716
"1688",7,175,"JudgmentsP2",1,1,3,1,1.379,717
"1689",7,133,"JudgmentsP2",1,1,3,1,2.424,718
"1690",7,147,"JudgmentsP2",1,1,3,1,2.727,719
"1691",7,54,"JudgmentsP2",1,1,3,0,1.104,720
"1692",7,33,"JudgmentsP2",1,1,3,0,3.833,721
"1693",7,82,"JudgmentsP2",1,1,4,0,6.807,722
"1694",7,65,"JudgmentsP2",1,1,4,0,7.853,723
"1695",7,75,"JudgmentsP2",1,1,4,0,2.97,724
"1696",7,2,"JudgmentsP2",1,1,4,0,3.067,725
"1697",7,169,"JudgmentsP2",1,1,3,1,0.657,726
"1698",7,20,"JudgmentsP2",1,1,3,0,4.375,727
"1699",7,51,"JudgmentsP2",1,1,1,0,0.881,728
"1700",7,141,"JudgmentsP2",1,1,4,1,2.029,729
"1701",7,31,"JudgmentsP2",1,1,5,0,5.981,730
"1702",7,148,"JudgmentsP2",1,1,1,1,1.654,731
"1703",7,173,"JudgmentsP2",1,1,4,1,0.795,732
"1704",7,29,"JudgmentsP2",1,1,3,0,1.234,733
"1705",7,14,"JudgmentsP2",1,1,4,0,20.053,734
"1706",7,164,"JudgmentsP2",1,1,4,1,3.15,735
"1707",7,74,"JudgmentsP2",1,1,3,0,2.228,736
"1708",7,23,"JudgmentsP2",1,1,4,0,1.996,737
"1709",7,149,"JudgmentsP2",1,1,4,1,0.586,738
"1710",7,34,"JudgmentsP2",1,1,4,0,2.635,739
"1711",7,27,"JudgmentsP2",1,1,4,0,1.122,740
"1712",7,134,"JudgmentsP2",1,1,4,1,1.292,741
"1713",7,161,"JudgmentsP2",1,1,4,1,2.618,742
"1714",7,136,"JudgmentsP2",1,1,2,1,1.686,743
"1715",7,77,"JudgmentsP2",1,1,3,0,3.48,744
"1716",7,168,"JudgmentsP2",1,1,5,1,0.649,745
"1717",7,155,"JudgmentsP2",1,1,2,1,0.934,746
"1718",7,21,"JudgmentsP2",1,1,2,0,8.517,747
"1719",7,140,"JudgmentsP2",1,1,4,1,0.781,748
"1720",7,166,"JudgmentsP2",1,1,3,1,0.998,749
"1721",7,61,"JudgmentsP2",1,1,3,0,5.25,750
"1722",7,81,"JudgmentsP2",1,1,3,0,4.289,751
"1723",7,49,"JudgmentsP2",1,1,4,0,4.008,752
"1724",7,158,"JudgmentsP2",1,1,6,1,1.017,753
"1725",7,156,"JudgmentsP2",1,1,4,1,2.702,754
"1726",7,17,"JudgmentsP2",1,1,1,0,11.068,755
"1727",7,25,"JudgmentsP2",1,1,5,0,3.072,756
"1728",7,170,"JudgmentsP2",1,1,5,1,1.031,757
"1729",7,60,"JudgmentsP2",1,1,6,0,4.039,758
"1730",7,157,"JudgmentsP2",1,1,3,1,0.607,759
"1731",7,45,"JudgmentsP2",1,1,4,0,4.018,760
"1732",7,38,"JudgmentsP2",1,1,3,0,13.519,761
"1733",7,150,"JudgmentsP2",1,1,4,1,3.251,762
"1734",7,73,"JudgmentsP2",1,1,3,0,5.207,763
"1735",7,145,"JudgmentsP2",1,1,3,1,2.166,764
"1736",7,154,"JudgmentsP2",1,1,4,1,5.849,765
"1737",7,64,"JudgmentsP2",1,1,3,0,6.151,766
"1738",7,137,"JudgmentsP2",1,1,4,1,0.73,767
"1739",7,159,"JudgmentsP2",1,1,4,1,0.672,768
"1740",7,160,"JudgmentsP2",1,1,3,1,1.393,769
"1741",7,48,"JudgmentsP2",1,1,2,0,2.225,770
"1742",7,88,"JudgmentsP2",1,1,5,0,2.12,771
"1743",7,80,"JudgmentsP2",1,1,4,0,3.514,772
"1744",7,10,"JudgmentsP2",1,1,4,0,2.096,773
"1745",7,46,"JudgmentsP2",1,1,3,0,4.436,774
"1746",7,176,"JudgmentsP2",1,1,3,1,0.793,775
"1747",7,84,"JudgmentsP2",1,1,4,0,3.169,776
"1748",7,139,"JudgmentsP2",1,1,3,1,1.954,777
"1749",7,162,"JudgmentsP2",1,1,3,1,3.451,778
"1750",7,171,"JudgmentsP2",1,1,4,1,2.507,779
"1751",7,174,"JudgmentsP2",1,1,3,1,4.538,780
"1752",7,143,"JudgmentsP2",1,1,3,1,1.164,781
"1753",7,67,"JudgmentsP2",1,1,2,0,5.511,782
"1754",7,135,"JudgmentsP2",1,1,3,1,2.211,783
"1755",7,151,"JudgmentsP2",1,1,5,1,1,784
"1756",7,83,"JudgmentsP2",1,1,4,0,2.163,785
"1757",7,40,"JudgmentsP2",1,1,2,0,2.596,786
"1758",7,9,"JudgmentsP2",1,1,3,0,1.134,787
"1759",7,35,"JudgmentsP2",1,1,4,0,8.564,788
"1760",7,142,"JudgmentsP2",1,1,5,1,10.393,789
"1761",7,89,"JudgmentsP3",1,1,3,1,4.923,1
"1762",7,47,"JudgmentsP3",1,1,3,0,3.642,2
"1763",7,102,"JudgmentsP3",1,1,5,1,3.106,3
"1764",7,71,"JudgmentsP3",1,1,4,0,4.794,4
"1765",7,128,"JudgmentsP3",1,1,4,1,3.958,5
"1766",7,92,"JudgmentsP3",1,1,3,1,8.431,6
"1767",7,127,"JudgmentsP3",1,1,4,1,2.529,7
"1768",7,108,"JudgmentsP3",1,1,3,1,7.675,8
"1769",7,123,"JudgmentsP3",1,1,3,1,17.583,9
"1770",7,101,"JudgmentsP3",1,1,5,1,1.643,10
"1771",7,56,"JudgmentsP3",1,1,4,0,12.646,11
"1772",7,32,"JudgmentsP3",1,1,4,0,5.827,12
"1773",7,85,"JudgmentsP3",1,1,4,0,9.769,13
"1774",7,115,"JudgmentsP3",1,1,5,1,0.859,14
"1775",7,129,"JudgmentsP3",1,1,5,1,1.304,15
"1776",7,16,"JudgmentsP3",1,1,4,0,3.849,16
"1777",7,52,"JudgmentsP3",1,1,2,0,1.93,17
"1778",7,120,"JudgmentsP3",1,1,4,1,4.276,18
"1779",7,19,"JudgmentsP3",1,1,3,0,6.217,19
"1780",7,70,"JudgmentsP3",1,1,3,0,3.29,20
"1781",7,109,"JudgmentsP3",1,1,3,1,3.187,21
"1782",7,68,"JudgmentsP3",1,1,2,0,20.387,22
"1783",7,59,"JudgmentsP3",1,1,4,0,1.879,23
"1784",7,103,"JudgmentsP3",1,1,4,1,1.033,24
"1785",7,112,"JudgmentsP3",1,1,3,1,6.05,25
"1786",7,130,"JudgmentsP3",1,1,4,1,1.4,26
"1787",7,37,"JudgmentsP3",1,1,2,0,7.483,27
"1788",7,12,"JudgmentsP3",1,1,3,0,4.433,28
"1789",7,97,"JudgmentsP3",1,1,3,1,5.15,29
"1790",7,121,"JudgmentsP3",1,1,4,1,3.242,30
"1791",7,79,"JudgmentsP3",1,1,1,0,1.467,31
"1792",7,106,"JudgmentsP3",1,1,3,1,1.995,32
"1793",7,1,"JudgmentsP3",1,1,4,0,0.946,33
"1794",7,44,"JudgmentsP3",1,1,4,0,4.986,34
"1795",7,6,"JudgmentsP3",1,1,4,0,2.415,35
"1796",7,100,"JudgmentsP3",1,1,3,1,1.027,36
"1797",7,98,"JudgmentsP3",1,1,5,1,5.012,37
"1798",7,58,"JudgmentsP3",1,1,3,0,13.589,38
"1799",7,5,"JudgmentsP3",1,1,3,0,7.191,39
"1800",7,39,"JudgmentsP3",1,1,3,0,2.114,40
"1801",7,11,"JudgmentsP3",1,1,4,0,3.625,41
"1802",7,24,"JudgmentsP3",1,1,3,0,5.248,42
"1803",7,22,"JudgmentsP3",1,1,2,0,1.255,43
"1804",7,66,"JudgmentsP3",1,1,2,0,1.427,44
"1805",7,125,"JudgmentsP3",1,1,5,1,4.804,45
"1806",7,69,"JudgmentsP3",1,1,4,0,3.443,46
"1807",7,132,"JudgmentsP3",1,1,4,1,1.516,47
"1808",7,117,"JudgmentsP3",1,1,4,1,0.918,48
"1809",7,28,"JudgmentsP3",1,1,4,0,2.049,49
"1810",7,55,"JudgmentsP3",1,1,4,0,4.451,50
"1811",7,30,"JudgmentsP3",1,1,5,0,6.58,51
"1812",7,90,"JudgmentsP3",1,1,3,1,0.604,52
"1813",7,87,"JudgmentsP3",1,1,6,0,0.711,53
"1814",7,63,"JudgmentsP3",1,1,5,0,1.567,54
"1815",7,7,"JudgmentsP3",1,1,4,0,2.97,55
"1816",7,78,"JudgmentsP3",1,1,3,0,4.427,56
"1817",7,57,"JudgmentsP3",1,1,3,0,1.84,57
"1818",7,53,"JudgmentsP3",1,1,5,0,0.723,58
"1819",7,118,"JudgmentsP3",1,1,5,1,2.806,59
"1820",7,36,"JudgmentsP3",1,1,4,0,0.855,60
"1821",7,104,"JudgmentsP3",1,1,5,1,0.869,61
"1822",7,13,"JudgmentsP3",1,1,4,0,12.494,62
"1823",7,4,"JudgmentsP3",1,1,6,0,0.846,63
"1824",7,93,"JudgmentsP3",1,1,2,1,1.257,64
"1825",7,124,"JudgmentsP3",1,1,4,1,0.942,65
"1826",7,122,"JudgmentsP3",1,1,5,1,0.718,66
"1827",7,91,"JudgmentsP3",1,1,4,1,4.322,67
"1828",7,50,"JudgmentsP3",1,1,4,0,2.386,68
"1829",7,111,"JudgmentsP3",1,1,5,1,1.505,69
"1830",7,116,"JudgmentsP3",1,1,2,1,3.217,70
"1831",7,18,"JudgmentsP3",1,1,3,0,4.276,71
"1832",7,94,"JudgmentsP3",1,1,4,1,1.425,72
"1833",7,3,"JudgmentsP3",1,1,5,0,0.833,73
"1834",7,119,"JudgmentsP3",1,1,3,1,2.001,74
"1835",7,107,"JudgmentsP3",1,1,3,1,0.691,75
"1836",7,8,"JudgmentsP3",1,1,3,0,1.329,76
"1837",7,76,"JudgmentsP3",1,1,1,0,0.999,77
"1838",7,96,"JudgmentsP3",1,1,3,1,3.721,78
"1839",7,99,"JudgmentsP3",1,1,3,1,6.17,79
"1840",7,131,"JudgmentsP3",1,1,3,1,4.233,80
"1841",7,114,"JudgmentsP3",1,1,3,1,1.742,81
"1842",7,62,"JudgmentsP3",1,1,4,0,5.035,82
"1843",7,126,"JudgmentsP3",1,1,5,1,0.967,83
"1844",7,15,"JudgmentsP3",1,1,1,0,1.306,84
"1845",7,105,"JudgmentsP3",1,1,3,1,1.322,85
"1846",7,95,"JudgmentsP3",1,1,3,1,0.972,86
"1847",7,113,"JudgmentsP3",1,1,4,1,0.77,87
"1848",7,110,"JudgmentsP3",1,1,5,1,2.047,88
"1849",8,121,"JudgmentsP1",1,1,4,0,2.516,6
"1850",8,167,"JudgmentsP1",1,1,4,0,4.051,7
"1851",8,134,"JudgmentsP1",1,1,3,0,1.034,8
"1852",8,133,"JudgmentsP1",1,1,4,0,2.367,9
"1853",8,148,"JudgmentsP1",1,1,4,0,3.274,10
"1854",8,109,"JudgmentsP1",1,1,3,0,3.612,11
"1855",8,97,"JudgmentsP1",1,1,2,0,2.675,12
"1856",8,105,"JudgmentsP1",1,1,3,0,1.953,13
"1857",8,119,"JudgmentsP1",1,1,3,0,2.334,14
"1858",8,139,"JudgmentsP1",1,1,4,0,2.411,15
"1859",8,103,"JudgmentsP1",1,1,4,0,1.795,16
"1860",8,110,"JudgmentsP1",1,1,5,0,1.146,17
"1861",8,108,"JudgmentsP1",1,1,4,0,2.667,18
"1862",8,118,"JudgmentsP1",1,1,3,0,1.912,19
"1863",8,157,"JudgmentsP1",1,1,3,0,4.545,20
"1864",8,116,"JudgmentsP1",1,1,5,0,0.75,21
"1865",8,92,"JudgmentsP1",1,1,2,0,1.93,22
"1866",8,170,"JudgmentsP1",1,1,4,0,5.323,23
"1867",8,89,"JudgmentsP1",1,1,5,0,0.733,24
"1868",8,142,"JudgmentsP1",1,1,3,0,1.231,25
"1869",8,161,"JudgmentsP1",1,1,5,0,0.684,26
"1870",8,152,"JudgmentsP1",1,1,3,0,2.067,27
"1871",8,122,"JudgmentsP1",1,1,3,0,0.91,28
"1872",8,135,"JudgmentsP1",1,1,3,0,1.64,29
"1873",8,150,"JudgmentsP1",1,1,3,0,2.262,30
"1874",8,112,"JudgmentsP1",1,1,3,0,2.67,31
"1875",8,162,"JudgmentsP1",1,1,5,0,1.506,32
"1876",8,151,"JudgmentsP1",1,1,5,0,1.182,33
"1877",8,98,"JudgmentsP1",1,1,5,0,0.697,34
"1878",8,136,"JudgmentsP1",1,1,3,0,3.265,35
"1879",8,145,"JudgmentsP1",1,1,2,0,1.803,36
"1880",8,117,"JudgmentsP1",1,1,5,0,0.957,37
"1881",8,154,"JudgmentsP1",1,1,1,0,1.08,38
"1882",8,163,"JudgmentsP1",1,1,3,0,1.825,39
"1883",8,143,"JudgmentsP1",1,1,3,0,3.911,40
"1884",8,171,"JudgmentsP1",1,1,4,0,3.726,41
"1885",8,166,"JudgmentsP1",1,1,5,0,0.835,42
"1886",8,102,"JudgmentsP1",1,1,4,0,3.399,43
"1887",8,115,"JudgmentsP1",1,1,5,0,1.892,44
"1888",8,173,"JudgmentsP1",1,1,4,0,2.247,45
"1889",8,138,"JudgmentsP1",1,1,3,0,0.935,46
"1890",8,175,"JudgmentsP1",1,1,4,0,0.704,47
"1891",8,120,"JudgmentsP1",1,1,4,0,1.322,48
"1892",8,128,"JudgmentsP1",1,1,2,0,2.064,49
"1893",8,126,"JudgmentsP1",1,1,5,0,1.051,50
"1894",8,140,"JudgmentsP1",1,1,5,0,0.855,51
"1895",8,101,"JudgmentsP1",1,1,3,0,1.064,52
"1896",8,144,"JudgmentsP1",1,1,2,0,3.078,53
"1897",8,155,"JudgmentsP1",1,1,3,0,1.216,54
"1898",8,141,"JudgmentsP1",1,1,3,0,1.807,55
"1899",8,111,"JudgmentsP1",1,1,4,0,0.938,56
"1900",8,107,"JudgmentsP1",1,1,4,0,2.422,57
"1901",8,90,"JudgmentsP1",1,1,3,0,2.31,58
"1902",8,174,"JudgmentsP1",1,1,4,0,2.425,59
"1903",8,176,"JudgmentsP1",1,1,3,0,0.742,60
"1904",8,149,"JudgmentsP1",1,1,4,0,1.263,61
"1905",8,168,"JudgmentsP1",1,1,3,0,0.87,62
"1906",8,130,"JudgmentsP1",1,1,2,0,1.298,63
"1907",8,129,"JudgmentsP1",1,1,4,0,0.717,64
"1908",8,127,"JudgmentsP1",1,1,4,0,0.769,65
"1909",8,153,"JudgmentsP1",1,1,3,0,2.03,66
"1910",8,158,"JudgmentsP1",1,1,5,0,1.791,67
"1911",8,94,"JudgmentsP1",1,1,5,0,0.831,68
"1912",8,100,"JudgmentsP1",1,1,5,0,1.819,69
"1913",8,131,"JudgmentsP1",1,1,3,0,1.404,70
"1914",8,137,"JudgmentsP1",1,1,1,0,0.85,71
"1915",8,165,"JudgmentsP1",1,1,4,0,1.581,72
"1916",8,113,"JudgmentsP1",1,1,4,0,0.682,73
"1917",8,146,"JudgmentsP1",1,1,3,0,1.078,74
"1918",8,132,"JudgmentsP1",1,1,4,0,0.625,75
"1919",8,96,"JudgmentsP1",1,1,5,0,0.742,76
"1920",8,156,"JudgmentsP1",1,1,5,0,0.868,77
"1921",8,99,"JudgmentsP1",1,1,4,0,1.283,78
"1922",8,160,"JudgmentsP1",1,1,5,0,1.797,79
"1923",8,164,"JudgmentsP1",1,1,4,0,0.734,80
"1924",8,104,"JudgmentsP1",1,1,5,0,0.738,81
"1925",8,123,"JudgmentsP1",1,1,3,0,1.182,82
"1926",8,172,"JudgmentsP1",1,1,5,0,0.639,83
"1927",8,114,"JudgmentsP1",1,1,2,0,0.809,84
"1928",8,95,"JudgmentsP1",1,1,5,0,0.695,85
"1929",8,106,"JudgmentsP1",1,1,4,0,0.62,86
"1930",8,91,"JudgmentsP1",1,1,5,0,1.88,87
"1931",8,125,"JudgmentsP1",1,1,5,0,0.667,88
"1932",8,93,"JudgmentsP1",1,1,2,0,1.104,89
"1933",8,124,"JudgmentsP1",1,1,5,0,1.151,90
"1934",8,159,"JudgmentsP1",1,1,2,0,1.216,91
"1935",8,147,"JudgmentsP1",1,1,5,0,1.017,92
"1936",8,169,"JudgmentsP1",1,1,5,0,1.272,93
"1937",8,57,"JudgmentsP2",1,1,5,0,0.888,702
"1938",8,47,"JudgmentsP2",1,1,3,0,0.819,703
"1939",8,76,"JudgmentsP2",1,1,4,0,0.801,704
"1940",8,134,"JudgmentsP2",1,1,2,1,0.724,705
"1941",8,137,"JudgmentsP2",1,1,1,1,0.75,706
"1942",8,78,"JudgmentsP2",1,1,3,0,1.518,707
"1943",8,28,"JudgmentsP2",1,1,4,0,0.681,708
"1944",8,155,"JudgmentsP2",1,1,3,1,0.5,709
"1945",8,58,"JudgmentsP2",1,1,5,0,2.282,710
"1946",8,141,"JudgmentsP2",1,1,3,1,0.476,711
"1947",8,160,"JudgmentsP2",1,1,4,1,0.543,712
"1948",8,173,"JudgmentsP2",1,1,4,1,0.567,713
"1949",8,8,"JudgmentsP2",1,1,4,0,0.722,714
"1950",8,85,"JudgmentsP2",1,1,3,0,0.613,715
"1951",8,22,"JudgmentsP2",1,1,3,0,0.755,716
"1952",8,71,"JudgmentsP2",1,1,2,0,1.078,717
"1953",8,147,"JudgmentsP2",1,1,4,1,0.545,718
"1954",8,68,"JudgmentsP2",1,1,2,0,1.817,719
"1955",8,144,"JudgmentsP2",1,1,2,1,0.606,720
"1956",8,153,"JudgmentsP2",1,1,3,1,0.641,721
"1957",8,164,"JudgmentsP2",1,1,4,1,0.652,722
"1958",8,148,"JudgmentsP2",1,1,3,1,0.57,723
"1959",8,175,"JudgmentsP2",1,1,4,1,0.488,724
"1960",8,7,"JudgmentsP2",1,1,4,0,0.563,725
"1961",8,154,"JudgmentsP2",1,1,1,1,0.686,726
"1962",8,55,"JudgmentsP2",1,1,4,0,1.393,727
"1963",8,169,"JudgmentsP2",1,1,5,1,0.641,728
"1964",8,79,"JudgmentsP2",1,1,4,0,1.06,729
"1965",8,36,"JudgmentsP2",1,1,4,0,2.682,730
"1966",8,66,"JudgmentsP2",1,1,3,0,0.611,731
"1967",8,135,"JudgmentsP2",1,1,3,1,0.553,732
"1968",8,44,"JudgmentsP2",1,1,4,0,0.785,733
"1969",8,4,"JudgmentsP2",1,1,4,0,0.585,734
"1970",8,138,"JudgmentsP2",1,1,3,1,0.482,735
"1971",8,176,"JudgmentsP2",1,1,3,1,0.645,736
"1972",8,159,"JudgmentsP2",1,1,3,1,0.528,737
"1973",8,30,"JudgmentsP2",1,1,5,0,0.604,738
"1974",8,70,"JudgmentsP2",1,1,4,0,0.614,739
"1975",8,39,"JudgmentsP2",1,1,4,0,0.604,740
"1976",8,139,"JudgmentsP2",1,1,4,1,0.623,741
"1977",8,62,"JudgmentsP2",1,1,3,0,0.608,742
"1978",8,158,"JudgmentsP2",1,1,4,1,0.459,743
"1979",8,16,"JudgmentsP2",1,1,3,0,0.584,744
"1980",8,136,"JudgmentsP2",1,1,3,1,0.713,745
"1981",8,1,"JudgmentsP2",1,1,2,0,1.017,746
"1982",8,161,"JudgmentsP2",1,1,4,1,0.567,747
"1983",8,24,"JudgmentsP2",1,1,4,0,0.874,748
"1984",8,6,"JudgmentsP2",1,1,5,0,0.834,749
"1985",8,165,"JudgmentsP2",1,1,3,1,0.61,750
"1986",8,32,"JudgmentsP2",1,1,3,0,1.552,751
"1987",8,143,"JudgmentsP2",1,1,3,1,0.631,752
"1988",8,171,"JudgmentsP2",1,1,3,1,0.536,753
"1989",8,69,"JudgmentsP2",1,1,4,0,0.566,754
"1990",8,19,"JudgmentsP2",1,1,2,0,1.409,755
"1991",8,18,"JudgmentsP2",1,1,3,0,0.535,756
"1992",8,174,"JudgmentsP2",1,1,4,1,0.508,757
"1993",8,150,"JudgmentsP2",1,1,3,1,0.54,758
"1994",8,170,"JudgmentsP2",1,1,4,1,1.058,759
"1995",8,146,"JudgmentsP2",1,1,3,1,0.488,760
"1996",8,63,"JudgmentsP2",1,1,4,0,0.459,761
"1997",8,151,"JudgmentsP2",1,1,4,1,0.497,762
"1998",8,133,"JudgmentsP2",1,1,3,1,0.526,763
"1999",8,13,"JudgmentsP2",1,1,5,0,0.578,764
"2000",8,15,"JudgmentsP2",1,1,3,0,1.2,765
"2001",8,156,"JudgmentsP2",1,1,4,1,0.642,766
"2002",8,142,"JudgmentsP2",1,1,3,1,0.614,767
"2003",8,59,"JudgmentsP2",1,1,3,0,0.548,768
"2004",8,172,"JudgmentsP2",1,1,4,1,0.459,769
"2005",8,87,"JudgmentsP2",1,1,6,0,1.001,770
"2006",8,53,"JudgmentsP2",1,1,4,0,0.764,771
"2007",8,11,"JudgmentsP2",1,1,4,0,0.751,772
"2008",8,5,"JudgmentsP2",1,1,4,0,0.528,773
"2009",8,12,"JudgmentsP2",1,1,3,0,1.002,774
"2010",8,167,"JudgmentsP2",1,1,4,1,0.661,775
"2011",8,162,"JudgmentsP2",1,1,5,1,0.659,776
"2012",8,168,"JudgmentsP2",1,1,3,1,0.569,777
"2013",8,52,"JudgmentsP2",1,1,5,0,1.063,778
"2014",8,50,"JudgmentsP2",1,1,4,0,0.585,779
"2015",8,152,"JudgmentsP2",1,1,3,1,0.873,780
"2016",8,37,"JudgmentsP2",1,1,2,0,0.649,781
"2017",8,3,"JudgmentsP2",1,1,3,0,0.63,782
"2018",8,56,"JudgmentsP2",1,1,5,0,0.727,783
"2019",8,166,"JudgmentsP2",1,1,5,1,0.602,784
"2020",8,163,"JudgmentsP2",1,1,3,1,0.565,785
"2021",8,149,"JudgmentsP2",1,1,4,1,0.713,786
"2022",8,145,"JudgmentsP2",1,1,4,1,0.568,787
"2023",8,140,"JudgmentsP2",1,1,5,1,0.542,788
"2024",8,157,"JudgmentsP2",1,1,3,1,1.071,789
"2025",8,109,"JudgmentsP3",1,1,3,1,1.814,1
"2026",8,105,"JudgmentsP3",1,1,4,1,2.139,2
"2027",8,113,"JudgmentsP3",1,1,5,1,0.703,3
"2028",8,125,"JudgmentsP3",1,1,5,1,0.76,4
"2029",8,81,"JudgmentsP3",1,1,3,0,1.771,5
"2030",8,90,"JudgmentsP3",1,1,4,1,1.064,6
"2031",8,54,"JudgmentsP3",1,1,3,0,0.72,7
"2032",8,129,"JudgmentsP3",1,1,5,1,0.642,8
"2033",8,41,"JudgmentsP3",1,1,3,0,1.021,9
"2034",8,116,"JudgmentsP3",1,1,5,1,0.587,10
"2035",8,65,"JudgmentsP3",1,1,4,0,2.339,11
"2036",8,77,"JudgmentsP3",1,1,3,0,1.544,12
"2037",8,103,"JudgmentsP3",1,1,5,1,0.751,13
"2038",8,60,"JudgmentsP3",1,1,5,0,1.952,14
"2039",8,38,"JudgmentsP3",1,1,4,0,1.287,15
"2040",8,110,"JudgmentsP3",1,1,5,1,0.562,16
"2041",8,35,"JudgmentsP3",1,1,5,0,1.517,17
"2042",8,43,"JudgmentsP3",1,1,4,0,1.84,18
"2043",8,107,"JudgmentsP3",1,1,3,1,0.817,19
"2044",8,111,"JudgmentsP3",1,1,3,1,0.758,20
"2045",8,89,"JudgmentsP3",1,1,6,1,2.706,21
"2046",8,9,"JudgmentsP3",1,1,3,0,1.224,22
"2047",8,96,"JudgmentsP3",1,1,5,1,0.736,23
"2048",8,92,"JudgmentsP3",1,1,2,1,0.782,24
"2049",8,80,"JudgmentsP3",1,1,3,0,0.967,25
"2050",8,131,"JudgmentsP3",1,1,5,1,1.497,26
"2051",8,115,"JudgmentsP3",1,1,5,1,0.599,27
"2052",8,2,"JudgmentsP3",1,1,6,0,0.865,28
"2053",8,31,"JudgmentsP3",1,1,5,0,0.929,29
"2054",8,86,"JudgmentsP3",1,1,3,0,0.615,30
"2055",8,126,"JudgmentsP3",1,1,5,1,0.701,31
"2056",8,75,"JudgmentsP3",1,1,5,0,0.643,32
"2057",8,17,"JudgmentsP3",1,1,3,0,0.822,33
"2058",8,97,"JudgmentsP3",1,1,2,1,0.627,34
"2059",8,23,"JudgmentsP3",1,1,5,0,0.835,35
"2060",8,42,"JudgmentsP3",1,1,5,0,0.574,36
"2061",8,61,"JudgmentsP3",1,1,3,0,1.092,37
"2062",8,29,"JudgmentsP3",1,1,2,0,0.73,38
"2063",8,120,"JudgmentsP3",1,1,5,1,0.576,39
"2064",8,104,"JudgmentsP3",1,1,2,1,0.684,40
"2065",8,21,"JudgmentsP3",1,1,5,0,0.576,41
"2066",8,93,"JudgmentsP3",1,1,2,1,0.83,42
"2067",8,49,"JudgmentsP3",1,1,5,0,0.95,43
"2068",8,98,"JudgmentsP3",1,1,6,1,0.918,44
"2069",8,45,"JudgmentsP3",1,1,3,0,1.433,45
"2070",8,117,"JudgmentsP3",1,1,5,1,0.585,46
"2071",8,123,"JudgmentsP3",1,1,4,1,0.665,47
"2072",8,14,"JudgmentsP3",1,1,5,0,1.529,48
"2073",8,26,"JudgmentsP3",1,1,4,0,0.71,49
"2074",8,106,"JudgmentsP3",1,1,4,1,0.623,50
"2075",8,74,"JudgmentsP3",1,1,2,0,1.464,51
"2076",8,124,"JudgmentsP3",1,1,5,1,0.567,52
"2077",8,84,"JudgmentsP3",1,1,4,0,1.163,53
"2078",8,94,"JudgmentsP3",1,1,4,1,0.516,54
"2079",8,33,"JudgmentsP3",1,1,2,0,0.504,55
"2080",8,118,"JudgmentsP3",1,1,3,1,1.168,56
"2081",8,95,"JudgmentsP3",1,1,4,1,1.515,57
"2082",8,34,"JudgmentsP3",1,1,4,0,0.843,58
"2083",8,119,"JudgmentsP3",1,1,3,1,0.838,59
"2084",8,48,"JudgmentsP3",1,1,2,0,0.729,60
"2085",8,112,"JudgmentsP3",1,1,3,1,0.526,61
"2086",8,83,"JudgmentsP3",1,1,2,0,0.713,62
"2087",8,25,"JudgmentsP3",1,1,3,0,1.17,63
"2088",8,67,"JudgmentsP3",1,1,5,0,0.807,64
"2089",8,91,"JudgmentsP3",1,1,4,1,0.772,65
"2090",8,40,"JudgmentsP3",1,1,3,0,3.914,66
"2091",8,100,"JudgmentsP3",1,1,4,1,1.056,67
"2092",8,73,"JudgmentsP3",1,1,4,0,0.709,68
"2093",8,10,"JudgmentsP3",1,1,4,0,1.206,69
"2094",8,127,"JudgmentsP3",1,1,4,1,0.456,70
"2095",8,128,"JudgmentsP3",1,1,4,1,0.509,71
"2096",8,99,"JudgmentsP3",1,1,4,1,0.566,72
"2097",8,88,"JudgmentsP3",1,1,5,0,0.633,73
"2098",8,130,"JudgmentsP3",1,1,4,1,0.65,74
"2099",8,122,"JudgmentsP3",1,1,5,1,0.824,75
"2100",8,114,"JudgmentsP3",1,1,2,1,0.608,76
"2101",8,108,"JudgmentsP3",1,1,4,1,0.667,77
"2102",8,82,"JudgmentsP3",1,1,4,0,0.659,78
"2103",8,20,"JudgmentsP3",1,1,4,0,1.089,79
"2104",8,72,"JudgmentsP3",1,1,3,0,0.59,80
"2105",8,27,"JudgmentsP3",1,1,4,0,0.719,81
"2106",8,101,"JudgmentsP3",1,1,2,1,0.578,82
"2107",8,132,"JudgmentsP3",1,1,4,1,0.479,83
"2108",8,102,"JudgmentsP3",1,1,4,1,0.627,84
"2109",8,51,"JudgmentsP3",1,1,4,0,0.483,85
"2110",8,121,"JudgmentsP3",1,1,4,1,0.455,86
"2111",8,46,"JudgmentsP3",1,1,4,0,0.797,87
"2112",8,64,"JudgmentsP3",1,1,4,0,0.951,88
"2113",9,22,"JudgmentsP1",1,1,2,0,1.343,6
"2114",9,8,"JudgmentsP1",1,1,1,0,1.082,7
"2115",9,74,"JudgmentsP1",1,1,3,0,1.054,8
"2116",9,46,"JudgmentsP1",1,1,4,0,4.048,9
"2117",9,53,"JudgmentsP1",1,1,4,0,1.415,10
"2118",9,31,"JudgmentsP1",1,1,3,0,0.962,11
"2119",9,5,"JudgmentsP1",1,1,2,0,1.399,12
"2120",9,61,"JudgmentsP1",1,1,3,0,2.598,13
"2121",9,80,"JudgmentsP1",1,1,4,0,0.972,14
"2122",9,23,"JudgmentsP1",1,1,3,0,1.775,15
"2123",9,9,"JudgmentsP1",1,1,3,0,1.762,16
"2124",9,29,"JudgmentsP1",1,1,2,0,1.597,17
"2125",9,14,"JudgmentsP1",1,1,1,0,3.078,18
"2126",9,49,"JudgmentsP1",1,1,4,0,2.071,19
"2127",9,13,"JudgmentsP1",1,1,4,0,2.111,20
"2128",9,52,"JudgmentsP1",1,1,3,0,2.122,21
"2129",9,79,"JudgmentsP1",1,1,1,0,1.234,22
"2130",9,83,"JudgmentsP1",1,1,5,0,5.74,23
"2131",9,84,"JudgmentsP1",1,1,3,0,3.862,24
"2132",9,48,"JudgmentsP1",1,1,2,0,1.659,25
"2133",9,26,"JudgmentsP1",1,1,5,0,1.936,26
"2134",9,71,"JudgmentsP1",1,1,1,0,1.595,27
"2135",9,20,"JudgmentsP1",1,1,1,0,0.851,28
"2136",9,88,"JudgmentsP1",1,1,1,0,1.062,29
"2137",9,1,"JudgmentsP1",1,1,3,0,0.709,30
"2138",9,11,"JudgmentsP1",1,1,3,0,2.273,31
"2139",9,7,"JudgmentsP1",1,1,2,0,1.777,32
"2140",9,86,"JudgmentsP1",1,1,2,0,3.296,33
"2141",9,75,"JudgmentsP1",1,1,2,0,2.64,34
"2142",9,24,"JudgmentsP1",1,1,4,0,2.682,35
"2143",9,41,"JudgmentsP1",1,1,4,0,2.843,36
"2144",9,64,"JudgmentsP1",1,1,4,0,4.243,37
"2145",9,63,"JudgmentsP1",1,1,5,0,4.017,38
"2146",9,87,"JudgmentsP1",1,1,2,0,2.425,39
"2147",9,32,"JudgmentsP1",1,1,4,0,3.938,40
"2148",9,55,"JudgmentsP1",1,1,6,0,1.843,41
"2149",9,72,"JudgmentsP1",1,1,2,0,2.745,42
"2150",9,25,"JudgmentsP1",1,1,2,0,4.217,43
"2151",9,85,"JudgmentsP1",1,1,4,0,0.848,44
"2152",9,60,"JudgmentsP1",1,1,3,0,5.194,45
"2153",9,59,"JudgmentsP1",1,1,5,0,2.471,46
"2154",9,47,"JudgmentsP1",1,1,2,0,2.003,47
"2155",9,70,"JudgmentsP1",1,1,3,0,2.351,48
"2156",9,42,"JudgmentsP1",1,1,4,0,1.888,49
"2157",9,35,"JudgmentsP1",1,1,6,0,2.416,50
"2158",9,28,"JudgmentsP1",1,1,4,0,2.291,51
"2159",9,33,"JudgmentsP1",1,1,5,0,1.87,52
"2160",9,15,"JudgmentsP1",1,1,3,0,2.235,53
"2161",9,43,"JudgmentsP1",1,1,2,0,2.766,54
"2162",9,68,"JudgmentsP1",1,1,4,0,2.746,55
"2163",9,54,"JudgmentsP1",1,1,5,0,2.506,56
"2164",9,77,"JudgmentsP1",1,1,1,0,0.999,57
"2165",9,34,"JudgmentsP1",1,1,4,0,5.712,58
"2166",9,27,"JudgmentsP1",1,1,3,0,3.594,59
"2167",9,73,"JudgmentsP1",1,1,2,0,2.032,60
"2168",9,62,"JudgmentsP1",1,1,5,0,4.406,61
"2169",9,50,"JudgmentsP1",1,1,6,0,1.842,62
"2170",9,3,"JudgmentsP1",1,1,5,0,0.847,63
"2171",9,57,"JudgmentsP1",1,1,5,0,0.965,64
"2172",9,78,"JudgmentsP1",1,1,5,0,1.348,65
"2173",9,12,"JudgmentsP1",1,1,2,0,1.18,66
"2174",9,40,"JudgmentsP1",1,1,3,0,2.689,67
"2175",9,37,"JudgmentsP1",1,1,6,0,2.032,68
"2176",9,17,"JudgmentsP1",1,1,6,0,1.629,69
"2177",9,38,"JudgmentsP1",1,1,6,0,1.184,70
"2178",9,6,"JudgmentsP1",1,1,3,0,1.848,71
"2179",9,58,"JudgmentsP1",1,1,4,0,3.414,72
"2180",9,56,"JudgmentsP1",1,1,1,0,2.466,73
"2181",9,69,"JudgmentsP1",1,1,2,0,4.015,74
"2182",9,2,"JudgmentsP1",1,1,6,0,2.309,75
"2183",9,81,"JudgmentsP1",1,1,5,0,1.608,76
"2184",9,19,"JudgmentsP1",1,1,3,0,3.992,77
"2185",9,18,"JudgmentsP1",1,1,5,0,1.084,78
"2186",9,21,"JudgmentsP1",1,1,5,0,1.418,79
"2187",9,65,"JudgmentsP1",1,1,4,0,1.04,80
"2188",9,10,"JudgmentsP1",1,1,4,0,2.585,81
"2189",9,67,"JudgmentsP1",1,1,4,0,4.123,82
"2190",9,4,"JudgmentsP1",1,1,3,0,1.255,83
"2191",9,45,"JudgmentsP1",1,1,5,0,4.185,84
"2192",9,66,"JudgmentsP1",1,1,3,0,0.897,85
"2193",9,30,"JudgmentsP1",1,1,4,0,2.131,86
"2194",9,44,"JudgmentsP1",1,1,5,0,2.468,87
"2195",9,51,"JudgmentsP1",1,1,3,0,2.188,88
"2196",9,39,"JudgmentsP1",1,1,3,0,1.974,89
"2197",9,76,"JudgmentsP1",1,1,3,0,3.663,90
"2198",9,16,"JudgmentsP1",1,1,6,0,1.873,91
"2199",9,82,"JudgmentsP1",1,1,1,0,1.284,92
"2200",9,36,"JudgmentsP1",1,1,6,0,2.418,93
"2201",9,110,"JudgmentsP2",1,1,3,0,1.241,702
"2202",9,82,"JudgmentsP2",1,1,1,1,1.012,703
"2203",9,65,"JudgmentsP2",1,1,4,1,0.745,704
"2204",9,106,"JudgmentsP2",1,1,3,0,1.026,705
"2205",9,105,"JudgmentsP2",1,1,3,0,1.954,706
"2206",9,125,"JudgmentsP2",1,1,2,0,1.674,707
"2207",9,42,"JudgmentsP2",1,1,4,1,0.832,708
"2208",9,10,"JudgmentsP2",1,1,4,1,1.681,709
"2209",9,54,"JudgmentsP2",1,1,5,1,0.723,710
"2210",9,29,"JudgmentsP2",1,1,3,1,1.022,711
"2211",9,128,"JudgmentsP2",1,1,5,0,1.038,712
"2212",9,109,"JudgmentsP2",1,1,4,0,1.433,713
"2213",9,9,"JudgmentsP2",1,1,3,1,0.817,714
"2214",9,115,"JudgmentsP2",1,1,2,0,1.383,715
"2215",9,49,"JudgmentsP2",1,1,3,1,1.15,716
"2216",9,21,"JudgmentsP2",1,1,5,1,0.758,717
"2217",9,31,"JudgmentsP2",1,1,2,1,1.617,718
"2218",9,126,"JudgmentsP2",1,1,4,0,1.726,719
"2219",9,93,"JudgmentsP2",1,1,1,0,1.792,720
"2220",9,117,"JudgmentsP2",1,1,5,0,1.903,721
"2221",9,74,"JudgmentsP2",1,1,3,1,0.823,722
"2222",9,25,"JudgmentsP2",1,1,2,1,0.815,723
"2223",9,43,"JudgmentsP2",1,1,2,1,1.837,724
"2224",9,94,"JudgmentsP2",1,1,4,0,0.903,725
"2225",9,127,"JudgmentsP2",1,1,5,0,1.063,726
"2226",9,130,"JudgmentsP2",1,1,3,0,1.216,727
"2227",9,121,"JudgmentsP2",1,1,5,0,1.645,728
"2228",9,46,"JudgmentsP2",1,1,4,1,0.862,729
"2229",9,72,"JudgmentsP2",1,1,3,1,0.935,730
"2230",9,88,"JudgmentsP2",1,1,1,1,0.956,731
"2231",9,116,"JudgmentsP2",1,1,4,0,1.111,732
"2232",9,98,"JudgmentsP2",1,1,4,0,1.143,733
"2233",9,75,"JudgmentsP2",1,1,3,1,0.783,734
"2234",9,119,"JudgmentsP2",1,1,3,0,1.68,735
"2235",9,103,"JudgmentsP2",1,1,2,0,1.722,736
"2236",9,51,"JudgmentsP2",1,1,3,1,0.86,737
"2237",9,113,"JudgmentsP2",1,1,2,0,1.017,738
"2238",9,38,"JudgmentsP2",1,1,6,1,1.975,739
"2239",9,101,"JudgmentsP2",1,1,4,0,1.907,740
"2240",9,64,"JudgmentsP2",1,1,3,1,0.707,741
"2241",9,107,"JudgmentsP2",1,1,2,0,2.059,742
"2242",9,73,"JudgmentsP2",1,1,2,1,0.792,743
"2243",9,111,"JudgmentsP2",1,1,4,0,2.496,744
"2244",9,132,"JudgmentsP2",1,1,3,0,1.108,745
"2245",9,108,"JudgmentsP2",1,1,3,0,3.229,746
"2246",9,35,"JudgmentsP2",1,1,1,1,0.867,747
"2247",9,122,"JudgmentsP2",1,1,5,0,2.211,748
"2248",9,99,"JudgmentsP2",1,1,4,0,2.551,749
"2249",9,124,"JudgmentsP2",1,1,3,0,1.774,750
"2250",9,23,"JudgmentsP2",1,1,3,1,0.931,751
"2251",9,97,"JudgmentsP2",1,1,4,0,4.865,752
"2252",9,60,"JudgmentsP2",1,1,3,1,0.723,753
"2253",9,83,"JudgmentsP2",1,1,5,1,0.798,754
"2254",9,114,"JudgmentsP2",1,1,2,0,1.409,755
"2255",9,90,"JudgmentsP2",1,1,6,0,0.862,756
"2256",9,123,"JudgmentsP2",1,1,3,0,0.983,757
"2257",9,48,"JudgmentsP2",1,1,3,1,1.023,758
"2258",9,45,"JudgmentsP2",1,1,5,1,2.543,759
"2259",9,17,"JudgmentsP2",1,1,5,1,1.195,760
"2260",9,89,"JudgmentsP2",1,1,3,0,0.69,761
"2261",9,91,"JudgmentsP2",1,1,3,0,0.872,762
"2262",9,77,"JudgmentsP2",1,1,1,1,1.064,763
"2263",9,41,"JudgmentsP2",1,1,5,1,1.921,764
"2264",9,14,"JudgmentsP2",1,1,2,1,0.683,765
"2265",9,34,"JudgmentsP2",1,1,4,1,0.622,766
"2266",9,102,"JudgmentsP2",1,1,2,0,1.03,767
"2267",9,27,"JudgmentsP2",1,1,3,1,0.59,768
"2268",9,61,"JudgmentsP2",1,1,3,1,0.806,769
"2269",9,80,"JudgmentsP2",1,1,3,1,0.777,770
"2270",9,131,"JudgmentsP2",1,1,4,0,0.711,771
"2271",9,86,"JudgmentsP2",1,1,3,1,1.16,772
"2272",9,40,"JudgmentsP2",1,1,3,1,2.746,773
"2273",9,26,"JudgmentsP2",1,1,5,1,1.473,774
"2274",9,33,"JudgmentsP2",1,1,4,1,3.361,775
"2275",9,129,"JudgmentsP2",1,1,3,0,4.217,776
"2276",9,84,"JudgmentsP2",1,1,3,1,0.612,777
"2277",9,81,"JudgmentsP2",1,1,5,1,2.282,778
"2278",9,104,"JudgmentsP2",1,1,1,0,2.468,779
"2279",9,118,"JudgmentsP2",1,1,4,0,1.347,780
"2280",9,20,"JudgmentsP2",1,1,2,1,0.794,781
"2281",9,67,"JudgmentsP2",1,1,4,1,0.715,782
"2282",9,100,"JudgmentsP2",1,1,2,0,1.003,783
"2283",9,92,"JudgmentsP2",1,1,3,0,2.262,784
"2284",9,95,"JudgmentsP2",1,1,4,0,1.003,785
"2285",9,112,"JudgmentsP2",1,1,3,0,2.478,786
"2286",9,120,"JudgmentsP2",1,1,3,0,1.343,787
"2287",9,96,"JudgmentsP2",1,1,4,0,0.903,788
"2288",9,2,"JudgmentsP2",1,1,5,1,0.95,789
"2289",9,59,"JudgmentsP3",1,1,3,1,1.005,1
"2290",9,63,"JudgmentsP3",1,1,3,1,0.736,2
"2291",9,85,"JudgmentsP3",1,1,3,1,0.766,3
"2292",9,161,"JudgmentsP3",1,1,2,0,2.289,4
"2293",9,151,"JudgmentsP3",1,1,1,0,0.939,5
"2294",9,7,"JudgmentsP3",1,1,3,1,0.657,6
"2295",9,147,"JudgmentsP3",1,1,2,0,0.75,7
"2296",9,52,"JudgmentsP3",1,1,3,1,0.854,8
"2297",9,159,"JudgmentsP3",1,1,2,0,1.156,9
"2298",9,50,"JudgmentsP3",1,1,6,1,1.014,10
"2299",9,76,"JudgmentsP3",1,1,4,1,0.732,11
"2300",9,166,"JudgmentsP3",1,1,5,0,0.722,12
"2301",9,78,"JudgmentsP3",1,1,3,1,1.293,13
"2302",9,163,"JudgmentsP3",1,1,5,0,1.978,14
"2303",9,68,"JudgmentsP3",1,1,3,1,2.575,15
"2304",9,44,"JudgmentsP3",1,1,5,1,1.403,16
"2305",9,1,"JudgmentsP3",1,1,4,1,0.798,17
"2306",9,144,"JudgmentsP3",1,1,2,0,0.744,18
"2307",9,11,"JudgmentsP3",1,1,2,1,0.832,19
"2308",9,71,"JudgmentsP3",1,1,2,1,1.305,20
"2309",9,139,"JudgmentsP3",1,1,3,0,1.848,21
"2310",9,69,"JudgmentsP3",1,1,2,1,1.123,22
"2311",9,15,"JudgmentsP3",1,1,4,1,3.205,23
"2312",9,134,"JudgmentsP3",1,1,4,0,2.726,24
"2313",9,149,"JudgmentsP3",1,1,6,0,0.992,25
"2314",9,173,"JudgmentsP3",1,1,2,0,0.96,26
"2315",9,167,"JudgmentsP3",1,1,5,0,2.435,27
"2316",9,170,"JudgmentsP3",1,1,2,0,3.266,28
"2317",9,169,"JudgmentsP3",1,1,3,0,0.784,29
