"","subject","statement_identifier","procedure_identifier","within_identifier","between_identifier","response","repeated","rt","trial"
"1",1,21,"Experimental",1,1,4,1,3.649,702
"2",1,48,"Experimental",1,1,2,1,1.297,703
"3",1,34,"Experimental",1,1,5,1,1.189,704
"4",1,108,"Experimental",1,1,3,0,1.196,705
"5",1,67,"Experimental",1,1,2,1,1.742,706
"6",1,51,"Experimental",1,1,5,1,0.794,707
"7",1,132,"Experimental",1,1,5,0,0.802,708
"8",1,75,"Experimental",1,1,4,1,1.42,709
"9",1,101,"Experimental",1,1,5,0,1.672,710
"10",1,40,"Experimental",1,1,2,1,2.727,711
"11",1,43,"Experimental",1,1,4,1,1.439,712
"12",1,113,"Experimental",1,1,4,0,1.528,713
"13",1,86,"Experimental",1,1,3,1,1.09,714
"14",1,121,"Experimental",1,1,5,0,1.479,715
"15",1,131,"Experimental",1,1,5,0,0.984,716
"16",1,128,"Experimental",1,1,2,0,1.031,717
"17",1,81,"Experimental",1,1,3,1,1.351,718
"18",1,110,"Experimental",1,1,5,0,0.982,719
"19",1,103,"Experimental",1,1,6,0,1.037,720
"20",1,106,"Experimental",1,1,4,0,2.944,721
"21",1,46,"Experimental",1,1,5,1,1.291,722
"22",1,29,"Experimental",1,1,3,1,0.823,723
"23",1,31,"Experimental",1,1,5,1,1.111,724
"24",1,107,"Experimental",1,1,4,0,0.678,725
"25",1,20,"Experimental",1,1,6,1,0.96,726
"26",1,41,"Experimental",1,1,4,1,1.554,727
"27",1,74,"Experimental",1,1,5,1,0.977,728
"28",1,126,"Experimental",1,1,3,0,1.533,729
"29",1,105,"Experimental",1,1,5,0,1.666,730
"30",1,2,"Experimental",1,1,2,1,0.96,731
"31",1,10,"Experimental",1,1,4,1,1.41,732
"32",1,98,"Experimental",1,1,5,0,0.727,733
"33",1,115,"Experimental",1,1,6,0,0.865,734
"34",1,54,"Experimental",1,1,4,1,1.16,735
"35",1,82,"Experimental",1,1,5,1,1.746,736
"36",1,129,"Experimental",1,1,5,0,1.673,737
"37",1,9,"Experimental",1,1,2,1,1.023,738
"38",1,84,"Experimental",1,1,3,1,1.487,739
"39",1,38,"Experimental",1,1,4,1,0.896,740
"40",1,123,"Experimental",1,1,3,0,1.621,741
"41",1,89,"Experimental",1,1,3,0,0.609,742
"42",1,116,"Experimental",1,1,4,0,1.894,743
"43",1,90,"Experimental",1,1,2,0,1.626,744
"44",1,80,"Experimental",1,1,4,1,1.457,745
"45",1,97,"Experimental",1,1,4,0,1.71,746
"46",1,100,"Experimental",1,1,4,0,2.116,747
"47",1,93,"Experimental",1,1,2,0,1.619,748
"48",1,111,"Experimental",1,1,5,0,1.855,749
"49",1,130,"Experimental",1,1,5,0,1.714,750
"50",1,27,"Experimental",1,1,5,1,1.377,751
"51",1,118,"Experimental",1,1,3,0,1.301,752
"52",1,73,"Experimental",1,1,2,1,1.546,753
"53",1,17,"Experimental",1,1,4,1,1.337,754
"54",1,26,"Experimental",1,1,4,1,1.741,755
"55",1,94,"Experimental",1,1,4,0,1.473,756
"56",1,109,"Experimental",1,1,2,0,1.993,757
"57",1,60,"Experimental",1,1,5,1,0.951,758
"58",1,112,"Experimental",1,1,3,0,2.094,759
"59",1,61,"Experimental",1,1,5,1,1.73,760
"60",1,64,"Experimental",1,1,4,1,3.294,761
"61",1,102,"Experimental",1,1,2,0,2.064,762
"62",1,65,"Experimental",1,1,5,1,1.487,763
"63",1,72,"Experimental",1,1,6,1,1.689,764
"64",1,125,"Experimental",1,1,2,0,2.939,765
"65",1,33,"Experimental",1,1,4,1,2.589,766
"66",1,114,"Experimental",1,1,3,0,1.811,767
"67",1,99,"Experimental",1,1,3,0,1.967,768
"68",1,42,"Experimental",1,1,5,1,1.616,769
"69",1,14,"Experimental",1,1,5,1,1.86,770
"70",1,95,"Experimental",1,1,3,0,5.057,771
"71",1,23,"Experimental",1,1,2,1,2.666,772
"72",1,124,"Experimental",1,1,3,0,2.136,773
"73",1,96,"Experimental",1,1,5,0,1.443,774
"74",1,83,"Experimental",1,1,4,1,2.134,775
"75",1,35,"Experimental",1,1,6,1,1.329,776
"76",1,122,"Experimental",1,1,4,0,1.47,777
"77",1,88,"Experimental",1,1,4,1,1.565,778
"78",1,45,"Experimental",1,1,1,1,1.63,779
"79",1,92,"Experimental",1,1,3,0,1.565,780
"80",1,104,"Experimental",1,1,2,0,1.55,781
"81",1,120,"Experimental",1,1,2,0,1.661,782
"82",1,119,"Experimental",1,1,3,0,0.873,783
"83",1,25,"Experimental",1,1,6,1,1.792,784
"84",1,91,"Experimental",1,1,2,0,2.111,785
"85",1,77,"Experimental",1,1,4,1,1.517,786
"86",1,49,"Experimental",1,1,2,1,1.856,787
"87",1,127,"Experimental",1,1,2,0,1.66,788
"88",1,117,"Experimental",1,1,2,0,2.064,789
"89",10,166,"Control",1,1,3,0,1.132,702
"90",10,71,"Control",1,1,3,1,0.648,703
"91",10,171,"Control",1,1,3,0,0.957,704
"92",10,16,"Control",1,1,3,1,0.671,705
"93",10,30,"Control",1,1,4,1,0.679,706
"94",10,144,"Control",1,1,4,0,0.697,707
"95",10,68,"Control",1,1,3,1,0.638,708
"96",10,159,"Control",1,1,4,0,0.48,709
"97",10,58,"Control",1,1,4,1,0.491,710
"98",10,148,"Control",1,1,3,0,0.752,711
"99",10,170,"Control",1,1,3,0,0.759,712
"100",10,78,"Control",1,1,3,1,0.53,713
"101",10,142,"Control",1,1,3,0,2.727,714
"102",10,1,"Control",1,1,4,1,0.455,715
"103",10,176,"Control",1,1,3,0,0.54,716
"104",10,175,"Control",1,1,4,0,0.433,717
"105",10,173,"Control",1,1,3,0,0.513,718
"106",10,143,"Control",1,1,3,0,0.705,719
"107",10,158,"Control",1,1,4,0,1.664,720
"108",10,19,"Control",1,1,2,1,0.807,721
"109",10,146,"Control",1,1,4,0,1.281,722
"110",10,140,"Control",1,1,2,0,0.795,723
"111",10,62,"Control",1,1,3,1,0.522,724
"112",10,153,"Control",1,1,2,0,0.877,725
"113",10,147,"Control",1,1,4,0,0.399,726
"114",10,163,"Control",1,1,4,0,0.433,727
"115",10,36,"Control",1,1,3,1,0.488,728
"116",10,139,"Control",1,1,2,0,0.597,729
"117",10,57,"Control",1,1,4,1,0.6,730
"118",10,169,"Control",1,1,4,0,0.674,731
"119",10,165,"Control",1,1,4,0,0.617,732
"120",10,161,"Control",1,1,2,0,0.606,733
"121",10,134,"Control",1,1,4,0,0.481,734
"122",10,5,"Control",1,1,3,1,0.515,735
"123",10,133,"Control",1,1,3,0,0.685,736
"124",10,167,"Control",1,1,3,0,0.584,737
"125",10,168,"Control",1,1,3,0,0.575,738
"126",10,15,"Control",1,1,3,1,0.42,739
"127",10,59,"Control",1,1,3,1,0.434,740
"128",10,50,"Control",1,1,3,1,0.433,741
"129",10,154,"Control",1,1,4,0,0.497,742
"130",10,8,"Control",1,1,3,1,0.59,743
"131",10,7,"Control",1,1,3,1,0.446,744
"132",10,79,"Control",1,1,3,1,0.489,745
"133",10,32,"Control",1,1,3,1,0.541,746
"134",10,151,"Control",1,1,4,0,1.05,747
"135",10,138,"Control",1,1,4,0,0.614,748
"136",10,162,"Control",1,1,2,0,2.299,749
"137",10,164,"Control",1,1,4,0,0.823,750
"138",10,13,"Control",1,1,4,1,0.502,751
"139",10,76,"Control",1,1,3,1,0.67,752
"140",10,150,"Control",1,1,3,0,0.662,753
"141",10,157,"Control",1,1,3,0,1.077,754
"142",10,4,"Control",1,1,3,1,0.455,755
"143",10,22,"Control",1,1,3,1,0.492,756
"144",10,47,"Control",1,1,3,1,0.473,757
"145",10,152,"Control",1,1,3,0,0.539,758
"146",10,28,"Control",1,1,3,1,0.584,759
"147",10,56,"Control",1,1,2,1,0.752,760
"148",10,3,"Control",1,1,5,1,0.704,761
"149",10,149,"Control",1,1,4,0,0.719,762
"150",10,156,"Control",1,1,3,0,0.713,763
"151",10,136,"Control",1,1,4,0,0.529,764
"152",10,160,"Control",1,1,3,0,0.574,765
"153",10,53,"Control",1,1,5,1,0.667,766
"154",10,69,"Control",1,1,4,1,0.451,767
"155",10,55,"Control",1,1,3,1,0.616,768
"156",10,44,"Control",1,1,3,1,0.565,769
"157",10,12,"Control",1,1,3,1,0.767,770
"158",10,18,"Control",1,1,3,1,0.641,771
"159",10,70,"Control",1,1,3,1,0.58,772
"160",10,66,"Control",1,1,3,1,0.569,773
"161",10,174,"Control",1,1,4,0,0.525,774
"162",10,85,"Control",1,1,4,1,0.663,775
"163",10,37,"Control",1,1,2,1,1.128,776
"164",10,11,"Control",1,1,3,1,0.545,777
"165",10,6,"Control",1,1,4,1,0.536,778
"166",10,87,"Control",1,1,3,1,0.574,779
"167",10,52,"Control",1,1,4,1,0.995,780
"168",10,155,"Control",1,1,3,0,0.658,781
"169",10,135,"Control",1,1,3,0,0.495,782
"170",10,141,"Control",1,1,4,0,0.676,783
"171",10,24,"Control",1,1,4,1,0.502,784
"172",10,137,"Control",1,1,3,0,0.486,785
"173",10,63,"Control",1,1,3,1,0.68,786
"174",10,39,"Control",1,1,4,1,0.587,787
"175",10,172,"Control",1,1,3,0,0.946,788
"176",10,145,"Control",1,1,4,0,1.082,789
"177",11,128,"Control",1,1,4,1,1.499,702
"178",11,113,"Control",1,1,3,1,0.768,703
"179",11,115,"Control",1,1,2,1,0.706,704
"180",11,9,"Control",1,1,4,0,0.873,705
"181",11,86,"Control",1,1,3,0,0.817,706
"182",11,83,"Control",1,1,4,0,0.638,707
"183",11,2,"Control",1,1,4,0,0.712,708
"184",11,89,"Control",1,1,3,1,0.448,709
"185",11,97,"Control",1,1,3,1,0.458,710
"186",11,29,"Control",1,1,4,0,0.695,711
"187",11,105,"Control",1,1,3,1,0.476,712
"188",11,119,"Control",1,1,4,1,0.671,713
"189",11,101,"Control",1,1,3,1,0.734,714
"190",11,91,"Control",1,1,4,1,0.411,715
"191",11,31,"Control",1,1,3,0,0.816,716
"192",11,114,"Control",1,1,3,1,0.477,717
"193",11,129,"Control",1,1,4,1,0.904,718
"194",11,100,"Control",1,1,3,1,0.423,719
"195",11,116,"Control",1,1,4,1,0.55,720
"196",11,21,"Control",1,1,4,0,0.581,721
"197",11,108,"Control",1,1,4,1,0.493,722
"198",11,88,"Control",1,1,4,0,0.45,723
"199",11,27,"Control",1,1,4,0,0.511,724
"200",11,127,"Control",1,1,4,1,0.535,725
"201",11,72,"Control",1,1,3,0,0.58,726
"202",11,77,"Control",1,1,3,0,0.529,727
"203",11,61,"Control",1,1,4,0,2.414,728
"204",11,51,"Control",1,1,4,0,0.466,729
"205",11,20,"Control",1,1,3,0,0.601,730
"206",11,82,"Control",1,1,3,0,0.337,731
"207",11,10,"Control",1,1,4,0,0.582,732
"208",11,96,"Control",1,1,3,1,0.71,733
"209",11,109,"Control",1,1,4,1,0.701,734
"210",11,33,"Control",1,1,4,0,0.626,735
"211",11,34,"Control",1,1,4,0,0.85,736
"212",11,26,"Control",1,1,3,0,0.487,737
"213",11,65,"Control",1,1,3,0,0.929,738
"214",11,111,"Control",1,1,2,1,1.51,739
"215",11,54,"Control",1,1,5,0,0.581,740
"216",11,81,"Control",1,1,3,0,0.73,741
"217",11,95,"Control",1,1,3,1,0.55,742
"218",11,41,"Control",1,1,3,0,1.534,743
"219",11,46,"Control",1,1,1,0,0.778,744
"220",11,98,"Control",1,1,2,1,0.615,745
"221",11,126,"Control",1,1,1,1,0.996,746
"222",11,118,"Control",1,1,3,1,2.086,747
"223",11,43,"Control",1,1,4,0,1.879,748
"224",11,117,"Control",1,1,4,1,0.512,749
"225",11,122,"Control",1,1,4,1,0.784,750
"226",11,102,"Control",1,1,4,1,0.399,751
"227",11,132,"Control",1,1,3,1,0.466,752
"228",11,112,"Control",1,1,4,1,1.45,753
"229",11,93,"Control",1,1,1,1,0.646,754
"230",11,84,"Control",1,1,5,0,0.656,755
"231",11,23,"Control",1,1,4,0,0.589,756
"232",11,130,"Control",1,1,3,1,0.853,757
"233",11,90,"Control",1,1,1,1,0.778,758
"234",11,45,"Control",1,1,4,0,1.119,759
"235",11,106,"Control",1,1,4,1,0.432,760
"236",11,42,"Control",1,1,4,0,0.688,761
"237",11,120,"Control",1,1,3,1,0.603,762
"238",11,99,"Control",1,1,4,1,0.572,763
"239",11,60,"Control",1,1,4,0,0.978,764
"240",11,131,"Control",1,1,4,1,2.031,765
"241",11,64,"Control",1,1,4,0,0.589,766
"242",11,49,"Control",1,1,3,0,1.701,767
"243",11,104,"Control",1,1,4,1,0.369,768
"244",11,35,"Control",1,1,4,0,0.502,769
"245",11,25,"Control",1,1,4,0,0.685,770
"246",11,38,"Control",1,1,4,0,0.415,771
"247",11,48,"Control",1,1,4,0,0.548,772
"248",11,67,"Control",1,1,3,0,0.724,773
"249",11,14,"Control",1,1,3,0,1.438,774
"250",11,124,"Control",1,1,4,1,0.416,775
"251",11,123,"Control",1,1,3,1,0.317,776
"252",11,40,"Control",1,1,4,0,0.815,777
"253",11,103,"Control",1,1,3,1,1.116,778
"254",11,73,"Control",1,1,4,0,1.55,779
"255",11,80,"Control",1,1,4,0,0.293,780
"256",11,125,"Control",1,1,4,1,0.45,781
"257",11,17,"Control",1,1,4,0,0.879,782
"258",11,92,"Control",1,1,3,1,0.561,783
"259",11,110,"Control",1,1,3,1,0.492,784
"260",11,94,"Control",1,1,3,1,0.441,785
"261",11,107,"Control",1,1,4,1,0.603,786
"262",11,121,"Control",1,1,3,1,0.59,787
"263",11,74,"Control",1,1,3,0,0.997,788
"264",11,75,"Control",1,1,4,0,1.247,789
"265",12,122,"Control",1,1,5,1,0.711,702
"266",12,100,"Control",1,1,4,1,0.495,703
"267",12,119,"Control",1,1,3,1,0.724,704
"268",12,89,"Control",1,1,2,1,2.486,705
"269",12,53,"Control",1,1,4,0,2.446,706
"270",12,117,"Control",1,1,4,1,0.503,707
"271",12,70,"Control",1,1,2,0,1.207,708
"272",12,11,"Control",1,1,4,0,0.913,709
"273",12,58,"Control",1,1,4,0,0.568,710
"274",12,66,"Control",1,1,5,0,0.533,711
"275",12,16,"Control",1,1,3,0,0.53,712
"276",12,91,"Control",1,1,5,1,0.719,713
"277",12,113,"Control",1,1,3,1,0.641,714
"278",12,115,"Control",1,1,2,1,0.916,715
"279",12,30,"Control",1,1,6,0,0.686,716
"280",12,62,"Control",1,1,2,0,0.744,717
"281",12,71,"Control",1,1,4,0,0.56,718
"282",12,37,"Control",1,1,4,0,0.762,719
"283",12,12,"Control",1,1,3,0,0.492,720
"284",12,99,"Control",1,1,3,1,0.553,721
"285",12,110,"Control",1,1,4,1,0.833,722
"286",12,8,"Control",1,1,1,0,0.855,723
"287",12,131,"Control",1,1,4,1,0.444,724
"288",12,63,"Control",1,1,5,0,1.688,725
"289",12,1,"Control",1,1,3,0,0.697,726
"290",12,19,"Control",1,1,3,0,1.99,727
"291",12,55,"Control",1,1,4,0,1.604,728
"292",12,121,"Control",1,1,6,1,1.046,729
"293",12,118,"Control",1,1,4,1,0.576,730
"294",12,120,"Control",1,1,2,1,0.661,731
"295",12,126,"Control",1,1,4,1,2.466,732
"296",12,13,"Control",1,1,4,0,0.736,733
"297",12,123,"Control",1,1,4,1,0.469,734
"298",12,112,"Control",1,1,3,1,0.508,735
"299",12,98,"Control",1,1,2,1,0.596,736
"300",12,125,"Control",1,1,1,1,0.686,737
"301",12,24,"Control",1,1,3,0,0.601,738
"302",12,56,"Control",1,1,3,0,1.043,739
"303",12,102,"Control",1,1,6,1,0.797,740
"304",12,130,"Control",1,1,4,1,0.758,741
"305",12,128,"Control",1,1,4,1,0.512,742
"306",12,50,"Control",1,1,4,0,2.249,743
"307",12,129,"Control",1,1,4,1,0.802,744
"308",12,116,"Control",1,1,3,1,0.539,745
"309",12,6,"Control",1,1,1,0,0.784,746
"310",12,90,"Control",1,1,2,1,1.821,747
"311",12,124,"Control",1,1,3,1,0.513,748
"312",12,22,"Control",1,1,1,0,0.832,749
"313",12,69,"Control",1,1,2,0,0.792,750
"314",12,28,"Control",1,1,3,0,0.599,751
"315",12,106,"Control",1,1,2,1,0.738,752
"316",12,76,"Control",1,1,4,0,2.407,753
"317",12,132,"Control",1,1,4,1,0.511,754
"318",12,4,"Control",1,1,1,0,1.111,755
"319",12,85,"Control",1,1,3,0,0.814,756
"320",12,127,"Control",1,1,4,1,0.579,757
"321",12,52,"Control",1,1,3,0,1.624,758
"322",12,101,"Control",1,1,2,1,0.623,759
"323",12,15,"Control",1,1,4,0,0.558,760
"324",12,79,"Control",1,1,4,0,0.321,761
"325",12,68,"Control",1,1,3,0,0.466,762
"326",12,105,"Control",1,1,3,1,0.498,763
"327",12,104,"Control",1,1,4,1,0.503,764
"328",12,95,"Control",1,1,4,1,0.479,765
"329",12,18,"Control",1,1,4,0,0.649,766
"330",12,39,"Control",1,1,4,0,3.199,767
"331",12,103,"Control",1,1,4,1,0.575,768
"332",12,7,"Control",1,1,4,0,0.476,769
"333",12,44,"Control",1,1,4,0,0.646,770
"334",12,96,"Control",1,1,3,1,0.52,771
"335",12,107,"Control",1,1,4,1,0.995,772
"336",12,97,"Control",1,1,2,1,0.538,773
"337",12,3,"Control",1,1,2,0,0.535,774
"338",12,93,"Control",1,1,1,1,0.684,775
"339",12,36,"Control",1,1,4,0,2.894,776
"340",12,94,"Control",1,1,4,1,0.681,777
"341",12,5,"Control",1,1,5,0,1.163,778
"342",12,78,"Control",1,1,3,0,0.621,779
"343",12,109,"Control",1,1,3,1,0.541,780
"344",12,32,"Control",1,1,6,0,0.722,781
"345",12,57,"Control",1,1,3,0,0.5,782
"346",12,87,"Control",1,1,4,0,0.649,783
"347",12,92,"Control",1,1,4,1,0.574,784
"348",12,47,"Control",1,1,3,0,1.403,785
"349",12,59,"Control",1,1,3,0,1.229,786
"350",12,108,"Control",1,1,3,1,0.452,787
"351",12,114,"Control",1,1,4,1,0.529,788
"352",12,111,"Control",1,1,2,1,0.563,789
"353",13,154,"Control",1,1,3,1,2.73,702
"354",13,165,"Control",1,1,3,1,0.725,703
"355",13,162,"Control",1,1,5,1,0.936,704
"356",13,159,"Control",1,1,4,1,0.564,705
"357",13,38,"Control",1,1,2,0,1.239,706
"358",13,64,"Control",1,1,4,0,0.568,707
"359",13,54,"Control",1,1,3,0,1.909,708
"360",13,65,"Control",1,1,5,0,0.868,709
"361",13,142,"Control",1,1,1,1,3.083,710
"362",13,133,"Control",1,1,2,1,1.092,711
"363",13,153,"Control",1,1,1,1,1.833,712
"364",13,150,"Control",1,1,3,1,0.983,713
"365",13,9,"Control",1,1,2,0,1.103,714
"366",13,163,"Control",1,1,2,1,1.15,715
"367",13,72,"Control",1,1,2,0,0.741,716
"368",13,145,"Control",1,1,1,1,0.93,717
"369",13,34,"Control",1,1,4,0,0.543,718
"370",13,25,"Control",1,1,5,0,0.622,719
"371",13,158,"Control",1,1,2,1,1.326,720
"372",13,176,"Control",1,1,5,1,0.744,721
"373",13,134,"Control",1,1,5,1,1.951,722
"374",13,48,"Control",1,1,1,0,0.854,723
"375",13,23,"Control",1,1,1,0,0.954,724
"376",13,138,"Control",1,1,2,1,0.698,725
"377",13,81,"Control",1,1,2,0,1.031,726
"378",13,175,"Control",1,1,5,1,1.006,727
"379",13,160,"Control",1,1,3,1,0.904,728
"380",13,155,"Control",1,1,3,1,3.655,729
"381",13,26,"Control",1,1,4,0,1.106,730
"382",13,21,"Control",1,1,5,0,0.833,731
"383",13,42,"Control",1,1,5,0,1.093,732
"384",13,174,"Control",1,1,2,1,1.321,733
"385",13,29,"Control",1,1,5,0,1.299,734
"386",13,157,"Control",1,1,1,1,1.775,735
"387",13,86,"Control",1,1,2,0,1.571,736
"388",13,67,"Control",1,1,5,0,0.983,737
"389",13,41,"Control",1,1,2,0,1.119,738
"390",13,147,"Control",1,1,2,1,1.161,739
"391",13,152,"Control",1,1,2,1,0.938,740
"392",13,161,"Control",1,1,5,1,2,741
"393",13,75,"Control",1,1,4,0,0.713,742
"394",13,77,"Control",1,1,3,0,0.623,743
"395",13,136,"Control",1,1,3,1,1.59,744
"396",13,137,"Control",1,1,3,1,3.749,745
"397",13,31,"Control",1,1,2,0,1.186,746
"398",13,144,"Control",1,1,4,1,4.018,747
"399",13,73,"Control",1,1,6,0,0.716,748
"400",13,139,"Control",1,1,3,1,0.886,749
"401",13,27,"Control",1,1,5,0,0.696,750
"402",13,80,"Control",1,1,4,0,0.805,751
"403",13,60,"Control",1,1,3,0,0.727,752
"404",13,172,"Control",1,1,5,1,2.377,753
"405",13,45,"Control",1,1,4,0,1.501,754
"406",13,84,"Control",1,1,5,0,0.729,755
"407",13,17,"Control",1,1,4,0,2.742,756
"408",13,33,"Control",1,1,2,0,3.761,757
"409",13,46,"Control",1,1,5,0,1.464,758
"410",13,143,"Control",1,1,4,1,1.12,759
"411",13,61,"Control",1,1,2,0,2.538,760
"412",13,88,"Control",1,1,4,0,1.589,761
"413",13,140,"Control",1,1,3,1,0.588,762
"414",13,168,"Control",1,1,3,1,1.3,763
"415",13,149,"Control",1,1,4,1,1.136,764
"416",13,49,"Control",1,1,4,0,0.956,765
"417",13,2,"Control",1,1,1,0,0.734,766
"418",13,82,"Control",1,1,4,0,3.907,767
"419",13,146,"Control",1,1,6,1,0.776,768
"420",13,167,"Control",1,1,5,1,2.821,769
"421",13,51,"Control",1,1,5,0,1.232,770
"422",13,148,"Control",1,1,2,1,3.504,771
"423",13,20,"Control",1,1,2,0,1.338,772
"424",13,83,"Control",1,1,4,0,0.942,773
"425",13,171,"Control",1,1,3,1,1.022,774
"426",13,10,"Control",1,1,4,0,0.882,775
"427",13,173,"Control",1,1,4,1,0.484,776
"428",13,135,"Control",1,1,2,1,0.759,777
"429",13,74,"Control",1,1,2,0,0.489,778
"430",13,166,"Control",1,1,1,1,0.718,779
"431",13,43,"Control",1,1,5,0,1.24,780
"432",13,141,"Control",1,1,3,1,1.194,781
"433",13,156,"Control",1,1,4,1,0.881,782
"434",13,170,"Control",1,1,3,1,3.299,783
"435",13,164,"Control",1,1,5,1,2.454,784
"436",13,169,"Control",1,1,2,1,0.729,785
"437",13,35,"Control",1,1,2,0,5.007,786
"438",13,151,"Control",1,1,5,1,0.869,787
"439",13,40,"Control",1,1,5,0,0.797,788
"440",13,14,"Control",1,1,2,0,0.427,789
"441",14,175,"Experimental",1,1,2,1,4.466,702
"442",14,20,"Experimental",1,1,4,0,1.366,703
"443",14,31,"Experimental",1,1,5,0,1.807,704
"444",14,40,"Experimental",1,1,3,0,1.056,705
"445",14,84,"Experimental",1,1,3,0,1.365,706
"446",14,72,"Experimental",1,1,4,0,0.695,707
"447",14,143,"Experimental",1,1,4,1,0.524,708
"448",14,160,"Experimental",1,1,5,1,0.79,709
"449",14,141,"Experimental",1,1,4,1,0.941,710
"450",14,88,"Experimental",1,1,5,0,0.746,711
"451",14,165,"Experimental",1,1,5,1,1.281,712
"452",14,158,"Experimental",1,1,2,1,1.123,713
"453",14,171,"Experimental",1,1,4,1,0.941,714
"454",14,27,"Experimental",1,1,3,0,1.161,715
"455",14,29,"Experimental",1,1,5,0,1.003,716
"456",14,176,"Experimental",1,1,3,1,0.789,717
"457",14,74,"Experimental",1,1,3,0,0.581,718
"458",14,82,"Experimental",1,1,4,0,0.572,719
"459",14,65,"Experimental",1,1,5,0,1.393,720
"460",14,170,"Experimental",1,1,4,1,0.552,721
"461",14,86,"Experimental",1,1,6,0,0.68,722
"462",14,67,"Experimental",1,1,4,0,2.442,723
"463",14,51,"Experimental",1,1,2,0,0.93,724
"464",14,140,"Experimental",1,1,5,1,0.863,725
"465",14,145,"Experimental",1,1,1,1,1.031,726
"466",14,75,"Experimental",1,1,4,0,0.726,727
"467",14,45,"Experimental",1,1,4,0,0.776,728
"468",14,133,"Experimental",1,1,4,1,0.557,729
"469",14,162,"Experimental",1,1,5,1,0.967,730
"470",14,173,"Experimental",1,1,2,1,0.953,731
"471",14,157,"Experimental",1,1,2,1,0.865,732
"472",14,64,"Experimental",1,1,5,0,0.784,733
"473",14,35,"Experimental",1,1,5,0,0.784,734
"474",14,43,"Experimental",1,1,3,0,0.847,735
"475",14,167,"Experimental",1,1,5,1,0.745,736
"476",14,139,"Experimental",1,1,4,1,0.881,737
"477",14,42,"Experimental",1,1,5,0,0.403,738
"478",14,174,"Experimental",1,1,4,1,0.533,739
"479",14,137,"Experimental",1,1,2,1,1.49,740
"480",14,166,"Experimental",1,1,6,1,1.783,741
"481",14,155,"Experimental",1,1,4,1,0.653,742
"482",14,34,"Experimental",1,1,5,0,0.818,743
"483",14,81,"Experimental",1,1,5,0,0.743,744
"484",14,77,"Experimental",1,1,4,0,0.494,745
"485",14,25,"Experimental",1,1,3,0,0.828,746
"486",14,14,"Experimental",1,1,4,0,0.787,747
"487",14,156,"Experimental",1,1,5,1,1.371,748
"488",14,169,"Experimental",1,1,4,1,1.199,749
"489",14,80,"Experimental",1,1,5,0,1.321,750
"490",14,149,"Experimental",1,1,5,1,0.97,751
"491",14,33,"Experimental",1,1,5,0,0.881,752
"492",14,159,"Experimental",1,1,6,1,0.835,753
"493",14,146,"Experimental",1,1,4,1,0.581,754
"494",14,168,"Experimental",1,1,5,1,0.626,755
"495",14,136,"Experimental",1,1,5,1,0.546,756
"496",14,23,"Experimental",1,1,6,0,0.954,757
"497",14,152,"Experimental",1,1,5,1,0.849,758
"498",14,21,"Experimental",1,1,1,0,1.254,759
"499",14,135,"Experimental",1,1,3,1,2.538,760
"500",14,83,"Experimental",1,1,5,0,0.589,761
"501",14,154,"Experimental",1,1,4,1,4.061,762
"502",14,26,"Experimental",1,1,3,0,0.572,763
"503",14,9,"Experimental",1,1,4,0,0.448,764
"504",14,172,"Experimental",1,1,4,1,0.534,765
"505",14,41,"Experimental",1,1,4,0,1.604,766
"506",14,73,"Experimental",1,1,5,0,0.636,767
"507",14,134,"Experimental",1,1,3,1,0.518,768
"508",14,61,"Experimental",1,1,4,0,1.738,769
"509",14,163,"Experimental",1,1,4,1,0.893,770
"510",14,46,"Experimental",1,1,2,0,1.722,771
"511",14,48,"Experimental",1,1,4,0,0.499,772
"512",14,2,"Experimental",1,1,5,0,0.64,773
"513",14,38,"Experimental",1,1,5,0,0.586,774
"514",14,142,"Experimental",1,1,5,1,0.962,775
"515",14,60,"Experimental",1,1,4,0,0.94,776
"516",14,147,"Experimental",1,1,3,1,0.641,777
"517",14,49,"Experimental",1,1,3,0,1.131,778
"518",14,161,"Experimental",1,1,5,1,0.671,779
"519",14,144,"Experimental",1,1,6,1,1.031,780
"520",14,17,"Experimental",1,1,3,0,3.359,781
"521",14,54,"Experimental",1,1,3,0,2.303,782
"522",14,148,"Experimental",1,1,2,1,0.722,783
"523",14,153,"Experimental",1,1,3,1,1.853,784
"524",14,150,"Experimental",1,1,6,1,1.145,785
"525",14,151,"Experimental",1,1,5,1,0.56,786
"526",14,10,"Experimental",1,1,4,0,1.394,787
"527",14,138,"Experimental",1,1,2,1,0.985,788
"528",14,164,"Experimental",1,1,5,1,2.296,789
"529",15,63,"Experimental",1,1,4,0,3.764,702
"530",15,165,"Experimental",1,1,4,1,2.707,703
"531",15,37,"Experimental",1,1,3,0,1.305,704
"532",15,155,"Experimental",1,1,4,1,4.137,705
"533",15,136,"Experimental",1,1,3,1,1.186,706
"534",15,69,"Experimental",1,1,3,0,4.402,707
"535",15,158,"Experimental",1,1,4,1,1.048,708
"536",15,87,"Experimental",1,1,3,0,1.869,709
"537",15,143,"Experimental",1,1,3,1,1.82,710
"538",15,8,"Experimental",1,1,4,0,0.815,711
"539",15,76,"Experimental",1,1,3,0,2.757,712
"540",15,68,"Experimental",1,1,3,0,1.069,713
"541",15,52,"Experimental",1,1,3,0,3.549,714
"542",15,16,"Experimental",1,1,3,0,1.754,715
"543",15,28,"Experimental",1,1,4,0,1.88,716
"544",15,7,"Experimental",1,1,4,0,1.921,717
"545",15,18,"Experimental",1,1,3,0,0.994,718
"546",15,78,"Experimental",1,1,3,0,0.69,719
"547",15,56,"Experimental",1,1,3,0,1.239,720
"548",15,173,"Experimental",1,1,3,1,1.024,721
"549",15,159,"Experimental",1,1,3,1,0.928,722
"550",15,150,"Experimental",1,1,4,1,1.122,723
"551",15,5,"Experimental",1,1,3,0,1.1,724
"552",15,163,"Experimental",1,1,5,1,0.896,725
"553",15,164,"Experimental",1,1,3,1,1.198,726
"554",15,57,"Experimental",1,1,3,0,0.623,727
"555",15,139,"Experimental",1,1,3,1,1.278,728
"556",15,4,"Experimental",1,1,3,0,0.728,729
"557",15,160,"Experimental",1,1,3,1,0.878,730
"558",15,147,"Experimental",1,1,3,1,0.703,731
"559",15,12,"Experimental",1,1,4,0,0.951,732
"560",15,79,"Experimental",1,1,1,0,1.11,733
"561",15,140,"Experimental",1,1,5,1,0.781,734
"562",15,153,"Experimental",1,1,3,1,7.038,735
"563",15,70,"Experimental",1,1,3,0,0.783,736
"564",15,50,"Experimental",1,1,4,0,1.135,737
"565",15,174,"Experimental",1,1,4,1,1.147,738
"566",15,156,"Experimental",1,1,3,1,1.035,739
"567",15,138,"Experimental",1,1,3,1,1.05,740
"568",15,168,"Experimental",1,1,5,1,0.638,741
"569",15,144,"Experimental",1,1,6,1,1.209,742
"570",15,154,"Experimental",1,1,3,1,1.565,743
"571",15,161,"Experimental",1,1,4,1,0.815,744
"572",15,134,"Experimental",1,1,4,1,0.445,745
"573",15,171,"Experimental",1,1,2,1,1.096,746
"574",15,11,"Experimental",1,1,3,0,1.309,747
"575",15,71,"Experimental",1,1,4,0,1.052,748
"576",15,167,"Experimental",1,1,3,1,0.68,749
"577",15,170,"Experimental",1,1,4,1,1.051,750
"578",15,1,"Experimental",1,1,6,0,0.879,751
"579",15,58,"Experimental",1,1,4,0,0.689,752
"580",15,3,"Experimental",1,1,4,0,0.774,753
"581",15,62,"Experimental",1,1,4,0,0.955,754
"582",15,151,"Experimental",1,1,4,1,1.589,755
"583",15,152,"Experimental",1,1,3,1,5.029,756
"584",15,6,"Experimental",1,1,2,0,4.384,757
"585",15,172,"Experimental",1,1,4,1,0.978,758
"586",15,133,"Experimental",1,1,4,1,0.886,759
"587",15,44,"Experimental",1,1,3,0,3.106,760
"588",15,145,"Experimental",1,1,3,1,1.743,761
"589",15,157,"Experimental",1,1,1,1,1.054,762
"590",15,66,"Experimental",1,1,3,0,0.93,763
"591",15,13,"Experimental",1,1,4,0,1.679,764
"592",15,137,"Experimental",1,1,4,1,1.448,765
"593",15,36,"Experimental",1,1,5,0,1.034,766
"594",15,32,"Experimental",1,1,5,0,0.841,767
"595",15,15,"Experimental",1,1,4,0,2.299,768
"596",15,162,"Experimental",1,1,5,1,1.166,769
"597",15,30,"Experimental",1,1,6,0,0.656,770
"598",15,135,"Experimental",1,1,3,1,1.181,771
"599",15,24,"Experimental",1,1,2,0,1.05,772
"600",15,85,"Experimental",1,1,4,0,1.87,773
"601",15,146,"Experimental",1,1,4,1,1.653,774
"602",15,55,"Experimental",1,1,6,0,0.985,775
"603",15,166,"Experimental",1,1,5,1,1.12,776
"604",15,142,"Experimental",1,1,3,1,2.707,777
"605",15,59,"Experimental",1,1,5,0,0.816,778
"606",15,148,"Experimental",1,1,3,1,2.246,779
"607",15,175,"Experimental",1,1,3,1,0.926,780
"608",15,169,"Experimental",1,1,3,1,0.584,781
"609",15,19,"Experimental",1,1,3,0,0.968,782
"610",15,39,"Experimental",1,1,3,0,0.874,783
"611",15,141,"Experimental",1,1,3,1,0.703,784
"612",15,47,"Experimental",1,1,3,0,3.406,785
"613",15,149,"Experimental",1,1,4,1,0.918,786
"614",15,53,"Experimental",1,1,3,0,1.008,787
"615",15,22,"Experimental",1,1,3,0,0.93,788
"616",15,176,"Experimental",1,1,3,1,0.791,789
"617",16,5,"Control",1,1,4,0,1.314,702
"618",16,159,"Control",1,1,5,1,0.905,703
"619",16,172,"Control",1,1,4,1,0.529,704
"620",16,138,"Control",1,1,2,1,1.307,705
"621",16,158,"Control",1,1,5,1,0.65,706
"622",16,52,"Control",1,1,4,0,1.159,707
"623",16,79,"Control",1,1,5,0,1.569,708
"624",16,156,"Control",1,1,5,1,0.682,709
"625",16,157,"Control",1,1,5,1,1.572,710
"626",16,136,"Control",1,1,2,1,0.625,711
"627",16,176,"Control",1,1,3,1,0.512,712
"628",16,143,"Control",1,1,2,1,1.288,713
"629",16,133,"Control",1,1,3,1,0.466,714
"630",16,69,"Control",1,1,4,0,1.409,715
"631",16,12,"Control",1,1,5,0,1.414,716
"632",16,165,"Control",1,1,2,1,1.49,717
"633",16,166,"Control",1,1,5,1,0.414,718
"634",16,142,"Control",1,1,2,1,1.939,719
"635",16,28,"Control",1,1,4,0,1.455,720
"636",16,145,"Control",1,1,5,1,0.835,721
"637",16,164,"Control",1,1,4,1,0.933,722
"638",16,162,"Control",1,1,3,1,0.514,723
"639",16,55,"Control",1,1,3,0,0.498,724
"640",16,37,"Control",1,1,2,0,0.807,725
"641",16,58,"Control",1,1,5,0,1.057,726
"642",16,11,"Control",1,1,2,0,1.774,727
"643",16,85,"Control",1,1,4,0,0.81,728
"644",16,137,"Control",1,1,3,1,0.555,729
"645",16,174,"Control",1,1,3,1,0.422,730
"646",16,154,"Control",1,1,3,1,0.614,731
"647",16,135,"Control",1,1,4,1,0.507,732
"648",16,87,"Control",1,1,3,0,0.458,733
"649",16,144,"Control",1,1,3,1,2.735,734
"650",16,152,"Control",1,1,4,1,0.482,735
"651",16,24,"Control",1,1,3,0,1.381,736
"652",16,151,"Control",1,1,4,1,0.457,737
"653",16,70,"Control",1,1,4,0,1.302,738
"654",16,153,"Control",1,1,3,1,0.445,739
"655",16,146,"Control",1,1,4,1,0.536,740
"656",16,15,"Control",1,1,3,0,2.173,741
"657",16,6,"Control",1,1,3,0,2.464,742
"658",16,155,"Control",1,1,4,1,0.462,743
"659",16,39,"Control",1,1,3,0,2.182,744
"660",16,150,"Control",1,1,4,1,0.578,745
"661",16,19,"Control",1,1,4,0,4.104,746
"662",16,163,"Control",1,1,4,1,0.921,747
"663",16,147,"Control",1,1,3,1,0.451,748
"664",16,167,"Control",1,1,2,1,0.736,749
"665",16,44,"Control",1,1,4,0,3.046,750
"666",16,8,"Control",1,1,5,0,1.39,751
"667",16,50,"Control",1,1,4,0,1.197,752
"668",16,56,"Control",1,1,3,0,2.494,753
"669",16,173,"Control",1,1,4,1,0.482,754
"670",16,3,"Control",1,1,4,0,0.948,755
"671",16,78,"Control",1,1,3,0,0.571,756
"672",16,168,"Control",1,1,3,1,0.624,757
"673",16,76,"Control",1,1,4,0,1.24,758
"674",16,66,"Control",1,1,3,0,0.658,759
"675",16,30,"Control",1,1,5,0,0.639,760
"676",16,171,"Control",1,1,4,1,0.633,761
"677",16,161,"Control",1,1,3,1,1.161,762
"678",16,140,"Control",1,1,3,1,0.475,763
"679",16,7,"Control",1,1,4,0,0.426,764
"680",16,160,"Control",1,1,3,1,0.473,765
"681",16,53,"Control",1,1,4,0,0.809,766
"682",16,139,"Control",1,1,3,1,0.374,767
"683",16,62,"Control",1,1,3,0,2.748,768
"684",16,149,"Control",1,1,5,1,1.73,769
"685",16,13,"Control",1,1,4,0,0.67,770
"686",16,134,"Control",1,1,4,1,0.429,771
"687",16,18,"Control",1,1,4,0,0.509,772
"688",16,59,"Control",1,1,4,0,0.877,773
"689",16,141,"Control",1,1,3,1,0.606,774
"690",16,36,"Control",1,1,3,0,1.841,775
"691",16,63,"Control",1,1,2,0,2.131,776
"692",16,148,"Control",1,1,3,1,0.51,777
"693",16,4,"Control",1,1,5,0,0.926,778
"694",16,68,"Control",1,1,5,0,0.536,779
"695",16,22,"Control",1,1,4,0,0.381,780
"696",16,170,"Control",1,1,5,1,0.578,781
"697",16,1,"Control",1,1,4,0,1.679,782
"698",16,47,"Control",1,1,2,0,0.881,783
"699",16,169,"Control",1,1,5,1,1.343,784
"700",16,57,"Control",1,1,4,0,0.474,785
"701",16,32,"Control",1,1,2,0,0.937,786
"702",16,175,"Control",1,1,5,1,0.59,787
"703",16,16,"Control",1,1,3,0,2.293,788
"704",16,71,"Control",1,1,3,0,2.025,789
"705",17,27,"Control",1,1,3,1,1.164,702
"706",17,115,"Control",1,1,2,0,0.67,703
"707",17,65,"Control",1,1,4,1,0.59,704
"708",17,122,"Control",1,1,5,0,0.757,705
"709",17,21,"Control",1,1,4,1,0.887,706
"710",17,45,"Control",1,1,3,1,0.554,707
"711",17,132,"Control",1,1,5,0,0.865,708
"712",17,121,"Control",1,1,4,0,0.569,709
"713",17,72,"Control",1,1,5,1,0.747,710
"714",17,128,"Control",1,1,3,0,0.914,711
"715",17,17,"Control",1,1,4,1,0.937,712
"716",17,105,"Control",1,1,4,0,3.07,713
"717",17,118,"Control",1,1,4,0,2.323,714
"718",17,131,"Control",1,1,3,0,0.572,715
"719",17,80,"Control",1,1,4,1,3.281,716
"720",17,77,"Control",1,1,3,1,0.617,717
"721",17,9,"Control",1,1,4,1,0.566,718
"722",17,25,"Control",1,1,3,1,0.496,719
"723",17,126,"Control",1,1,3,0,1.334,720
"724",17,48,"Control",1,1,3,1,0.53,721
"725",17,119,"Control",1,1,2,0,0.695,722
"726",17,125,"Control",1,1,3,0,0.644,723
"727",17,81,"Control",1,1,3,1,0.638,724
"728",17,83,"Control",1,1,5,1,0.745,725
"729",17,129,"Control",1,1,4,0,0.552,726
"730",17,94,"Control",1,1,3,0,0.576,727
"731",17,111,"Control",1,1,4,0,3.221,728
"732",17,34,"Control",1,1,4,1,0.751,729
"733",17,98,"Control",1,1,3,0,1.231,730
"734",17,116,"Control",1,1,4,0,0.678,731
"735",17,49,"Control",1,1,4,1,0.568,732
"736",17,93,"Control",1,1,3,0,1.733,733
"737",17,38,"Control",1,1,5,1,0.993,734
"738",17,108,"Control",1,1,4,0,2.433,735
"739",17,82,"Control",1,1,4,1,0.543,736
"740",17,100,"Control",1,1,3,0,0.486,737
"741",17,40,"Control",1,1,4,1,0.721,738
"742",17,29,"Control",1,1,4,1,0.683,739
"743",17,88,"Control",1,1,4,1,0.717,740
"744",17,104,"Control",1,1,3,0,2.071,741
"745",17,117,"Control",1,1,4,0,0.974,742
"746",17,35,"Control",1,1,3,1,0.57,743
"747",17,43,"Control",1,1,4,1,0.567,744
"748",17,112,"Control",1,1,3,0,0.666,745
"749",17,73,"Control",1,1,4,1,1.209,746
"750",17,42,"Control",1,1,5,1,0.638,747
"751",17,84,"Control",1,1,5,1,0.904,748
"752",17,102,"Control",1,1,4,0,0.76,749
"753",17,31,"Control",1,1,3,1,1.306,750
"754",17,90,"Control",1,1,3,0,0.689,751
"755",17,14,"Control",1,1,4,1,0.574,752
"756",17,123,"Control",1,1,4,0,1.523,753
"757",17,91,"Control",1,1,3,0,1.62,754
"758",17,74,"Control",1,1,3,1,0.584,755
"759",17,33,"Control",1,1,4,1,0.584,756
"760",17,96,"Control",1,1,4,0,0.744,757
"761",17,67,"Control",1,1,5,1,0.727,758
"762",17,103,"Control",1,1,4,0,1.457,759
"763",17,61,"Control",1,1,5,1,0.734,760
"764",17,109,"Control",1,1,3,0,0.795,761
"765",17,124,"Control",1,1,3,0,1.442,762
"766",17,23,"Control",1,1,4,1,0.556,763
"767",17,130,"Control",1,1,4,0,0.614,764
"768",17,75,"Control",1,1,3,1,0.515,765
"769",17,97,"Control",1,1,3,0,3.197,766
"770",17,20,"Control",1,1,3,1,0.501,767
"771",17,107,"Control",1,1,4,0,0.549,768
"772",17,26,"Control",1,1,4,1,0.517,769
"773",17,2,"Control",1,1,4,1,0.719,770
"774",17,64,"Control",1,1,4,1,0.777,771
"775",17,60,"Control",1,1,3,1,0.574,772
"776",17,113,"Control",1,1,3,0,0.923,773
"777",17,127,"Control",1,1,3,0,0.477,774
"778",17,92,"Control",1,1,2,0,0.76,775
"779",17,120,"Control",1,1,4,0,0.522,776
"780",17,110,"Control",1,1,4,0,1.276,777
"781",17,46,"Control",1,1,3,1,0.542,778
"782",17,114,"Control",1,1,4,0,0.486,779
"783",17,10,"Control",1,1,4,1,0.904,780
"784",17,101,"Control",1,1,3,0,0.92,781
"785",17,54,"Control",1,1,4,1,0.53,782
"786",17,51,"Control",1,1,4,1,0.619,783
"787",17,89,"Control",1,1,3,0,0.496,784
"788",17,106,"Control",1,1,3,0,0.661,785
"789",17,41,"Control",1,1,3,1,0.834,786
"790",17,95,"Control",1,1,4,0,0.938,787
"791",17,86,"Control",1,1,3,1,0.486,788
"792",17,99,"Control",1,1,5,0,0.609,789
"793",18,33,"Experimental",1,1,4,1,3.026,702
"794",18,2,"Experimental",1,1,6,1,1.263,703
"795",18,112,"Experimental",1,1,4,0,2.295,704
"796",18,106,"Experimental",1,1,1,0,0.954,705
"797",18,67,"Experimental",1,1,5,1,1.785,706
"798",18,49,"Experimental",1,1,4,1,1.256,707
"799",18,64,"Experimental",1,1,4,1,0.788,708
"800",18,104,"Experimental",1,1,3,0,0.596,709
"801",18,117,"Experimental",1,1,5,0,1.19,710
"802",18,51,"Experimental",1,1,3,1,2.478,711
"803",18,129,"Experimental",1,1,3,0,0.991,712
"804",18,89,"Experimental",1,1,3,0,0.653,713
"805",18,124,"Experimental",1,1,4,0,1.427,714
"806",18,83,"Experimental",1,1,4,1,0.617,715
"807",18,123,"Experimental",1,1,3,0,2.727,716
"808",18,46,"Experimental",1,1,6,1,0.807,717
"809",18,100,"Experimental",1,1,3,0,1.378,718
"810",18,105,"Experimental",1,1,5,0,2.574,719
"811",18,35,"Experimental",1,1,6,1,0.849,720
"812",18,114,"Experimental",1,1,3,0,1.366,721
"813",18,109,"Experimental",1,1,4,0,1.759,722
"814",18,26,"Experimental",1,1,4,1,1.321,723
"815",18,96,"Experimental",1,1,3,0,2.538,724
"816",18,131,"Experimental",1,1,5,0,0.853,725
"817",18,82,"Experimental",1,1,4,1,0.562,726
"818",18,108,"Experimental",1,1,2,0,0.949,727
"819",18,14,"Experimental",1,1,3,1,0.868,728
"820",18,43,"Experimental",1,1,3,1,1.027,729
"821",18,41,"Experimental",1,1,3,1,1.147,730
"822",18,122,"Experimental",1,1,3,0,1.69,731
"823",18,21,"Experimental",1,1,4,1,1.078,732
"824",18,84,"Experimental",1,1,3,1,1.777,733
"825",18,40,"Experimental",1,1,3,1,1.381,734
"826",18,110,"Experimental",1,1,6,0,3.545,735
"827",18,101,"Experimental",1,1,3,0,2.03,736
"828",18,93,"Experimental",1,1,3,0,0.86,737
"829",18,118,"Experimental",1,1,3,0,0.961,738
"830",18,20,"Experimental",1,1,1,1,1.243,739
"831",18,9,"Experimental",1,1,3,1,0.693,740
"832",18,102,"Experimental",1,1,4,0,0.954,741
"833",18,31,"Experimental",1,1,3,1,0.617,742
"834",18,125,"Experimental",1,1,6,0,0.902,743
"835",18,45,"Experimental",1,1,4,1,0.837,744
"836",18,103,"Experimental",1,1,4,0,0.944,745
"837",18,119,"Experimental",1,1,2,0,0.575,746
"838",18,23,"Experimental",1,1,3,1,0.86,747
"839",18,34,"Experimental",1,1,4,1,0.809,748
"840",18,77,"Experimental",1,1,3,1,0.493,749
"841",18,74,"Experimental",1,1,3,1,0.611,750
"842",18,38,"Experimental",1,1,4,1,0.624,751
"843",18,130,"Experimental",1,1,4,0,0.607,752
"844",18,111,"Experimental",1,1,5,0,0.69,753
"845",18,91,"Experimental",1,1,4,0,0.854,754
"846",18,73,"Experimental",1,1,3,1,0.555,755
"847",18,10,"Experimental",1,1,2,1,2.118,756
"848",18,75,"Experimental",1,1,4,1,0.503,757
"849",18,99,"Experimental",1,1,4,0,1.446,758
"850",18,120,"Experimental",1,1,5,0,0.72,759
"851",18,97,"Experimental",1,1,2,0,0.634,760
"852",18,95,"Experimental",1,1,4,0,0.57,761
"853",18,86,"Experimental",1,1,4,1,1.647,762
"854",18,94,"Experimental",1,1,2,0,0.736,763
"855",18,42,"Experimental",1,1,2,1,0.653,764
"856",18,48,"Experimental",1,1,3,1,0.786,765
"857",18,98,"Experimental",1,1,5,0,0.73,766
"858",18,60,"Experimental",1,1,4,1,0.598,767
"859",18,88,"Experimental",1,1,5,1,1.185,768
"860",18,92,"Experimental",1,1,3,0,0.623,769
"861",18,17,"Experimental",1,1,2,1,0.767,770
"862",18,90,"Experimental",1,1,1,0,0.857,771
"863",18,25,"Experimental",1,1,4,1,1.318,772
"864",18,61,"Experimental",1,1,3,1,1.6,773
"865",18,126,"Experimental",1,1,5,0,1.866,774
"866",18,81,"Experimental",1,1,3,1,0.984,775
"867",18,116,"Experimental",1,1,5,0,1.143,776
"868",18,128,"Experimental",1,1,4,0,1.919,777
"869",18,54,"Experimental",1,1,3,1,1.552,778
"870",18,65,"Experimental",1,1,3,1,4.446,779
"871",18,127,"Experimental",1,1,5,0,2.91,780
"872",18,27,"Experimental",1,1,2,1,0.964,781
"873",18,115,"Experimental",1,1,6,0,1.006,782
"874",18,80,"Experimental",1,1,3,1,0.68,783
"875",18,121,"Experimental",1,1,3,0,1.434,784
"876",18,132,"Experimental",1,1,5,0,1.129,785
"877",18,29,"Experimental",1,1,4,1,1.075,786
"878",18,72,"Experimental",1,1,3,1,0.762,787
"879",18,113,"Experimental",1,1,3,0,2.388,788
"880",18,107,"Experimental",1,1,3,0,0.562,789
"881",19,154,"Experimental",1,1,5,0,1.936,702
"882",19,35,"Experimental",1,1,2,1,3.084,703
"883",19,14,"Experimental",1,1,4,1,1.66,704
"884",19,151,"Experimental",1,1,5,0,0.624,705
"885",19,149,"Experimental",1,1,3,0,0.672,706
"886",19,176,"Experimental",1,1,3,0,0.583,707
"887",19,40,"Experimental",1,1,4,1,0.535,708
"888",19,144,"Experimental",1,1,3,0,0.54,709
"889",19,20,"Experimental",1,1,5,1,0.985,710
"890",19,161,"Experimental",1,1,3,0,0.712,711
"891",19,77,"Experimental",1,1,4,1,1.896,712
"892",19,138,"Experimental",1,1,5,0,1.884,713
"893",19,140,"Experimental",1,1,5,0,0.749,714
"894",19,139,"Experimental",1,1,4,0,1.045,715
"895",19,141,"Experimental",1,1,2,0,0.55,716
"896",19,45,"Experimental",1,1,3,1,0.611,717
"897",19,162,"Experimental",1,1,4,0,1.36,718
"898",19,145,"Experimental",1,1,3,0,1.786,719
"899",19,88,"Experimental",1,1,5,1,0.536,720
"900",19,174,"Experimental",1,1,4,0,1.269,721
"901",19,74,"Experimental",1,1,4,1,0.572,722
"902",19,136,"Experimental",1,1,3,0,0.745,723
"903",19,27,"Experimental",1,1,4,1,0.953,724
"904",19,81,"Experimental",1,1,4,1,0.672,725
"905",19,21,"Experimental",1,1,5,1,0.992,726
"906",19,60,"Experimental",1,1,5,1,0.791,727
"907",19,26,"Experimental",1,1,4,1,1.007,728
"908",19,80,"Experimental",1,1,3,1,0.57,729
"909",19,148,"Experimental",1,1,4,0,0.646,730
"910",19,23,"Experimental",1,1,3,1,1.36,731
"911",19,82,"Experimental",1,1,4,1,1.45,732
"912",19,86,"Experimental",1,1,4,1,0.718,733
"913",19,168,"Experimental",1,1,5,0,0.624,734
"914",19,150,"Experimental",1,1,2,0,2,735
"915",19,41,"Experimental",1,1,5,1,0.681,736
"916",19,163,"Experimental",1,1,5,0,0.739,737
"917",19,175,"Experimental",1,1,5,0,0.8,738
"918",19,146,"Experimental",1,1,1,0,4.147,739
"919",19,67,"Experimental",1,1,2,1,1.031,740
"920",19,84,"Experimental",1,1,5,1,0.823,741
"921",19,155,"Experimental",1,1,4,0,1.702,742
"922",19,10,"Experimental",1,1,2,1,1.626,743
"923",19,143,"Experimental",1,1,5,0,0.993,744
"924",19,158,"Experimental",1,1,6,0,0.88,745
"925",19,2,"Experimental",1,1,5,1,0.706,746
"926",19,33,"Experimental",1,1,2,1,0.834,747
"927",19,135,"Experimental",1,1,4,0,0.841,748
"928",19,165,"Experimental",1,1,4,0,1.235,749
"929",19,167,"Experimental",1,1,4,0,0.738,750
"930",19,169,"Experimental",1,1,4,0,0.687,751
"931",19,142,"Experimental",1,1,2,0,2.29,752
"932",19,64,"Experimental",1,1,3,1,0.65,753
"933",19,38,"Experimental",1,1,2,1,0.559,754
"934",19,51,"Experimental",1,1,5,1,1.891,755
"935",19,159,"Experimental",1,1,3,0,0.695,756
"936",19,61,"Experimental",1,1,6,1,0.684,757
"937",19,137,"Experimental",1,1,5,0,0.686,758
"938",19,157,"Experimental",1,1,4,0,0.616,759
"939",19,48,"Experimental",1,1,4,1,1.413,760
"940",19,160,"Experimental",1,1,3,0,1.378,761
"941",19,17,"Experimental",1,1,2,1,1.278,762
"942",19,173,"Experimental",1,1,4,0,0.496,763
"943",19,83,"Experimental",1,1,5,1,0.828,764
"944",19,147,"Experimental",1,1,2,0,0.707,765
"945",19,73,"Experimental",1,1,5,1,1.699,766
"946",19,171,"Experimental",1,1,2,0,1.543,767
"947",19,49,"Experimental",1,1,4,1,1.718,768
"948",19,43,"Experimental",1,1,3,1,0.751,769
"949",19,54,"Experimental",1,1,5,1,0.902,770
"950",19,31,"Experimental",1,1,5,1,0.822,771
"951",19,166,"Experimental",1,1,3,0,0.661,772
"952",19,134,"Experimental",1,1,4,0,0.562,773
"953",19,29,"Experimental",1,1,4,1,1.309,774
"954",19,25,"Experimental",1,1,3,1,0.684,775
"955",19,152,"Experimental",1,1,6,0,0.846,776
"956",19,153,"Experimental",1,1,3,0,2.928,777
"957",19,172,"Experimental",1,1,4,0,0.536,778
"958",19,170,"Experimental",1,1,2,0,1.421,779
"959",19,34,"Experimental",1,1,4,1,0.674,780
"960",19,9,"Experimental",1,1,3,1,0.993,781
"961",19,164,"Experimental",1,1,5,0,1.136,782
"962",19,46,"Experimental",1,1,5,1,2.342,783
"963",19,72,"Experimental",1,1,3,1,1.001,784
"964",19,156,"Experimental",1,1,3,0,4.235,785
"965",19,75,"Experimental",1,1,5,1,0.704,786
"966",19,65,"Experimental",1,1,5,1,0.631,787
"967",19,133,"Experimental",1,1,5,0,0.695,788
"968",19,42,"Experimental",1,1,3,1,0.62,789
"969",2,75,"Experimental",1,1,4,1,2.831,702
"970",2,72,"Experimental",1,1,4,1,1.597,703
"971",2,145,"Experimental",1,1,2,0,1.822,704
"972",2,157,"Experimental",1,1,1,0,1.538,705
"973",2,163,"Experimental",1,1,2,0,2.774,706
"974",2,174,"Experimental",1,1,4,0,4.025,707
"975",2,154,"Experimental",1,1,2,0,3.054,708
"976",2,160,"Experimental",1,1,4,0,5.049,709
"977",2,146,"Experimental",1,1,4,0,1.431,710
"978",2,86,"Experimental",1,1,1,1,0.878,711
"979",2,54,"Experimental",1,1,4,1,2.28,712
"980",2,60,"Experimental",1,1,4,1,1.466,713
"981",2,80,"Experimental",1,1,2,1,4.153,714
"982",2,25,"Experimental",1,1,4,1,0.765,715
"983",2,61,"Experimental",1,1,4,1,1.183,716
"984",2,143,"Experimental",1,1,4,0,0.935,717
"985",2,9,"Experimental",1,1,3,1,0.923,718
"986",2,166,"Experimental",1,1,5,0,2.437,719
"987",2,152,"Experimental",1,1,3,0,1.19,720
"988",2,10,"Experimental",1,1,4,1,0.445,721
"989",2,141,"Experimental",1,1,1,0,0.824,722
"990",2,84,"Experimental",1,1,4,1,0.575,723
"991",2,34,"Experimental",1,1,4,1,6.701,724
"992",2,17,"Experimental",1,1,3,1,0.548,725
"993",2,139,"Experimental",1,1,3,0,3.892,726
"994",2,83,"Experimental",1,1,2,1,0.59,727
"995",2,35,"Experimental",1,1,2,1,1.126,728
"996",2,65,"Experimental",1,1,3,1,6.201,729
"997",2,45,"Experimental",1,1,4,1,0.454,730
"998",2,29,"Experimental",1,1,3,1,1.387,731
"999",2,148,"Experimental",1,1,3,0,2.242,732
"1000",2,64,"Experimental",1,1,4,1,0.363,733
"1001",2,155,"Experimental",1,1,4,0,1.005,734
"1002",2,88,"Experimental",1,1,6,1,0.559,735
"1003",2,21,"Experimental",1,1,4,1,0.505,736
"1004",2,38,"Experimental",1,1,5,1,0.593,737
"1005",2,169,"Experimental",1,1,3,0,1.889,738
"1006",2,67,"Experimental",1,1,3,1,3.522,739
"1007",2,31,"Experimental",1,1,3,1,3.843,740
"1008",2,176,"Experimental",1,1,4,0,0.65,741
"1009",2,165,"Experimental",1,1,4,0,1.327,742
"1010",2,162,"Experimental",1,1,4,0,3.497,743
"1011",2,144,"Experimental",1,1,2,0,1.203,744
"1012",2,136,"Experimental",1,1,3,0,0.421,745
"1013",2,168,"Experimental",1,1,5,0,3.106,746
"1014",2,40,"Experimental",1,1,4,1,1.463,747
"1015",2,175,"Experimental",1,1,6,0,2.35,748
"1016",2,26,"Experimental",1,1,4,1,0.388,749
"1017",2,48,"Experimental",1,1,3,1,1.58,750
"1018",2,33,"Experimental",1,1,3,1,1.176,751
"1019",2,171,"Experimental",1,1,4,0,2.766,752
"1020",2,161,"Experimental",1,1,3,0,2.046,753
"1021",2,147,"Experimental",1,1,3,0,0.887,754
"1022",2,150,"Experimental",1,1,3,0,5.417,755
"1023",2,159,"Experimental",1,1,3,0,0.665,756
"1024",2,77,"Experimental",1,1,4,1,0.529,757
"1025",2,135,"Experimental",1,1,3,0,0.526,758
"1026",2,172,"Experimental",1,1,4,0,3.626,759
"1027",2,14,"Experimental",1,1,2,1,2.654,760
"1028",2,164,"Experimental",1,1,5,0,3.706,761
"1029",2,42,"Experimental",1,1,4,1,1.758,762
"1030",2,142,"Experimental",1,1,2,0,2.768,763
"1031",2,173,"Experimental",1,1,4,0,1.305,764
"1032",2,82,"Experimental",1,1,4,1,0.4,765
"1033",2,167,"Experimental",1,1,1,0,2.01,766
"1034",2,41,"Experimental",1,1,4,1,1.99,767
"1035",2,137,"Experimental",1,1,4,0,0.668,768
"1036",2,46,"Experimental",1,1,4,1,1.124,769
"1037",2,43,"Experimental",1,1,3,1,0.414,770
"1038",2,73,"Experimental",1,1,3,1,0.691,771
"1039",2,74,"Experimental",1,1,3,1,0.792,772
"1040",2,158,"Experimental",1,1,2,0,0.96,773
"1041",2,138,"Experimental",1,1,4,0,1.29,774
"1042",2,140,"Experimental",1,1,4,0,0.558,775
"1043",2,133,"Experimental",1,1,3,0,0.768,776
"1044",2,149,"Experimental",1,1,4,0,0.554,777
"1045",2,134,"Experimental",1,1,6,0,0.697,778
"1046",2,49,"Experimental",1,1,4,1,0.582,779
"1047",2,153,"Experimental",1,1,2,0,0.998,780
"1048",2,27,"Experimental",1,1,4,1,0.536,781
"1049",2,23,"Experimental",1,1,4,1,0.493,782
"1050",2,151,"Experimental",1,1,3,0,2.122,783
"1051",2,156,"Experimental",1,1,3,0,0.387,784
"1052",2,20,"Experimental",1,1,3,1,0.515,785
"1053",2,2,"Experimental",1,1,4,1,0.621,786
"1054",2,81,"Experimental",1,1,3,1,0.906,787
"1055",2,170,"Experimental",1,1,3,0,6.603,788
"1056",2,51,"Experimental",1,1,2,1,8.904,789
"1057",20,94,"Experimental",1,1,5,0,4.644,702
"1058",20,68,"Experimental",1,1,3,1,1.499,703
"1059",20,120,"Experimental",1,1,5,0,1.135,704
"1060",20,62,"Experimental",1,1,5,1,1.516,705
"1061",20,32,"Experimental",1,1,4,1,0.557,706
"1062",20,116,"Experimental",1,1,5,0,0.56,707
"1063",20,69,"Experimental",1,1,2,1,1.674,708
"1064",20,97,"Experimental",1,1,2,0,1.353,709
"1065",20,3,"Experimental",1,1,3,1,0.56,710
"1066",20,93,"Experimental",1,1,2,0,2.282,711
"1067",20,114,"Experimental",1,1,3,0,4.548,712
"1068",20,123,"Experimental",1,1,5,0,0.6,713
"1069",20,127,"Experimental",1,1,5,0,3.21,714
"1070",20,106,"Experimental",1,1,5,0,2.058,715
"1071",20,119,"Experimental",1,1,5,0,1.174,716
"1072",20,121,"Experimental",1,1,4,0,0.874,717
"1073",20,98,"Experimental",1,1,6,0,0.962,718
"1074",20,7,"Experimental",1,1,6,1,0.756,719
"1075",20,122,"Experimental",1,1,5,0,0.654,720
"1076",20,59,"Experimental",1,1,5,1,0.603,721
"1077",20,87,"Experimental",1,1,3,1,0.733,722
"1078",20,105,"Experimental",1,1,4,0,0.602,723
"1079",20,111,"Experimental",1,1,3,0,1.796,724
"1080",20,132,"Experimental",1,1,5,0,0.718,725
"1081",20,101,"Experimental",1,1,4,0,0.84,726
"1082",20,131,"Experimental",1,1,5,0,1.338,727
"1083",20,102,"Experimental",1,1,3,0,0.902,728
"1084",20,55,"Experimental",1,1,5,1,1.07,729
"1085",20,5,"Experimental",1,1,5,1,0.917,730
"1086",20,39,"Experimental",1,1,5,1,0.751,731
"1087",20,36,"Experimental",1,1,2,1,0.838,732
"1088",20,18,"Experimental",1,1,4,1,0.632,733
"1089",20,50,"Experimental",1,1,5,1,1.128,734
"1090",20,8,"Experimental",1,1,5,1,2.354,735
"1091",20,71,"Experimental",1,1,5,1,0.568,736
"1092",20,126,"Experimental",1,1,3,0,0.874,737
"1093",20,90,"Experimental",1,1,3,0,0.97,738
"1094",20,12,"Experimental",1,1,5,1,1.103,739
"1095",20,56,"Experimental",1,1,3,1,1.67,740
"1096",20,24,"Experimental",1,1,4,1,1.012,741
"1097",20,4,"Experimental",1,1,3,1,0.489,742
"1098",20,53,"Experimental",1,1,5,1,0.766,743
"1099",20,28,"Experimental",1,1,5,1,0.72,744
"1100",20,92,"Experimental",1,1,3,0,0.979,745
"1101",20,6,"Experimental",1,1,3,1,0.703,746
"1102",20,128,"Experimental",1,1,4,0,1.871,747
"1103",20,76,"Experimental",1,1,4,1,0.765,748
"1104",20,118,"Experimental",1,1,4,0,0.671,749
"1105",20,37,"Experimental",1,1,2,1,0.631,750
"1106",20,19,"Experimental",1,1,2,1,0.583,751
"1107",20,125,"Experimental",1,1,4,0,0.502,752
"1108",20,22,"Experimental",1,1,3,1,0.742,753
"1109",20,16,"Experimental",1,1,3,1,0.686,754
"1110",20,115,"Experimental",1,1,3,0,0.568,755
"1111",20,109,"Experimental",1,1,3,0,0.458,756
"1112",20,15,"Experimental",1,1,3,1,0.479,757
"1113",20,100,"Experimental",1,1,4,0,1.722,758
"1114",20,57,"Experimental",1,1,4,1,1.123,759
"1115",20,47,"Experimental",1,1,4,1,2.109,760
"1116",20,70,"Experimental",1,1,5,1,0.683,761
"1117",20,124,"Experimental",1,1,4,0,0.71,762
"1118",20,11,"Experimental",1,1,3,1,0.517,763
"1119",20,117,"Experimental",1,1,5,0,2.528,764
"1120",20,95,"Experimental",1,1,5,0,0.712,765
"1121",20,112,"Experimental",1,1,4,0,1.016,766
"1122",20,108,"Experimental",1,1,5,0,0.604,767
"1123",20,91,"Experimental",1,1,4,0,1.423,768
"1124",20,66,"Experimental",1,1,3,1,1.686,769
"1125",20,96,"Experimental",1,1,4,0,0.623,770
"1126",20,78,"Experimental",1,1,4,1,1.983,771
"1127",20,13,"Experimental",1,1,5,1,1.901,772
"1128",20,1,"Experimental",1,1,5,1,1.025,773
"1129",20,104,"Experimental",1,1,4,0,0.784,774
"1130",20,129,"Experimental",1,1,5,0,2.064,775
"1131",20,58,"Experimental",1,1,5,1,3.815,776
"1132",20,85,"Experimental",1,1,5,1,4.401,777
"1133",20,107,"Experimental",1,1,5,0,0.76,778
"1134",20,99,"Experimental",1,1,4,0,1.122,779
"1135",20,44,"Experimental",1,1,5,1,0.764,780
"1136",20,110,"Experimental",1,1,5,0,0.974,781
"1137",20,103,"Experimental",1,1,5,0,2.011,782
"1138",20,113,"Experimental",1,1,4,0,0.534,783
"1139",20,52,"Experimental",1,1,4,1,0.579,784
"1140",20,63,"Experimental",1,1,5,1,1.24,785
"1141",20,89,"Experimental",1,1,4,0,0.594,786
"1142",20,79,"Experimental",1,1,2,1,0.658,787
"1143",20,30,"Experimental",1,1,4,1,0.783,788
"1144",20,130,"Experimental",1,1,3,0,2.054,789
"1145",21,166,"Control",1,1,6,0,1.196,702
"1146",21,173,"Control",1,1,2,0,0.718,703
"1147",21,157,"Control",1,1,4,0,2.048,704
"1148",21,135,"Control",1,1,3,0,1.193,705
"1149",21,27,"Control",1,1,2,1,0.704,706
"1150",21,84,"Control",1,1,2,1,1.271,707
"1151",21,140,"Control",1,1,5,0,0.743,708
"1152",21,23,"Control",1,1,3,1,0.766,709
"1153",21,40,"Control",1,1,5,1,0.704,710
"1154",21,168,"Control",1,1,3,0,0.976,711
"1155",21,147,"Control",1,1,3,0,0.725,712
"1156",21,10,"Control",1,1,3,1,0.951,713
"1157",21,26,"Control",1,1,3,1,0.806,714
"1158",21,176,"Control",1,1,5,0,0.912,715
"1159",21,138,"Control",1,1,2,0,0.776,716
"1160",21,165,"Control",1,1,5,0,1.06,717
"1161",21,149,"Control",1,1,3,0,1.553,718
"1162",21,152,"Control",1,1,4,0,1.112,719
"1163",21,154,"Control",1,1,1,0,0.855,720
"1164",21,34,"Control",1,1,6,1,0.708,721
"1165",21,38,"Control",1,1,3,1,0.651,722
"1166",21,14,"Control",1,1,4,1,0.736,723
"1167",21,54,"Control",1,1,3,1,0.613,724
"1168",21,150,"Control",1,1,5,0,0.722,725
"1169",21,139,"Control",1,1,2,0,0.699,726
"1170",21,156,"Control",1,1,3,0,1.185,727
"1171",21,142,"Control",1,1,3,0,1.713,728
"1172",21,81,"Control",1,1,3,1,0.711,729
"1173",21,134,"Control",1,1,5,0,0.743,730
"1174",21,20,"Control",1,1,3,1,0.702,731
"1175",21,43,"Control",1,1,4,1,0.605,732
"1176",21,60,"Control",1,1,5,1,0.831,733
"1177",21,143,"Control",1,1,5,0,1.04,734
"1178",21,83,"Control",1,1,4,1,0.777,735
"1179",21,21,"Control",1,1,1,1,0.925,736
"1180",21,151,"Control",1,1,5,0,0.759,737
"1181",21,31,"Control",1,1,5,1,0.722,738
"1182",21,174,"Control",1,1,4,0,1.46,739
"1183",21,49,"Control",1,1,6,1,0.832,740
"1184",21,74,"Control",1,1,2,1,1.641,741
"1185",21,133,"Control",1,1,4,0,1.066,742
"1186",21,161,"Control",1,1,2,0,0.961,743
"1187",21,48,"Control",1,1,5,1,1.267,744
"1188",21,158,"Control",1,1,6,0,1.394,745
"1189",21,51,"Control",1,1,3,1,0.585,746
"1190",21,137,"Control",1,1,3,0,0.977,747
"1191",21,9,"Control",1,1,4,1,0.725,748
"1192",21,169,"Control",1,1,5,0,1.616,749
"1193",21,65,"Control",1,1,2,1,1.012,750
"1194",21,80,"Control",1,1,5,1,0.968,751
"1195",21,175,"Control",1,1,2,0,0.97,752
"1196",21,170,"Control",1,1,2,0,1.007,753
"1197",21,155,"Control",1,1,2,0,0.969,754
"1198",21,77,"Control",1,1,3,1,0.678,755
"1199",21,29,"Control",1,1,2,1,2.168,756
"1200",21,35,"Control",1,1,3,1,1.177,757
"1201",21,45,"Control",1,1,2,1,0.973,758
"1202",21,25,"Control",1,1,6,1,0.89,759
"1203",21,172,"Control",1,1,6,0,1.111,760
"1204",21,46,"Control",1,1,4,1,0.758,761
"1205",21,163,"Control",1,1,4,0,0.904,762
"1206",21,64,"Control",1,1,4,1,0.672,763
"1207",21,159,"Control",1,1,6,0,0.719,764
"1208",21,160,"Control",1,1,5,0,0.729,765
"1209",21,153,"Control",1,1,6,0,1.39,766
"1210",21,75,"Control",1,1,4,1,0.701,767
"1211",21,146,"Control",1,1,6,0,0.858,768
"1212",21,162,"Control",1,1,5,0,0.735,769
"1213",21,148,"Control",1,1,4,0,0.716,770
"1214",21,73,"Control",1,1,2,1,0.797,771
"1215",21,86,"Control",1,1,2,1,0.792,772
"1216",21,136,"Control",1,1,5,0,0.824,773
"1217",21,88,"Control",1,1,1,1,0.902,774
"1218",21,72,"Control",1,1,3,1,0.919,775
"1219",21,164,"Control",1,1,5,0,1.297,776
"1220",21,33,"Control",1,1,2,1,0.941,777
"1221",21,141,"Control",1,1,3,0,0.753,778
"1222",21,17,"Control",1,1,6,1,1.481,779
"1223",21,144,"Control",1,1,6,0,0.755,780
"1224",21,41,"Control",1,1,3,1,0.898,781
"1225",21,171,"Control",1,1,3,0,0.951,782
"1226",21,82,"Control",1,1,4,1,0.661,783
"1227",21,42,"Control",1,1,4,1,0.605,784
"1228",21,2,"Control",1,1,5,1,0.743,785
"1229",21,167,"Control",1,1,2,0,1.528,786
"1230",21,145,"Control",1,1,2,0,0.913,787
"1231",21,61,"Control",1,1,5,1,1.273,788
"1232",21,67,"Control",1,1,3,1,0.463,789
"1233",22,24,"Experimental",1,1,5,1,2.767,702
"1234",22,175,"Experimental",1,1,4,0,2.528,703
"1235",22,3,"Experimental",1,1,5,1,1.36,704
"1236",22,164,"Experimental",1,1,2,0,2.57,705
"1237",22,135,"Experimental",1,1,3,0,1.187,706
"1238",22,68,"Experimental",1,1,3,1,4.57,707
"1239",22,154,"Experimental",1,1,1,0,1.648,708
"1240",22,147,"Experimental",1,1,4,0,2.779,709
"1241",22,156,"Experimental",1,1,3,0,3.206,710
"1242",22,66,"Experimental",1,1,2,1,0.534,711
"1243",22,36,"Experimental",1,1,4,1,3.395,712
"1244",22,63,"Experimental",1,1,4,1,1.568,713
"1245",22,85,"Experimental",1,1,4,1,0.513,714
"1246",22,157,"Experimental",1,1,5,0,6.154,715
"1247",22,7,"Experimental",1,1,4,1,0.508,716
"1248",22,12,"Experimental",1,1,5,1,1.372,717
"1249",22,6,"Experimental",1,1,3,1,1.712,718
"1250",22,142,"Experimental",1,1,2,0,3.904,719
"1251",22,79,"Experimental",1,1,3,1,3.338,720
"1252",22,13,"Experimental",1,1,5,1,0.724,721
"1253",22,39,"Experimental",1,1,4,1,0.855,722
"1254",22,169,"Experimental",1,1,3,0,3.548,723
"1255",22,16,"Experimental",1,1,5,1,0.792,724
"1256",22,87,"Experimental",1,1,3,1,0.56,725
"1257",22,8,"Experimental",1,1,3,1,0.546,726
"1258",22,32,"Experimental",1,1,4,1,0.49,727
"1259",22,44,"Experimental",1,1,5,1,2.263,728
"1260",22,69,"Experimental",1,1,5,1,2.589,729
"1261",22,1,"Experimental",1,1,3,1,0.515,730
"1262",22,18,"Experimental",1,1,4,1,0.605,731
"1263",22,53,"Experimental",1,1,3,1,1.576,732
"1264",22,11,"Experimental",1,1,3,1,0.732,733
"1265",22,173,"Experimental",1,1,5,0,0.537,734
"1266",22,70,"Experimental",1,1,4,1,0.63,735
"1267",22,139,"Experimental",1,1,3,0,0.542,736
"1268",22,4,"Experimental",1,1,2,1,0.589,737
"1269",22,56,"Experimental",1,1,2,1,1.501,738
"1270",22,134,"Experimental",1,1,4,0,3.081,739
"1271",22,162,"Experimental",1,1,3,0,1.033,740
"1272",22,37,"Experimental",1,1,4,1,0.44,741
"1273",22,167,"Experimental",1,1,4,0,4.132,742
"1274",22,52,"Experimental",1,1,1,1,1.214,743
"1275",22,62,"Experimental",1,1,2,1,0.57,744
"1276",22,172,"Experimental",1,1,3,0,1.951,745
"1277",22,150,"Experimental",1,1,4,0,0.902,746
"1278",22,47,"Experimental",1,1,4,1,0.466,747
"1279",22,148,"Experimental",1,1,4,0,0.994,748
"1280",22,22,"Experimental",1,1,3,1,2.689,749
"1281",22,140,"Experimental",1,1,4,0,0.57,750
"1282",22,76,"Experimental",1,1,4,1,0.727,751
"1283",22,71,"Experimental",1,1,2,1,0.561,752
"1284",22,28,"Experimental",1,1,3,1,0.595,753
"1285",22,133,"Experimental",1,1,5,0,0.702,754
"1286",22,5,"Experimental",1,1,4,1,0.427,755
"1287",22,144,"Experimental",1,1,2,0,2.955,756
"1288",22,159,"Experimental",1,1,3,0,1.624,757
"1289",22,15,"Experimental",1,1,5,1,0.639,758
"1290",22,166,"Experimental",1,1,3,0,0.545,759
"1291",22,176,"Experimental",1,1,3,0,0.529,760
"1292",22,168,"Experimental",1,1,2,0,1.446,761
"1293",22,138,"Experimental",1,1,2,0,0.703,762
"1294",22,146,"Experimental",1,1,5,0,0.815,763
"1295",22,165,"Experimental",1,1,2,0,1.844,764
"1296",22,141,"Experimental",1,1,4,0,0.645,765
"1297",22,145,"Experimental",1,1,3,0,2.935,766
"1298",22,143,"Experimental",1,1,4,0,0.554,767
"1299",22,161,"Experimental",1,1,5,0,1.154,768
"1300",22,155,"Experimental",1,1,4,0,2.033,769
"1301",22,170,"Experimental",1,1,5,0,0.631,770
"1302",22,78,"Experimental",1,1,5,1,0.647,771
"1303",22,59,"Experimental",1,1,4,1,0.713,772
"1304",22,163,"Experimental",1,1,3,0,0.505,773
"1305",22,57,"Experimental",1,1,4,1,0.545,774
"1306",22,152,"Experimental",1,1,1,0,2.056,775
"1307",22,153,"Experimental",1,1,5,0,1.94,776
"1308",22,171,"Experimental",1,1,4,0,1.208,777
"1309",22,151,"Experimental",1,1,5,0,0.922,778
"1310",22,50,"Experimental",1,1,3,1,0.732,779
"1311",22,174,"Experimental",1,1,4,0,2.857,780
"1312",22,149,"Experimental",1,1,5,0,0.883,781
"1313",22,137,"Experimental",1,1,5,0,1.222,782
"1314",22,158,"Experimental",1,1,2,0,1.219,783
"1315",22,19,"Experimental",1,1,4,1,1.495,784
"1316",22,160,"Experimental",1,1,3,0,0.755,785
"1317",22,30,"Experimental",1,1,5,1,0.566,786
"1318",22,55,"Experimental",1,1,3,1,1.12,787
"1319",22,136,"Experimental",1,1,4,0,0.465,788
"1320",22,58,"Experimental",1,1,4,1,1.066,789
"1321",23,124,"Control",1,1,3,0,1.419,702
"1322",23,4,"Control",1,1,2,1,2.639,703
"1323",23,85,"Control",1,1,4,1,1.72,704
"1324",23,52,"Control",1,1,2,1,1.641,705
"1325",23,6,"Control",1,1,3,1,0.794,706
"1326",23,89,"Control",1,1,3,0,1.066,707
"1327",23,113,"Control",1,1,3,0,1.778,708
"1328",23,94,"Control",1,1,3,0,0.83,709
"1329",23,79,"Control",1,1,2,1,0.774,710
"1330",23,119,"Control",1,1,4,0,0.858,711
"1331",23,110,"Control",1,1,4,0,2.471,712
"1332",23,22,"Control",1,1,4,1,0.749,713
"1333",23,16,"Control",1,1,4,1,0.797,714
"1334",23,91,"Control",1,1,3,0,0.879,715
"1335",23,108,"Control",1,1,3,0,0.913,716
"1336",23,115,"Control",1,1,3,0,1.696,717
"1337",23,116,"Control",1,1,5,0,1.02,718
"1338",23,104,"Control",1,1,3,0,1.329,719
"1339",23,68,"Control",1,1,4,1,0.762,720
"1340",23,130,"Control",1,1,3,0,1.628,721
"1341",23,97,"Control",1,1,3,0,2.475,722
"1342",23,128,"Control",1,1,3,0,1.193,723
"1343",23,123,"Control",1,1,3,0,1.424,724
"1344",23,1,"Control",1,1,3,1,0.927,725
"1345",23,87,"Control",1,1,4,1,1.537,726
"1346",23,101,"Control",1,1,5,0,1.918,727
"1347",23,125,"Control",1,1,3,0,1.919,728
"1348",23,24,"Control",1,1,4,1,0.864,729
"1349",23,47,"Control",1,1,3,1,1.384,730
"1350",23,121,"Control",1,1,4,0,1.719,731
"1351",23,129,"Control",1,1,3,0,0.664,732
"1352",23,122,"Control",1,1,5,0,0.88,733
"1353",23,57,"Control",1,1,4,1,2.402,734
"1354",23,36,"Control",1,1,3,1,1.739,735
"1355",23,58,"Control",1,1,3,1,0.687,736
"1356",23,99,"Control",1,1,4,0,1.249,737
"1357",23,28,"Control",1,1,4,1,0.725,738
"1358",23,126,"Control",1,1,3,0,1.712,739
"1359",23,102,"Control",1,1,3,0,1.382,740
"1360",23,63,"Control",1,1,3,1,1.149,741
"1361",23,117,"Control",1,1,4,0,1.116,742
"1362",23,37,"Control",1,1,3,1,0.894,743
"1363",23,44,"Control",1,1,4,1,0.779,744
"1364",23,15,"Control",1,1,4,1,0.96,745
"1365",23,120,"Control",1,1,4,0,1.122,746
"1366",23,13,"Control",1,1,4,1,0.764,747
"1367",23,30,"Control",1,1,3,1,1.486,748
"1368",23,131,"Control",1,1,3,0,1.015,749
"1369",23,76,"Control",1,1,4,1,1.948,750
"1370",23,111,"Control",1,1,4,0,2.162,751
"1371",23,66,"Control",1,1,4,1,0.635,752
"1372",23,93,"Control",1,1,3,0,1.094,753
"1373",23,98,"Control",1,1,4,0,1.298,754
"1374",23,62,"Control",1,1,3,1,2.992,755
"1375",23,7,"Control",1,1,4,1,1.293,756
"1376",23,56,"Control",1,1,3,1,1.265,757
"1377",23,8,"Control",1,1,4,1,1.64,758
"1378",23,118,"Control",1,1,3,0,1.186,759
"1379",23,32,"Control",1,1,4,1,1.457,760
"1380",23,19,"Control",1,1,4,1,0.829,761
"1381",23,53,"Control",1,1,4,1,0.717,762
"1382",23,105,"Control",1,1,3,0,1.175,763
"1383",23,96,"Control",1,1,4,0,1.731,764
"1384",23,11,"Control",1,1,4,1,1.271,765
"1385",23,39,"Control",1,1,4,1,0.838,766
"1386",23,59,"Control",1,1,3,1,0.928,767
"1387",23,106,"Control",1,1,4,0,1.058,768
"1388",23,55,"Control",1,1,4,1,1.367,769
"1389",23,109,"Control",1,1,3,0,1.025,770
"1390",23,12,"Control",1,1,3,1,1.016,771
"1391",23,95,"Control",1,1,3,0,1.453,772
"1392",23,50,"Control",1,1,4,1,1.761,773
"1393",23,103,"Control",1,1,4,0,2.01,774
"1394",23,70,"Control",1,1,3,1,1.078,775
"1395",23,100,"Control",1,1,3,0,0.96,776
"1396",23,78,"Control",1,1,3,1,2.107,777
"1397",23,112,"Control",1,1,3,0,1.009,778
"1398",23,132,"Control",1,1,4,0,1.163,779
"1399",23,69,"Control",1,1,4,1,1.085,780
"1400",23,107,"Control",1,1,4,0,4.175,781
"1401",23,127,"Control",1,1,3,0,2.496,782
"1402",23,114,"Control",1,1,3,0,0.715,783
"1403",23,18,"Control",1,1,4,1,1.526,784
"1404",23,5,"Control",1,1,4,1,1.415,785
"1405",23,3,"Control",1,1,4,1,1.387,786
"1406",23,92,"Control",1,1,3,0,1.378,787
"1407",23,90,"Control",1,1,4,0,1.736,788
"1408",23,71,"Control",1,1,5,1,0.915,789
"1409",24,112,"Experimental",1,1,4,1,5.635,702
"1410",24,21,"Experimental",1,1,3,0,0.678,703
"1411",24,89,"Experimental",1,1,3,1,0.44,704
"1412",24,60,"Experimental",1,1,1,0,0.619,705
"1413",24,121,"Experimental",1,1,5,1,0.632,706
"1414",24,93,"Experimental",1,1,1,1,0.783,707
"1415",24,25,"Experimental",1,1,5,0,1.639,708
"1416",24,92,"Experimental",1,1,3,1,0.552,709
"1417",24,31,"Experimental",1,1,4,0,1.824,710
"1418",24,67,"Experimental",1,1,4,0,0.535,711
"1419",24,123,"Experimental",1,1,3,1,0.644,712
"1420",24,88,"Experimental",1,1,5,0,0.51,713
"1421",24,49,"Experimental",1,1,5,0,1.494,714
"1422",24,130,"Experimental",1,1,2,1,0.777,715
"1423",24,115,"Experimental",1,1,2,1,0.583,716
"1424",24,80,"Experimental",1,1,4,0,0.678,717
"1425",24,117,"Experimental",1,1,5,1,0.665,718
"1426",24,101,"Experimental",1,1,3,1,2.72,719
"1427",24,17,"Experimental",1,1,3,0,6.53,720
"1428",24,65,"Experimental",1,1,4,0,4.127,721
"1429",24,83,"Experimental",1,1,3,0,1.278,722
"1430",24,125,"Experimental",1,1,6,1,0.535,723
"1431",24,40,"Experimental",1,1,4,0,0.428,724
"1432",24,29,"Experimental",1,1,1,0,0.828,725
"1433",24,38,"Experimental",1,1,2,0,1.836,726
"1434",24,10,"Experimental",1,1,2,0,0.973,727
"1435",24,104,"Experimental",1,1,4,1,1.865,728
"1436",24,81,"Experimental",1,1,1,0,1.096,729
"1437",24,73,"Experimental",1,1,3,0,0.901,730
"1438",24,45,"Experimental",1,1,4,0,0.537,731
"1439",24,127,"Experimental",1,1,3,1,0.55,732
"1440",24,120,"Experimental",1,1,2,1,0.502,733
"1441",24,105,"Experimental",1,1,3,1,2.462,734
"1442",24,54,"Experimental",1,1,2,0,0.513,735
"1443",24,23,"Experimental",1,1,4,0,0.425,736
"1444",24,46,"Experimental",1,1,4,0,1.369,737
"1445",24,42,"Experimental",1,1,4,0,1.141,738
"1446",24,26,"Experimental",1,1,3,0,0.945,739
"1447",24,103,"Experimental",1,1,4,1,2.249,740
"1448",24,131,"Experimental",1,1,3,1,1.098,741
"1449",24,64,"Experimental",1,1,4,0,1.631,742
"1450",24,108,"Experimental",1,1,3,1,0.982,743
"1451",24,48,"Experimental",1,1,1,0,1.131,744
"1452",24,124,"Experimental",1,1,4,1,0.463,745
"1453",24,82,"Experimental",1,1,5,0,1.279,746
"1454",24,20,"Experimental",1,1,3,0,1.313,747
"1455",24,72,"Experimental",1,1,2,0,3.84,748
"1456",24,119,"Experimental",1,1,3,1,0.415,749
"1457",24,86,"Experimental",1,1,5,0,0.428,750
"1458",24,102,"Experimental",1,1,5,1,4.732,751
"1459",24,51,"Experimental",1,1,2,0,0.893,752
"1460",24,100,"Experimental",1,1,4,1,0.634,753
"1461",24,95,"Experimental",1,1,3,1,0.561,754
"1462",24,129,"Experimental",1,1,3,1,0.316,755
"1463",24,118,"Experimental",1,1,4,1,0.59,756
"1464",24,34,"Experimental",1,1,3,0,0.75,757
"1465",24,109,"Experimental",1,1,2,1,0.694,758
"1466",24,74,"Experimental",1,1,4,0,0.651,759
"1467",24,41,"Experimental",1,1,3,0,1.136,760
"1468",24,132,"Experimental",1,1,1,1,0.828,761
"1469",24,122,"Experimental",1,1,3,1,0.508,762
"1470",24,128,"Experimental",1,1,3,1,1.491,763
"1471",24,75,"Experimental",1,1,3,0,0.471,764
"1472",24,94,"Experimental",1,1,5,1,0.575,765
"1473",24,106,"Experimental",1,1,3,1,0.884,766
"1474",24,110,"Experimental",1,1,4,1,0.594,767
"1475",24,107,"Experimental",1,1,3,1,0.506,768
"1476",24,33,"Experimental",1,1,4,0,0.49,769
"1477",24,90,"Experimental",1,1,3,1,0.567,770
"1478",24,126,"Experimental",1,1,3,1,0.745,771
"1479",24,114,"Experimental",1,1,3,1,0.425,772
"1480",24,98,"Experimental",1,1,4,1,1.009,773
"1481",24,113,"Experimental",1,1,6,1,0.706,774
"1482",24,111,"Experimental",1,1,3,1,1.37,775
"1483",24,35,"Experimental",1,1,1,0,0.726,776
"1484",24,14,"Experimental",1,1,6,0,2.313,777
"1485",24,97,"Experimental",1,1,1,1,1.359,778
"1486",24,99,"Experimental",1,1,4,1,1.176,779
"1487",24,27,"Experimental",1,1,2,0,1.013,780
"1488",24,2,"Experimental",1,1,3,0,1.217,781
"1489",24,77,"Experimental",1,1,4,0,1.07,782
"1490",24,96,"Experimental",1,1,3,1,0.477,783
"1491",24,61,"Experimental",1,1,2,0,1.96,784
"1492",24,116,"Experimental",1,1,2,1,0.609,785
"1493",24,43,"Experimental",1,1,3,0,0.958,786
"1494",24,9,"Experimental",1,1,3,0,0.688,787
"1495",24,91,"Experimental",1,1,3,1,2.458,788
"1496",24,84,"Experimental",1,1,4,0,0.389,789
"1497",25,176,"Control",1,1,4,0,1.862,702
"1498",25,58,"Control",1,1,5,1,0.721,703
"1499",25,4,"Control",1,1,4,1,0.5,704
"1500",25,153,"Control",1,1,4,0,1.377,705
"1501",25,162,"Control",1,1,5,0,0.789,706
"1502",25,16,"Control",1,1,5,1,0.717,707
"1503",25,69,"Control",1,1,4,1,1.711,708
"1504",25,167,"Control",1,1,4,0,0.693,709
"1505",25,151,"Control",1,1,4,0,0.786,710
"1506",25,150,"Control",1,1,3,0,1.746,711
"1507",25,13,"Control",1,1,4,1,0.357,712
"1508",25,32,"Control",1,1,5,1,0.607,713
"1509",25,138,"Control",1,1,3,0,0.962,714
"1510",25,70,"Control",1,1,5,1,0.812,715
"1511",25,62,"Control",1,1,4,1,0.529,716
"1512",25,142,"Control",1,1,5,0,1.686,717
"1513",25,141,"Control",1,1,3,0,0.743,718
"1514",25,22,"Control",1,1,4,1,0.678,719
"1515",25,152,"Control",1,1,6,0,1.753,720
"1516",25,44,"Control",1,1,5,1,0.591,721
"1517",25,137,"Control",1,1,3,0,0.655,722
"1518",25,140,"Control",1,1,5,0,0.588,723
"1519",25,79,"Control",1,1,5,1,0.436,724
"1520",25,143,"Control",1,1,4,0,0.518,725
"1521",25,76,"Control",1,1,3,1,0.753,726
"1522",25,56,"Control",1,1,3,1,0.672,727
"1523",25,166,"Control",1,1,5,0,1.12,728
"1524",25,52,"Control",1,1,5,1,0.57,729
"1525",25,163,"Control",1,1,5,0,0.887,730
"1526",25,173,"Control",1,1,4,0,0.801,731
"1527",25,63,"Control",1,1,5,1,0.891,732
"1528",25,158,"Control",1,1,5,0,1.312,733
"1529",25,85,"Control",1,1,4,1,0.855,734
"1530",25,170,"Control",1,1,5,0,1.779,735
"1531",25,160,"Control",1,1,5,0,1.959,736
"1532",25,164,"Control",1,1,3,0,3.457,737
"1533",25,5,"Control",1,1,2,1,0.86,738
"1534",25,145,"Control",1,1,4,0,1.72,739
"1535",25,66,"Control",1,1,3,1,1.954,740
"1536",25,144,"Control",1,1,5,0,0.992,741
"1537",25,155,"Control",1,1,5,0,3.119,742
"1538",25,59,"Control",1,1,4,1,0.895,743
"1539",25,154,"Control",1,1,5,0,0.956,744
"1540",25,136,"Control",1,1,4,0,0.974,745
"1541",25,71,"Control",1,1,5,1,1.211,746
"1542",25,171,"Control",1,1,3,0,0.841,747
"1543",25,47,"Control",1,1,5,1,1.691,748
"1544",25,156,"Control",1,1,3,0,3.992,749
"1545",25,15,"Control",1,1,5,1,0.709,750
"1546",25,168,"Control",1,1,4,0,2.205,751
"1547",25,39,"Control",1,1,4,1,1.453,752
"1548",25,146,"Control",1,1,5,0,0.906,753
"1549",25,55,"Control",1,1,3,1,1.561,754
"1550",25,172,"Control",1,1,4,0,1.018,755
"1551",25,159,"Control",1,1,5,0,1.543,756
"1552",25,50,"Control",1,1,4,1,0.774,757
"1553",25,12,"Control",1,1,4,1,1.051,758
"1554",25,134,"Control",1,1,3,0,1.071,759
"1555",25,6,"Control",1,1,2,1,1.999,760
"1556",25,3,"Control",1,1,4,1,1.296,761
"1557",25,37,"Control",1,1,3,1,0.804,762
"1558",25,11,"Control",1,1,5,1,1.47,763
"1559",25,174,"Control",1,1,4,0,2.125,764
"1560",25,19,"Control",1,1,3,1,0.854,765
"1561",25,87,"Control",1,1,3,1,0.547,766
"1562",25,1,"Control",1,1,4,1,2.323,767
"1563",25,157,"Control",1,1,4,0,2.052,768
"1564",25,147,"Control",1,1,5,0,1.28,769
"1565",25,53,"Control",1,1,5,1,1.145,770
"1566",25,78,"Control",1,1,4,1,0.753,771
"1567",25,24,"Control",1,1,5,1,0.544,772
"1568",25,139,"Control",1,1,6,0,0.488,773
"1569",25,135,"Control",1,1,4,0,0.986,774
"1570",25,165,"Control",1,1,4,0,2.274,775
"1571",25,148,"Control",1,1,3,0,1.04,776
"1572",25,149,"Control",1,1,4,0,2.386,777
"1573",25,28,"Control",1,1,4,1,1.128,778
"1574",25,133,"Control",1,1,3,0,0.674,779
"1575",25,169,"Control",1,1,4,0,0.745,780
"1576",25,68,"Control",1,1,3,1,0.577,781
"1577",25,30,"Control",1,1,5,1,0.846,782
"1578",25,36,"Control",1,1,4,1,0.616,783
"1579",25,7,"Control",1,1,4,1,0.629,784
"1580",25,175,"Control",1,1,4,0,1.141,785
"1581",25,8,"Control",1,1,4,1,0.513,786
"1582",25,18,"Control",1,1,3,1,1.305,787
"1583",25,57,"Control",1,1,4,1,0.712,788
"1584",25,161,"Control",1,1,4,0,0.767,789
"1585",26,101,"Control",1,1,4,1,0.778,702
"1586",26,119,"Control",1,1,2,1,0.543,703
"1587",26,93,"Control",1,1,1,1,0.615,704
"1588",26,29,"Control",1,1,4,0,0.524,705
"1589",26,80,"Control",1,1,2,0,0.51,706
"1590",26,49,"Control",1,1,4,0,0.43,707
"1591",26,84,"Control",1,1,5,0,0.51,708
"1592",26,67,"Control",1,1,5,0,0.918,709
"1593",26,41,"Control",1,1,4,0,0.944,710
"1594",26,40,"Control",1,1,3,0,1.087,711
"1595",26,132,"Control",1,1,3,1,0.801,712
"1596",26,72,"Control",1,1,3,0,0.541,713
"1597",26,106,"Control",1,1,5,1,0.602,714
"1598",26,86,"Control",1,1,4,0,0.676,715
"1599",26,17,"Control",1,1,4,0,0.407,716
"1600",26,129,"Control",1,1,5,1,0.881,717
"1601",26,98,"Control",1,1,1,1,0.467,718
"1602",26,96,"Control",1,1,5,1,0.546,719
"1603",26,115,"Control",1,1,3,1,0.506,720
"1604",26,97,"Control",1,1,3,1,0.514,721
"1605",26,35,"Control",1,1,3,0,0.561,722
"1606",26,74,"Control",1,1,4,0,0.484,723
"1607",26,89,"Control",1,1,3,1,0.422,724
"1608",26,21,"Control",1,1,5,0,0.654,725
"1609",26,95,"Control",1,1,3,1,0.555,726
"1610",26,107,"Control",1,1,4,1,0.442,727
"1611",26,81,"Control",1,1,3,0,0.869,728
"1612",26,121,"Control",1,1,4,1,0.844,729
"1613",26,122,"Control",1,1,4,1,0.806,730
"1614",26,114,"Control",1,1,4,1,0.608,731
"1615",26,9,"Control",1,1,3,0,1.261,732
"1616",26,108,"Control",1,1,4,1,1.137,733
"1617",26,42,"Control",1,1,4,0,1.357,734
"1618",26,124,"Control",1,1,6,1,0.703,735
"1619",26,94,"Control",1,1,3,1,1.27,736
"1620",26,75,"Control",1,1,4,0,0.477,737
"1621",26,77,"Control",1,1,2,0,0.632,738
"1622",26,31,"Control",1,1,3,0,0.585,739
"1623",26,88,"Control",1,1,2,0,1.089,740
"1624",26,109,"Control",1,1,4,1,0.493,741
"1625",26,116,"Control",1,1,4,1,0.658,742
"1626",26,128,"Control",1,1,3,1,0.975,743
"1627",26,100,"Control",1,1,5,1,0.628,744
"1628",26,83,"Control",1,1,3,0,0.868,745
"1629",26,110,"Control",1,1,4,1,0.675,746
"1630",26,131,"Control",1,1,3,1,0.733,747
"1631",26,118,"Control",1,1,3,1,0.586,748
"1632",26,64,"Control",1,1,5,0,0.538,749
"1633",26,10,"Control",1,1,3,0,2.383,750
"1634",26,54,"Control",1,1,3,0,0.469,751
"1635",26,123,"Control",1,1,2,1,0.533,752
"1636",26,125,"Control",1,1,1,1,1.05,753
"1637",26,102,"Control",1,1,3,1,0.831,754
"1638",26,111,"Control",1,1,3,1,0.598,755
"1639",26,60,"Control",1,1,5,0,0.576,756
"1640",26,92,"Control",1,1,3,1,0.605,757
"1641",26,48,"Control",1,1,4,0,0.616,758
"1642",26,104,"Control",1,1,2,1,6.733,759
"1643",26,105,"Control",1,1,4,1,0.97,760
"1644",26,117,"Control",1,1,5,1,0.823,761
"1645",26,90,"Control",1,1,3,1,0.878,762
"1646",26,65,"Control",1,1,5,0,0.536,763
"1647",26,26,"Control",1,1,4,0,0.413,764
"1648",26,33,"Control",1,1,3,0,0.468,765
"1649",26,27,"Control",1,1,4,0,0.7,766
"1650",26,82,"Control",1,1,5,0,2.13,767
"1651",26,113,"Control",1,1,3,1,0.45,768
"1652",26,112,"Control",1,1,4,1,0.455,769
"1653",26,73,"Control",1,1,4,0,0.484,770
"1654",26,34,"Control",1,1,4,0,0.462,771
"1655",26,43,"Control",1,1,4,0,1.518,772
"1656",26,45,"Control",1,1,4,0,0.944,773
"1657",26,38,"Control",1,1,5,0,0.575,774
"1658",26,51,"Control",1,1,4,0,0.524,775
"1659",26,126,"Control",1,1,3,1,0.462,776
"1660",26,103,"Control",1,1,4,1,0.87,777
"1661",26,14,"Control",1,1,3,0,1.254,778
"1662",26,46,"Control",1,1,3,0,0.538,779
"1663",26,20,"Control",1,1,4,0,0.495,780
"1664",26,2,"Control",1,1,5,0,0.868,781
"1665",26,61,"Control",1,1,3,0,1.796,782
"1666",26,127,"Control",1,1,4,1,1.05,783
"1667",26,91,"Control",1,1,3,1,0.679,784
"1668",26,25,"Control",1,1,4,0,0.697,785
"1669",26,99,"Control",1,1,5,1,0.646,786
"1670",26,130,"Control",1,1,3,1,0.608,787
"1671",26,120,"Control",1,1,4,1,0.509,788
"1672",26,23,"Control",1,1,3,0,0.717,789
"1673",27,19,"Experimental",1,1,2,0,4.418,702
"1674",27,57,"Experimental",1,1,5,0,2.683,703
"1675",27,50,"Experimental",1,1,3,0,3.077,704
"1676",27,123,"Experimental",1,1,4,1,2.794,705
"1677",27,127,"Experimental",1,1,4,1,0.52,706
"1678",27,102,"Experimental",1,1,3,1,0.778,707
"1679",27,69,"Experimental",1,1,5,0,0.575,708
"1680",27,16,"Experimental",1,1,3,0,1.26,709
"1681",27,109,"Experimental",1,1,5,1,0.568,710
"1682",27,110,"Experimental",1,1,5,1,2.187,711
"1683",27,85,"Experimental",1,1,4,0,0.785,712
"1684",27,105,"Experimental",1,1,3,1,1.096,713
"1685",27,106,"Experimental",1,1,3,1,0.493,714
"1686",27,115,"Experimental",1,1,3,1,1.09,715
"1687",27,107,"Experimental",1,1,4,1,1.59,716
"1688",27,36,"Experimental",1,1,4,0,0.933,717
"1689",27,7,"Experimental",1,1,2,0,0.858,718
"1690",27,113,"Experimental",1,1,5,1,0.695,719
"1691",27,76,"Experimental",1,1,3,0,0.548,720
"1692",27,68,"Experimental",1,1,3,0,0.555,721
"1693",27,132,"Experimental",1,1,3,1,0.59,722
"1694",27,125,"Experimental",1,1,3,1,0.565,723
"1695",27,53,"Experimental",1,1,5,0,0.68,724
"1696",27,56,"Experimental",1,1,2,0,1.746,725
"1697",27,103,"Experimental",1,1,2,1,0.613,726
"1698",27,124,"Experimental",1,1,6,1,0.914,727
"1699",27,5,"Experimental",1,1,2,0,0.802,728
"1700",27,39,"Experimental",1,1,3,0,1.236,729
"1701",27,99,"Experimental",1,1,5,1,1.038,730
"1702",27,44,"Experimental",1,1,4,0,0.792,731
"1703",27,118,"Experimental",1,1,3,1,1.687,732
"1704",27,128,"Experimental",1,1,1,1,0.84,733
"1705",27,13,"Experimental",1,1,4,0,1.451,734
"1706",27,120,"Experimental",1,1,3,1,1.319,735
"1707",27,130,"Experimental",1,1,3,1,1.288,736
"1708",27,126,"Experimental",1,1,1,1,1.154,737
"1709",27,104,"Experimental",1,1,6,1,0.793,738
"1710",27,116,"Experimental",1,1,5,1,0.673,739
"1711",27,4,"Experimental",1,1,3,0,0.616,740
"1712",27,58,"Experimental",1,1,3,0,0.813,741
"1713",27,112,"Experimental",1,1,3,1,0.762,742
"1714",27,71,"Experimental",1,1,2,0,0.836,743
"1715",27,96,"Experimental",1,1,5,1,0.679,744
"1716",27,117,"Experimental",1,1,3,1,3.929,745
"1717",27,131,"Experimental",1,1,3,1,1.432,746
"1718",27,24,"Experimental",1,1,4,0,0.663,747
"1719",27,97,"Experimental",1,1,6,1,2.159,748
"1720",27,90,"Experimental",1,1,3,1,0.535,749
"1721",27,37,"Experimental",1,1,3,0,1.981,750
"1722",27,79,"Experimental",1,1,4,0,1.515,751
"1723",27,93,"Experimental",1,1,2,1,1.648,752
"1724",27,101,"Experimental",1,1,3,1,0.665,753
"1725",27,11,"Experimental",1,1,4,0,0.745,754
"1726",27,122,"Experimental",1,1,3,1,0.56,755
"1727",27,30,"Experimental",1,1,2,0,0.859,756
"1728",27,59,"Experimental",1,1,3,0,0.623,757
"1729",27,98,"Experimental",1,1,4,1,0.83,758
"1730",27,87,"Experimental",1,1,2,0,0.694,759
"1731",27,119,"Experimental",1,1,5,1,0.619,760
"1732",27,78,"Experimental",1,1,2,0,0.736,761
"1733",27,89,"Experimental",1,1,2,1,0.557,762
"1734",27,94,"Experimental",1,1,2,1,0.559,763
"1735",27,47,"Experimental",1,1,1,0,2.401,764
"1736",27,91,"Experimental",1,1,3,1,2.323,765
"1737",27,92,"Experimental",1,1,4,1,0.564,766
"1738",27,63,"Experimental",1,1,4,0,1.526,767
"1739",27,121,"Experimental",1,1,4,1,0.479,768
"1740",27,62,"Experimental",1,1,2,0,1.386,769
"1741",27,129,"Experimental",1,1,4,1,0.737,770
"1742",27,95,"Experimental",1,1,4,1,0.766,771
"1743",27,70,"Experimental",1,1,2,0,1.04,772
"1744",27,15,"Experimental",1,1,3,0,0.866,773
"1745",27,8,"Experimental",1,1,4,0,0.754,774
"1746",27,66,"Experimental",1,1,1,0,0.904,775
"1747",27,52,"Experimental",1,1,3,0,3.064,776
"1748",27,18,"Experimental",1,1,4,0,1.238,777
"1749",27,3,"Experimental",1,1,4,0,0.552,778
"1750",27,111,"Experimental",1,1,4,1,0.823,779
"1751",27,100,"Experimental",1,1,4,1,0.655,780
"1752",27,22,"Experimental",1,1,3,0,0.732,781
"1753",27,6,"Experimental",1,1,4,0,1.305,782
"1754",27,28,"Experimental",1,1,3,0,0.904,783
"1755",27,114,"Experimental",1,1,3,1,0.551,784
"1756",27,32,"Experimental",1,1,4,0,0.983,785
"1757",27,108,"Experimental",1,1,3,1,1.254,786
"1758",27,55,"Experimental",1,1,5,0,1.146,787
"1759",27,12,"Experimental",1,1,3,0,0.69,788
"1760",27,1,"Experimental",1,1,2,0,1.671,789
"1761",28,80,"Experimental",1,1,4,0,1.953,702
"1762",28,65,"Experimental",1,1,3,0,1.583,703
"1763",28,164,"Experimental",1,1,6,1,0.806,704
"1764",28,152,"Experimental",1,1,6,1,0.768,705
"1765",28,144,"Experimental",1,1,6,1,0.909,706
"1766",28,45,"Experimental",1,1,2,0,0.996,707
"1767",28,169,"Experimental",1,1,6,1,0.758,708
"1768",28,46,"Experimental",1,1,5,0,0.88,709
"1769",28,10,"Experimental",1,1,3,0,1.69,710
"1770",28,21,"Experimental",1,1,4,0,1.446,711
"1771",28,29,"Experimental",1,1,2,0,0.552,712
"1772",28,64,"Experimental",1,1,4,0,0.728,713
"1773",28,140,"Experimental",1,1,6,1,0.682,714
"1774",28,167,"Experimental",1,1,6,1,0.708,715
"1775",28,176,"Experimental",1,1,6,1,0.716,716
"1776",28,161,"Experimental",1,1,6,1,0.718,717
"1777",28,74,"Experimental",1,1,3,0,1.256,718
"1778",28,151,"Experimental",1,1,6,1,0.748,719
"1779",28,48,"Experimental",1,1,3,0,0.819,720
"1780",28,165,"Experimental",1,1,6,1,1.288,721
"1781",28,173,"Experimental",1,1,4,1,0.818,722
"1782",28,171,"Experimental",1,1,3,1,1.559,723
"1783",28,138,"Experimental",1,1,6,1,0.896,724
"1784",28,49,"Experimental",1,1,2,0,1.093,725
"1785",28,34,"Experimental",1,1,3,0,1.105,726
"1786",28,134,"Experimental",1,1,4,1,1.081,727
"1787",28,77,"Experimental",1,1,2,0,0.594,728
"1788",28,88,"Experimental",1,1,1,0,0.661,729
"1789",28,160,"Experimental",1,1,5,1,1.482,730
"1790",28,159,"Experimental",1,1,4,1,0.547,731
"1791",28,157,"Experimental",1,1,5,1,1.035,732
"1792",28,82,"Experimental",1,1,4,0,0.837,733
"1793",28,84,"Experimental",1,1,3,0,0.511,734
"1794",28,174,"Experimental",1,1,5,1,0.719,735
"1795",28,153,"Experimental",1,1,5,1,0.673,736
"1796",28,31,"Experimental",1,1,3,0,1.001,737
"1797",28,73,"Experimental",1,1,3,0,0.939,738
"1798",28,162,"Experimental",1,1,5,1,0.719,739
"1799",28,43,"Experimental",1,1,3,0,0.698,740
"1800",28,81,"Experimental",1,1,3,0,0.854,741
"1801",28,170,"Experimental",1,1,4,1,0.883,742
"1802",28,20,"Experimental",1,1,3,0,0.621,743
"1803",28,137,"Experimental",1,1,5,1,0.781,744
"1804",28,158,"Experimental",1,1,5,1,0.602,745
"1805",28,40,"Experimental",1,1,3,0,1.364,746
"1806",28,141,"Experimental",1,1,4,1,0.622,747
"1807",28,27,"Experimental",1,1,2,0,1.373,748
"1808",28,51,"Experimental",1,1,2,0,0.954,749
"1809",28,150,"Experimental",1,1,5,1,0.641,750
"1810",28,139,"Experimental",1,1,3,1,1.275,751
"1811",28,148,"Experimental",1,1,3,1,1.413,752
"1812",28,145,"Experimental",1,1,4,1,1.233,753
"1813",28,133,"Experimental",1,1,3,1,0.616,754
"1814",28,163,"Experimental",1,1,5,1,0.557,755
"1815",28,156,"Experimental",1,1,5,1,0.544,756
"1816",28,67,"Experimental",1,1,4,0,1.096,757
"1817",28,142,"Experimental",1,1,5,1,1.412,758
"1818",28,60,"Experimental",1,1,3,0,1.36,759
"1819",28,143,"Experimental",1,1,5,1,1.026,760
"1820",28,168,"Experimental",1,1,3,1,0.481,761
"1821",28,54,"Experimental",1,1,5,0,0.708,762
"1822",28,166,"Experimental",1,1,3,1,0.747,763
"1823",28,9,"Experimental",1,1,2,0,2.179,764
"1824",28,83,"Experimental",1,1,4,0,0.55,765
"1825",28,33,"Experimental",1,1,2,0,0.55,766
"1826",28,25,"Experimental",1,1,3,0,0.678,767
"1827",28,41,"Experimental",1,1,2,0,1.28,768
"1828",28,23,"Experimental",1,1,2,0,1.09,769
"1829",28,154,"Experimental",1,1,6,1,0.614,770
"1830",28,75,"Experimental",1,1,2,0,1.003,771
"1831",28,147,"Experimental",1,1,5,1,0.813,772
"1832",28,14,"Experimental",1,1,3,0,1.018,773
"1833",28,2,"Experimental",1,1,4,0,0.447,774
"1834",28,146,"Experimental",1,1,5,1,0.625,775
"1835",28,135,"Experimental",1,1,5,1,0.553,776
"1836",28,136,"Experimental",1,1,4,1,0.697,777
"1837",28,149,"Experimental",1,1,5,1,1.366,778
"1838",28,61,"Experimental",1,1,5,0,0.831,779
"1839",28,17,"Experimental",1,1,4,0,1.111,780
"1840",28,155,"Experimental",1,1,5,1,0.814,781
"1841",28,26,"Experimental",1,1,2,0,0.467,782
"1842",28,172,"Experimental",1,1,4,1,0.746,783
"1843",28,86,"Experimental",1,1,2,0,1.498,784
"1844",28,35,"Experimental",1,1,2,0,0.606,785
"1845",28,38,"Experimental",1,1,3,0,0.568,786
"1846",28,175,"Experimental",1,1,6,1,0.87,787
"1847",28,72,"Experimental",1,1,5,0,0.701,788
"1848",28,42,"Experimental",1,1,3,0,0.922,789
"1849",29,56,"Experimental",1,1,2,0,2.27,702
"1850",29,150,"Experimental",1,1,4,1,1.884,703
"1851",29,85,"Experimental",1,1,4,0,0.654,704
"1852",29,176,"Experimental",1,1,5,1,1.027,705
"1853",29,136,"Experimental",1,1,5,1,0.642,706
"1854",29,68,"Experimental",1,1,3,0,0.908,707
"1855",29,37,"Experimental",1,1,4,0,1.547,708
"1856",29,13,"Experimental",1,1,3,0,0.954,709
"1857",29,36,"Experimental",1,1,4,0,0.402,710
"1858",29,28,"Experimental",1,1,4,0,0.492,711
"1859",29,172,"Experimental",1,1,2,1,0.585,712
"1860",29,55,"Experimental",1,1,3,0,0.729,713
"1861",29,171,"Experimental",1,1,3,1,1.158,714
"1862",29,141,"Experimental",1,1,4,1,0.496,715
"1863",29,167,"Experimental",1,1,3,1,1.013,716
"1864",29,147,"Experimental",1,1,5,1,1.041,717
"1865",29,76,"Experimental",1,1,4,0,0.546,718
"1866",29,161,"Experimental",1,1,4,1,0.522,719
"1867",29,62,"Experimental",1,1,5,0,1.132,720
"1868",29,39,"Experimental",1,1,4,0,0.561,721
"1869",29,157,"Experimental",1,1,2,1,0.827,722
"1870",29,152,"Experimental",1,1,4,1,0.475,723
"1871",29,63,"Experimental",1,1,4,0,6.998,724
"1872",29,174,"Experimental",1,1,5,1,0.656,725
"1873",29,5,"Experimental",1,1,3,0,0.597,726
"1874",29,165,"Experimental",1,1,4,1,1.527,727
"1875",29,133,"Experimental",1,1,4,1,0.497,728
"1876",29,162,"Experimental",1,1,3,1,0.662,729
"1877",29,145,"Experimental",1,1,4,1,0.525,730
"1878",29,69,"Experimental",1,1,5,0,0.544,731
"1879",29,149,"Experimental",1,1,4,1,1.28,732
"1880",29,18,"Experimental",1,1,4,0,0.553,733
"1881",29,163,"Experimental",1,1,4,1,0.689,734
"1882",29,52,"Experimental",1,1,3,0,0.43,735
"1883",29,4,"Experimental",1,1,3,0,1.15,736
"1884",29,3,"Experimental",1,1,3,0,0.805,737
"1885",29,175,"Experimental",1,1,4,1,0.687,738
"1886",29,47,"Experimental",1,1,3,0,0.873,739
"1887",29,57,"Experimental",1,1,5,0,0.857,740
"1888",29,11,"Experimental",1,1,4,0,1.07,741
"1889",29,50,"Experimental",1,1,4,0,0.821,742
"1890",29,139,"Experimental",1,1,3,1,0.626,743
"1891",29,160,"Experimental",1,1,2,1,1.257,744
"1892",29,15,"Experimental",1,1,3,0,1.694,745
"1893",29,135,"Experimental",1,1,3,1,0.802,746
"1894",29,66,"Experimental",1,1,2,0,0.564,747
"1895",29,143,"Experimental",1,1,4,1,0.59,748
"1896",29,78,"Experimental",1,1,5,0,0.702,749
"1897",29,32,"Experimental",1,1,5,0,0.539,750
"1898",29,166,"Experimental",1,1,2,1,0.68,751
"1899",29,87,"Experimental",1,1,3,0,0.497,752
"1900",29,146,"Experimental",1,1,6,1,0.59,753
"1901",29,16,"Experimental",1,1,5,0,1.15,754
"1902",29,142,"Experimental",1,1,6,1,2.47,755
"1903",29,159,"Experimental",1,1,4,1,0.884,756
"1904",29,164,"Experimental",1,1,4,1,0.541,757
"1905",29,30,"Experimental",1,1,5,0,0.486,758
"1906",29,138,"Experimental",1,1,4,1,0.559,759
"1907",29,153,"Experimental",1,1,4,1,0.986,760
"1908",29,168,"Experimental",1,1,3,1,0.609,761
"1909",29,148,"Experimental",1,1,4,1,0.574,762
"1910",29,22,"Experimental",1,1,4,0,0.563,763
"1911",29,151,"Experimental",1,1,4,1,0.869,764
"1912",29,173,"Experimental",1,1,3,1,0.949,765
"1913",29,140,"Experimental",1,1,5,1,0.788,766
"1914",29,58,"Experimental",1,1,4,0,1.004,767
"1915",29,155,"Experimental",1,1,4,1,0.83,768
"1916",29,156,"Experimental",1,1,4,1,0.645,769
"1917",29,144,"Experimental",1,1,5,1,0.847,770
"1918",29,71,"Experimental",1,1,4,0,0.594,771
"1919",29,12,"Experimental",1,1,4,0,0.657,772
"1920",29,154,"Experimental",1,1,6,1,0.742,773
"1921",29,44,"Experimental",1,1,4,0,0.798,774
"1922",29,70,"Experimental",1,1,4,0,0.792,775
"1923",29,7,"Experimental",1,1,4,0,0.511,776
"1924",29,169,"Experimental",1,1,3,1,0.671,777
"1925",29,134,"Experimental",1,1,4,1,0.519,778
"1926",29,137,"Experimental",1,1,4,1,0.561,779
"1927",29,8,"Experimental",1,1,3,0,0.908,780
"1928",29,1,"Experimental",1,1,4,0,0.371,781
"1929",29,19,"Experimental",1,1,3,0,0.432,782
"1930",29,24,"Experimental",1,1,4,0,0.512,783
"1931",29,170,"Experimental",1,1,4,1,0.864,784
"1932",29,53,"Experimental",1,1,5,0,0.575,785
"1933",29,59,"Experimental",1,1,4,0,0.555,786
"1934",29,6,"Experimental",1,1,4,0,1.439,787
"1935",29,158,"Experimental",1,1,4,1,0.519,788
"1936",29,79,"Experimental",1,1,5,0,0.538,789
"1937",3,117,"Experimental",1,1,5,0,2.591,702
"1938",3,131,"Experimental",1,1,5,0,0.668,703
"1939",3,32,"Experimental",1,1,6,1,0.764,704
"1940",3,13,"Experimental",1,1,4,1,0.638,705
"1941",3,44,"Experimental",1,1,4,1,0.713,706
"1942",3,115,"Experimental",1,1,2,0,0.6,707
"1943",3,89,"Experimental",1,1,3,0,0.459,708
"1944",3,70,"Experimental",1,1,5,1,0.648,709
"1945",3,12,"Experimental",1,1,5,1,0.53,710
"1946",3,18,"Experimental",1,1,5,1,0.591,711
"1947",3,4,"Experimental",1,1,5,1,0.59,712
"1948",3,24,"Experimental",1,1,3,1,0.589,713
"1949",3,101,"Experimental",1,1,3,0,0.573,714
"1950",3,69,"Experimental",1,1,5,1,0.618,715
"1951",3,108,"Experimental",1,1,2,0,0.607,716
"1952",3,71,"Experimental",1,1,5,1,0.882,717
"1953",3,15,"Experimental",1,1,6,1,0.756,718
"1954",3,19,"Experimental",1,1,4,1,0.542,719
"1955",3,114,"Experimental",1,1,3,0,0.517,720
"1956",3,85,"Experimental",1,1,5,1,0.696,721
"1957",3,107,"Experimental",1,1,4,0,0.557,722
"1958",3,129,"Experimental",1,1,3,0,0.527,723
"1959",3,28,"Experimental",1,1,5,1,0.617,724
"1960",3,36,"Experimental",1,1,5,1,0.614,725
"1961",3,8,"Experimental",1,1,3,1,0.443,726
"1962",3,78,"Experimental",1,1,5,1,0.622,727
"1963",3,87,"Experimental",1,1,6,1,0.741,728
"1964",3,112,"Experimental",1,1,3,0,0.53,729
"1965",3,22,"Experimental",1,1,3,1,0.527,730
"1966",3,103,"Experimental",1,1,5,0,0.746,731
"1967",3,123,"Experimental",1,1,3,0,0.513,732
"1968",3,113,"Experimental",1,1,2,0,1.113,733
"1969",3,124,"Experimental",1,1,4,0,0.832,734
"1970",3,90,"Experimental",1,1,3,0,0.536,735
"1971",3,93,"Experimental",1,1,1,0,0.812,736
"1972",3,132,"Experimental",1,1,5,0,0.834,737
"1973",3,76,"Experimental",1,1,6,1,0.632,738
"1974",3,94,"Experimental",1,1,5,0,0.576,739
"1975",3,106,"Experimental",1,1,3,0,0.573,740
"1976",3,3,"Experimental",1,1,5,1,0.602,741
"1977",3,128,"Experimental",1,1,4,0,0.572,742
"1978",3,58,"Experimental",1,1,5,1,0.489,743
"1979",3,109,"Experimental",1,1,2,0,1.022,744
"1980",3,118,"Experimental",1,1,2,0,0.749,745
"1981",3,116,"Experimental",1,1,5,0,0.541,746
"1982",3,1,"Experimental",1,1,5,1,0.746,747
"1983",3,47,"Experimental",1,1,4,1,0.482,748
"1984",3,30,"Experimental",1,1,6,1,0.748,749
"1985",3,92,"Experimental",1,1,3,0,0.564,750
"1986",3,52,"Experimental",1,1,4,1,0.502,751
"1987",3,79,"Experimental",1,1,5,1,0.718,752
"1988",3,5,"Experimental",1,1,3,1,0.528,753
"1989",3,53,"Experimental",1,1,6,1,0.626,754
"1990",3,127,"Experimental",1,1,4,0,0.514,755
"1991",3,59,"Experimental",1,1,5,1,0.83,756
"1992",3,56,"Experimental",1,1,6,1,0.693,757
"1993",3,37,"Experimental",1,1,2,1,0.69,758
"1994",3,63,"Experimental",1,1,4,1,0.519,759
"1995",3,50,"Experimental",1,1,4,1,0.538,760
"1996",3,16,"Experimental",1,1,3,1,0.543,761
"1997",3,122,"Experimental",1,1,6,0,0.838,762
"1998",3,104,"Experimental",1,1,5,0,0.76,763
"1999",3,130,"Experimental",1,1,2,0,0.602,764
"2000",3,98,"Experimental",1,1,5,0,0.74,765
"2001",3,99,"Experimental",1,1,4,0,0.697,766
"2002",3,119,"Experimental",1,1,3,0,0.605,767
"2003",3,6,"Experimental",1,1,5,1,0.673,768
"2004",3,126,"Experimental",1,1,3,0,0.623,769
"2005",3,66,"Experimental",1,1,2,1,0.663,770
"2006",3,62,"Experimental",1,1,4,1,0.551,771
"2007",3,7,"Experimental",1,1,4,1,0.558,772
"2008",3,111,"Experimental",1,1,2,0,0.745,773
"2009",3,97,"Experimental",1,1,6,0,0.714,774
"2010",3,68,"Experimental",1,1,4,1,0.666,775
"2011",3,105,"Experimental",1,1,3,0,0.657,776
"2012",3,102,"Experimental",1,1,4,0,0.654,777
"2013",3,91,"Experimental",1,1,4,0,0.579,778
"2014",3,55,"Experimental",1,1,6,1,0.8,779
"2015",3,57,"Experimental",1,1,4,1,0.778,780
"2016",3,121,"Experimental",1,1,3,0,0.575,781
"2017",3,125,"Experimental",1,1,4,0,0.476,782
"2018",3,110,"Experimental",1,1,4,0,1.159,783
"2019",3,11,"Experimental",1,1,5,1,0.696,784
"2020",3,100,"Experimental",1,1,3,0,0.613,785
"2021",3,96,"Experimental",1,1,5,0,0.65,786
"2022",3,120,"Experimental",1,1,3,0,0.591,787
"2023",3,39,"Experimental",1,1,4,1,0.559,788
"2024",3,95,"Experimental",1,1,3,0,0.481,789
"2025",30,93,"Control",1,1,2,1,1.16,702
"2026",30,3,"Control",1,1,3,0,1.914,703
"2027",30,115,"Control",1,1,3,1,1.584,704
"2028",30,97,"Control",1,1,1,1,1.151,705
"2029",30,98,"Control",1,1,3,1,0.662,706
"2030",30,6,"Control",1,1,3,0,1.134,707
"2031",30,107,"Control",1,1,5,1,0.626,708
"2032",30,8,"Control",1,1,6,0,0.674,709
"2033",30,120,"Control",1,1,5,1,0.865,710
"2034",30,19,"Control",1,1,1,0,2.689,711
"2035",30,114,"Control",1,1,5,1,0.673,712
"2036",30,132,"Control",1,1,5,1,0.929,713
"2037",30,18,"Control",1,1,3,0,1.734,714
"2038",30,13,"Control",1,1,6,0,1.49,715
"2039",30,85,"Control",1,1,4,0,0.998,716
"2040",30,78,"Control",1,1,3,0,0.672,717
"2041",30,32,"Control",1,1,4,0,1.751,718
"2042",30,127,"Control",1,1,5,1,1.094,719
"2043",30,58,"Control",1,1,4,0,1.218,720
"2044",30,106,"Control",1,1,3,1,0.487,721
"2045",30,121,"Control",1,1,1,1,0.833,722
"2046",30,124,"Control",1,1,3,1,1.025,723
"2047",30,28,"Control",1,1,3,0,1.048,724
"2048",30,5,"Control",1,1,5,0,0.586,725
"2049",30,71,"Control",1,1,4,0,0.97,726
"2050",30,117,"Control",1,1,6,1,1.806,727
"2051",30,118,"Control",1,1,5,1,1.304,728
"2052",30,7,"Control",1,1,4,0,0.88,729
"2053",30,89,"Control",1,1,4,1,0.842,730
"2054",30,47,"Control",1,1,4,0,3.861,731
"2055",30,22,"Control",1,1,4,0,1.191,732
"2056",30,69,"Control",1,1,5,0,1.182,733
"2057",30,52,"Control",1,1,4,0,3.635,734
"2058",30,16,"Control",1,1,4,0,2.136,735
"2059",30,104,"Control",1,1,6,1,2.835,736
"2060",30,30,"Control",1,1,5,0,0.921,737
"2061",30,92,"Control",1,1,3,1,0.836,738
"2062",30,113,"Control",1,1,6,1,1.053,739
"2063",30,11,"Control",1,1,5,0,1.129,740
"2064",30,12,"Control",1,1,5,0,0.783,741
"2065",30,123,"Control",1,1,4,1,1.198,742
"2066",30,103,"Control",1,1,5,1,1.072,743
"2067",30,37,"Control",1,1,1,0,1.199,744
"2068",30,101,"Control",1,1,5,1,1.529,745
"2069",30,100,"Control",1,1,5,1,1.291,746
"2070",30,130,"Control",1,1,5,1,0.815,747
"2071",30,24,"Control",1,1,4,0,1.22,748
"2072",30,55,"Control",1,1,6,0,1.112,749
"2073",30,1,"Control",1,1,3,0,0.944,750
"2074",30,53,"Control",1,1,3,0,1.159,751
"2075",30,66,"Control",1,1,3,0,2.569,752
"2076",30,128,"Control",1,1,4,1,0.713,753
"2077",30,70,"Control",1,1,2,0,1.321,754
"2078",30,111,"Control",1,1,5,1,0.786,755
"2079",30,87,"Control",1,1,4,0,1.386,756
"2080",30,94,"Control",1,1,1,1,1.001,757
"2081",30,126,"Control",1,1,6,1,1.739,758
"2082",30,116,"Control",1,1,5,1,1.263,759
"2083",30,102,"Control",1,1,4,1,1.406,760
"2084",30,50,"Control",1,1,3,0,1.279,761
"2085",30,112,"Control",1,1,1,1,2.081,762
"2086",30,95,"Control",1,1,5,1,0.762,763
"2087",30,90,"Control",1,1,6,1,1.284,764
"2088",30,99,"Control",1,1,3,1,0.618,765
"2089",30,105,"Control",1,1,3,1,0.967,766
"2090",30,39,"Control",1,1,4,0,0.993,767
"2091",30,125,"Control",1,1,6,1,1.057,768
"2092",30,59,"Control",1,1,3,0,0.877,769
"2093",30,36,"Control",1,1,4,0,1.919,770
"2094",30,110,"Control",1,1,3,1,1.241,771
"2095",30,108,"Control",1,1,4,1,1.874,772
"2096",30,109,"Control",1,1,4,1,0.849,773
"2097",30,96,"Control",1,1,5,1,0.83,774
"2098",30,44,"Control",1,1,6,0,2.477,775
"2099",30,119,"Control",1,1,5,1,0.966,776
"2100",30,131,"Control",1,1,3,1,0.848,777
"2101",30,4,"Control",1,1,3,0,0.994,778
"2102",30,57,"Control",1,1,4,0,0.681,779
"2103",30,56,"Control",1,1,3,0,2.299,780
"2104",30,63,"Control",1,1,2,0,2.063,781
"2105",30,129,"Control",1,1,4,1,5.822,782
"2106",30,15,"Control",1,1,2,0,1.406,783
"2107",30,68,"Control",1,1,4,0,1.504,784
"2108",30,62,"Control",1,1,4,0,4.215,785
"2109",30,76,"Control",1,1,4,0,2.025,786
"2110",30,91,"Control",1,1,4,1,1.472,787
"2111",30,122,"Control",1,1,3,1,1.414,788
"2112",30,79,"Control",1,1,3,0,1.499,789
"2113",31,72,"Control",1,1,5,0,4.127,702
"2114",31,165,"Control",1,1,5,1,0.606,703
"2115",31,156,"Control",1,1,6,1,0.632,704
"2116",31,81,"Control",1,1,3,0,2.544,705
"2117",31,144,"Control",1,1,6,1,0.822,706
"2118",31,151,"Control",1,1,1,1,1.005,707
"2119",31,143,"Control",1,1,2,1,0.679,708
"2120",31,171,"Control",1,1,3,1,0.737,709
"2121",31,75,"Control",1,1,4,0,0.542,710
"2122",31,73,"Control",1,1,4,0,0.846,711
"2123",31,142,"Control",1,1,3,1,0.52,712
"2124",31,77,"Control",1,1,4,0,0.547,713
"2125",31,154,"Control",1,1,5,1,0.738,714
"2126",31,49,"Control",1,1,3,0,1.583,715
"2127",31,25,"Control",1,1,5,0,0.734,716
"2128",31,164,"Control",1,1,5,1,1.235,717
"2129",31,43,"Control",1,1,2,0,2.498,718
"2130",31,137,"Control",1,1,3,1,0.669,719
"2131",31,35,"Control",1,1,2,0,1.181,720
"2132",31,40,"Control",1,1,2,0,3.082,721
"2133",31,51,"Control",1,1,2,0,3.098,722
"2134",31,173,"Control",1,1,2,1,0.861,723
"2135",31,149,"Control",1,1,5,1,0.906,724
"2136",31,166,"Control",1,1,6,1,0.801,725
"2137",31,74,"Control",1,1,5,0,0.747,726
"2138",31,136,"Control",1,1,4,1,0.579,727
"2139",31,64,"Control",1,1,2,0,1.32,728
"2140",31,134,"Control",1,1,6,1,0.721,729
"2141",31,152,"Control",1,1,4,1,1.66,730
"2142",31,161,"Control",1,1,5,1,0.672,731
"2143",31,160,"Control",1,1,4,1,0.623,732
"2144",31,140,"Control",1,1,3,1,0.583,733
"2145",31,80,"Control",1,1,3,0,0.823,734
"2146",31,48,"Control",1,1,4,0,0.622,735
"2147",31,141,"Control",1,1,1,1,1.67,736
"2148",31,9,"Control",1,1,2,0,3.828,737
"2149",31,159,"Control",1,1,3,1,0.713,738
"2150",31,153,"Control",1,1,2,1,0.769,739
"2151",31,46,"Control",1,1,2,0,1.182,740
"2152",31,145,"Control",1,1,2,1,0.618,741
"2153",31,23,"Control",1,1,5,0,1.807,742
"2154",31,138,"Control",1,1,4,1,0.632,743
"2155",31,146,"Control",1,1,4,1,0.632,744
"2156",31,83,"Control",1,1,2,0,0.712,745
"2157",31,67,"Control",1,1,3,0,0.839,746
"2158",31,34,"Control",1,1,5,0,1.449,747
"2159",31,26,"Control",1,1,3,0,2.285,748
"2160",31,41,"Control",1,1,3,0,3.343,749
"2161",31,61,"Control",1,1,4,0,0.578,750
"2162",31,133,"Control",1,1,4,1,0.607,751
"2163",31,175,"Control",1,1,3,1,0.633,752
"2164",31,168,"Control",1,1,3,1,0.648,753
"2165",31,88,"Control",1,1,2,0,0.506,754
"2166",31,82,"Control",1,1,3,0,2.219,755
"2167",31,86,"Control",1,1,6,0,0.726,756
"2168",31,150,"Control",1,1,2,1,0.745,757
"2169",31,17,"Control",1,1,1,0,0.952,758
"2170",31,31,"Control",1,1,5,0,1.055,759
"2171",31,170,"Control",1,1,2,1,2.156,760
"2172",31,167,"Control",1,1,3,1,0.53,761
"2173",31,20,"Control",1,1,4,0,2.999,762
"2174",31,60,"Control",1,1,4,0,1.047,763
"2175",31,162,"Control",1,1,2,1,0.857,764
"2176",31,169,"Control",1,1,2,1,0.662,765
"2177",31,21,"Control",1,1,3,0,3.606,766
"2178",31,174,"Control",1,1,3,1,0.557,767
"2179",31,158,"Control",1,1,3,1,0.664,768
"2180",31,42,"Control",1,1,5,0,0.623,769
"2181",31,29,"Control",1,1,4,0,1.047,770
"2182",31,163,"Control",1,1,3,1,1.017,771
"2183",31,65,"Control",1,1,5,0,3.093,772
"2184",31,157,"Control",1,1,2,1,0.76,773
"2185",31,147,"Control",1,1,4,1,0.642,774
"2186",31,148,"Control",1,1,4,1,0.669,775
"2187",31,176,"Control",1,1,3,1,0.564,776
"2188",31,10,"Control",1,1,4,0,1.799,777
"2189",31,33,"Control",1,1,3,0,0.632,778
"2190",31,135,"Control",1,1,3,1,0.743,779
"2191",31,45,"Control",1,1,4,0,1.663,780
"2192",31,14,"Control",1,1,1,0,3.271,781
"2193",31,84,"Control",1,1,4,0,2.5,782
"2194",31,172,"Control",1,1,3,1,0.543,783
"2195",31,2,"Control",1,1,4,0,1.335,784
"2196",31,155,"Control",1,1,3,1,1.363,785
"2197",31,139,"Control",1,1,4,1,0.581,786
"2198",31,27,"Control",1,1,4,0,0.602,787
"2199",31,38,"Control",1,1,4,0,2.908,788
"2200",31,54,"Control",1,1,3,0,0.642,789
"2201",32,133,"Control",1,1,3,1,0.791,702
"2202",32,146,"Control",1,1,5,1,1.214,703
"2203",32,53,"Control",1,1,2,0,1.034,704
"2204",32,13,"Control",1,1,5,0,0.802,705
"2205",32,15,"Control",1,1,4,0,0.756,706
"2206",32,159,"Control",1,1,4,1,0.75,707
"2207",32,161,"Control",1,1,2,1,2.078,708
"2208",32,78,"Control",1,1,4,0,0.727,709
"2209",32,150,"Control",1,1,5,1,0.785,710
"2210",32,168,"Control",1,1,4,1,0.8,711
"2211",32,19,"Control",1,1,3,0,1.002,712
"2212",32,76,"Control",1,1,2,0,0.892,713
"2213",32,8,"Control",1,1,2,0,1.081,714
"2214",32,156,"Control",1,1,3,1,1.139,715
"2215",32,143,"Control",1,1,5,1,1.36,716
"2216",32,70,"Control",1,1,3,0,0.889,717
"2217",32,167,"Control",1,1,2,1,1.174,718
"2218",32,1,"Control",1,1,2,0,0.89,719
"2219",32,158,"Control",1,1,1,1,0.943,720
"2220",32,44,"Control",1,1,4,0,1.351,721
"2221",32,142,"Control",1,1,3,1,0.79,722
"2222",32,152,"Control",1,1,1,1,0.949,723
"2223",32,151,"Control",1,1,1,1,1.172,724
"2224",32,22,"Control",1,1,4,0,0.977,725
"2225",32,157,"Control",1,1,4,1,0.741,726
"2226",32,56,"Control",1,1,6,0,1.125,727
"2227",32,69,"Control",1,1,4,0,1.591,728
"2228",32,171,"Control",1,1,2,1,1.158,729
"2229",32,18,"Control",1,1,3,0,0.823,730
"2230",32,28,"Control",1,1,3,0,0.871,731
"2231",32,58,"Control",1,1,4,0,1.222,732
"2232",32,141,"Control",1,1,1,1,0.949,733
"2233",32,176,"Control",1,1,2,1,0.917,734
"2234",32,149,"Control",1,1,4,1,0.799,735
"2235",32,170,"Control",1,1,3,1,1.754,736
"2236",32,166,"Control",1,1,4,1,1.329,737
"2237",32,57,"Control",1,1,3,0,0.714,738
"2238",32,139,"Control",1,1,6,1,0.906,739
"2239",32,87,"Control",1,1,4,0,0.785,740
"2240",32,175,"Control",1,1,3,1,0.745,741
"2241",32,4,"Control",1,1,5,0,0.912,742
"2242",32,30,"Control",1,1,4,0,1.015,743
"2243",32,144,"Control",1,1,2,1,0.82,744
"2244",32,160,"Control",1,1,4,1,1.009,745
"2245",32,148,"Control",1,1,1,1,1.022,746
"2246",32,137,"Control",1,1,2,1,1.186,747
"2247",32,39,"Control",1,1,4,0,0.833,748
"2248",32,174,"Control",1,1,1,1,0.897,749
"2249",32,63,"Control",1,1,4,0,0.669,750
"2250",32,24,"Control",1,1,4,0,1.909,751
"2251",32,163,"Control",1,1,2,1,0.772,752
"2252",32,37,"Control",1,1,3,0,2.793,753
"2253",32,169,"Control",1,1,2,1,1.206,754
"2254",32,55,"Control",1,1,4,0,0.928,755
"2255",32,5,"Control",1,1,4,0,0.938,756
"2256",32,16,"Control",1,1,4,0,0.855,757
"2257",32,52,"Control",1,1,3,0,2.044,758
"2258",32,85,"Control",1,1,4,0,0.628,759
"2259",32,79,"Control",1,1,3,0,0.844,760
"2260",32,140,"Control",1,1,6,1,0.87,761
"2261",32,162,"Control",1,1,5,1,0.75,762
"2262",32,172,"Control",1,1,4,1,0.749,763
"2263",32,173,"Control",1,1,4,1,0.901,764
"2264",32,66,"Control",1,1,3,0,0.882,765
"2265",32,62,"Control",1,1,4,0,0.692,766
"2266",32,136,"Control",1,1,2,1,0.961,767
"2267",32,7,"Control",1,1,4,0,1.163,768
"2268",32,147,"Control",1,1,2,1,0.98,769
"2269",32,11,"Control",1,1,3,0,0.673,770
"2270",32,59,"Control",1,1,3,0,1.065,771
"2271",32,50,"Control",1,1,5,0,1.104,772
"2272",32,155,"Control",1,1,4,1,0.919,773
"2273",32,3,"Control",1,1,4,0,0.729,774
"2274",32,6,"Control",1,1,4,0,1.334,775
"2275",32,135,"Control",1,1,3,1,0.658,776
"2276",32,32,"Control",1,1,3,0,1.511,777
"2277",32,145,"Control",1,1,4,1,0.71,778
"2278",32,68,"Control",1,1,4,0,1.31,779
"2279",32,12,"Control",1,1,4,0,0.901,780
"2280",32,164,"Control",1,1,3,1,0.769,781
"2281",32,71,"Control",1,1,4,0,0.75,782
"2282",32,153,"Control",1,1,3,1,0.702,783
"2283",32,47,"Control",1,1,3,0,0.995,784
"2284",32,154,"Control",1,1,3,1,0.578,785
"2285",32,134,"Control",1,1,3,1,1.039,786
"2286",32,36,"Control",1,1,4,0,0.889,787
"2287",32,165,"Control",1,1,4,1,0.734,788
"2288",32,138,"Control",1,1,3,1,0.811,789
"2289",33,127,"Experimental",1,1,3,0,2.722,702
"2290",33,60,"Experimental",1,1,4,1,3.699,703
"2291",33,122,"Experimental",1,1,5,0,0.565,704
"2292",33,119,"Experimental",1,1,4,0,2.695,705
"2293",33,74,"Experimental",1,1,5,1,0.658,706
"2294",33,129,"Experimental",1,1,4,0,2.527,707
"2295",33,45,"Experimental",1,1,4,1,0.504,708
"2296",33,126,"Experimental",1,1,5,0,0.527,709
"2297",33,100,"Experimental",1,1,2,0,1.674,710
"2298",33,106,"Experimental",1,1,4,0,0.769,711
"2299",33,130,"Experimental",1,1,1,0,0.845,712
"2300",33,97,"Experimental",1,1,1,0,1.08,713
"2301",33,88,"Experimental",1,1,1,1,0.593,714
"2302",33,117,"Experimental",1,1,4,0,1.225,715
"2303",33,38,"Experimental",1,1,5,1,0.624,716
"2304",33,72,"Experimental",1,1,5,1,1.112,717
"2305",33,102,"Experimental",1,1,3,0,0.479,718
"2306",33,2,"Experimental",1,1,4,1,1.201,719
"2307",33,101,"Experimental",1,1,5,0,0.683,720
"2308",33,21,"Experimental",1,1,4,1,0.382,721
"2309",33,65,"Experimental",1,1,4,1,0.661,722
"2310",33,33,"Experimental",1,1,3,1,0.597,723
"2311",33,124,"Experimental",1,1,4,0,0.327,724
