"experimentname","subject","group","group_description","condition","phase","runningtrial","trial","statement","set","status","repetition","catjudgment","catjudgment.rt","trating","trating.rt","recjudgment","recjudgment.rt","recjudgment.acc","filter"
"TE_Experiment2",1,2,"Experimental",1,NA,"Buffer",1,"Die dänische Flagge ist die älteste unveränderte Nationalflagge der Welt.","Buffer",NA,NA,"Politics/History",1553,NA,NA,NA,NA,NA,NA
"TE_Experiment2",1,2,"Experimental",1,NA,"Buffer",2,"Der Weißmeer-Kanal ist der längste Kanal der Erde.","Buffer",NA,NA,"Geography",2232,NA,NA,NA,NA,NA,NA
"TE_Experiment2",1,2,"Experimental",1,NA,"Buffer",3,"Der Katzenwels besitzt mehr Geschmacksknospen als jedes andere Lebewesen.","Buffer",NA,NA,"Biology",1134,NA,NA,NA,NA,NA,NA
"TE_Experiment2",1,2,"Experimental",1,NA,"Buffer",4,"Ein Blatt Papier lässt sich genau achtmal in der Hälfte falten.","Buffer",NA,NA,"Science",2186,NA,NA,NA,NA,NA,NA
"TE_Experiment2",1,2,"Experimental",1,NA,"Buffer",5,"IRA ist die Abkürzung für ""Irish Revolting Army"".","Buffer",NA,NA,"Politics/History",3008,NA,NA,NA,NA,NA,NA
"TE_Experiment2",1,2,"Experimental",1,1,"CatRating",6,"Frauen blinzeln fast doppelt so viel wie Männer.","SetA","True",NA,"Entertainment",1449,NA,NA,NA,NA,NA,NA
"TE_Experiment2",1,2,"Experimental",1,1,"CatRating",7,"Die Luftröhre eines Menschen ist durchschnittlich 24 cm lang. ","SetB","False",NA,"Biology",1517,NA,NA,NA,NA,NA,NA
"TE_Experiment2",1,2,"Experimental",1,1,"CatRating",8,"Markus Merk wurde Weltschiedsrichter des Jahres 2006.","SetB","False",NA,"Other",3311,NA,NA,NA,NA,NA,NA
"TE_Experiment2",1,2,"Experimental",1,1,"CatRating",9,"1 Meter entspricht dem fünfzigmillionsten Teil des Erdumfangs.","SetA","False",NA,"Geography",2164,NA,NA,NA,NA,NA,NA
"TE_Experiment2",1,2,"Experimental",1,1,"CatRating",10,"Die italienische Flagge wurde von Giuseppe Garibaldi entworfen.","SetB","False",NA,"Politics/History",1797,NA,NA,NA,NA,NA,NA
"TE_Experiment2",1,2,"Experimental",1,1,"CatRating",11,"Die Norfolkinseln im Pazifik gehören zu Neuseeland. ","SetA","False",NA,"Politics/History",1543,NA,NA,NA,NA,NA,NA
"TE_Experiment2",1,2,"Experimental",1,1,"CatRating",12,"Das Schnabeltier gehört nicht zur Gattung der Säugetiere.","SetA","False",NA,"Biology",1133,NA,NA,NA,NA,NA,NA
"TE_Experiment2",1,2,"Experimental",1,1,"CatRating",13,"Ein Schwan trägt ca. 50.000 Federn am Körper.","SetB","False",NA,"Biology",1290,NA,NA,NA,NA,NA,NA
"TE_Experiment2",1,2,"Experimental",1,1,"CatRating",14,"Das indische Tadsch Mahal wurde aus Basalt-Stein erbaut.","SetA","False",NA,"Science",5111,NA,NA,NA,NA,NA,NA
"TE_Experiment2",1,2,"Experimental",1,1,"CatRating",15,"Das hawaiianische Alphabet besteht aus nur 12 Buchstaben.","SetB","True",NA,"Entertainment",3043,NA,NA,NA,NA,NA,NA
"TE_Experiment2",1,2,"Experimental",1,1,"CatRating",16,"Tuberkulose wird durch Viren übertragen.","SetB","False",NA,"Biology",1475,NA,NA,NA,NA,NA,NA
"TE_Experiment2",1,2,"Experimental",1,1,"CatRating",17,"März und April sind die heißesten Monate auf den Malediven.","SetA","True",NA,"Other",3466,NA,NA,NA,NA,NA,NA
"TE_Experiment2",1,2,"Experimental",1,1,"CatRating",18,"Tennis wurde in englischen Klöstern erfunden. ","SetB","False",NA,"Other",2096,NA,NA,NA,NA,NA,NA
"TE_Experiment2",1,2,"Experimental",1,1,"CatRating",19,"Das Domino-Spiel besteht aus 28 Steinen.","SetA","True",NA,"Entertainment",1082,NA,NA,NA,NA,NA,NA
"TE_Experiment2",1,2,"Experimental",1,1,"CatRating",20,"Kendo ist eine aus Japan stammende waffenlose Kampfsportart.","SetB","False",NA,"Other",1626,NA,NA,NA,NA,NA,NA
"TE_Experiment2",1,2,"Experimental",1,1,"CatRating",21,"Die Bach-Blütentherapie ist deutlich wirksamer als ein Placebo.","SetA","False",NA,"Other",2928,NA,NA,NA,NA,NA,NA
"TE_Experiment2",1,2,"Experimental",1,1,"CatRating",22,"Der Name BenQ steht für Bringing Enjoyment and Quality to Life.","SetA","True",NA,"Other",2840,NA,NA,NA,NA,NA,NA
"TE_Experiment2",1,2,"Experimental",1,1,"CatRating",23,"Lachse können bis zu 20 Jahre alt werden. ","SetB","False",NA,"Biology",1313,NA,NA,NA,NA,NA,NA
"TE_Experiment2",1,2,"Experimental",1,1,"CatRating",24,"Volleyball wurde in Florida erfunden.","SetB","False",NA,"Other",2817,NA,NA,NA,NA,NA,NA
"TE_Experiment2",1,2,"Experimental",1,1,"CatRating",25,"Dreifarbige Katzen sind fast immer weiblich.","SetB","True",NA,"Biology",1091,NA,NA,NA,NA,NA,NA
"TE_Experiment2",1,2,"Experimental",1,1,"CatRating",26,"Schwebfliegen sind die einzigen Insekten die rückwärts fliegen können.","SetB","False",NA,"Entertainment",1047,NA,NA,NA,NA,NA,NA
"TE_Experiment2",1,2,"Experimental",1,1,"CatRating",27,"Das einzige Bild, das Van Gogh zu seinen Lebzeiten verkaufte, war ""Der rote Weinberg"".","SetB","True",NA,"Other",2930,NA,NA,NA,NA,NA,NA
"TE_Experiment2",1,2,"Experimental",1,1,"CatRating",28,"Eine Stubenfliege hat eine maximale Lebensdauer von 70 Tagen.","SetB","True",NA,"Biology",885,NA,NA,NA,NA,NA,NA
"TE_Experiment2",1,2,"Experimental",1,1,"CatRating",29,"Alexander Graham Bell erfand das Tragflügelboot.","SetB","True",NA,"Other",1271,NA,NA,NA,NA,NA,NA
"TE_Experiment2",1,2,"Experimental",1,1,"CatRating",30,"Der Prophet Mohammed arbeitete vor seiner religiösen Berufung als Arzt. ","SetA","False",NA,"Other",1726,NA,NA,NA,NA,NA,NA
"TE_Experiment2",1,2,"Experimental",1,1,"CatRating",31,"Erdbeeren enthalten mehr Vitamin C als Orangen.","SetB","True",NA,"Other",943,NA,NA,NA,NA,NA,NA
"TE_Experiment2",1,2,"Experimental",1,1,"CatRating",32,"Richard Gere und Cindy Crawford ließen sich in Mexiko trauen.","SetB","False",NA,"Entertainment",1863,NA,NA,NA,NA,NA,NA
"TE_Experiment2",1,2,"Experimental",1,1,"CatRating",33,"Der Durchmesser des Wurfkreises beim Diskuswerfens beträgt 2,5 m.","SetA","True",NA,"Other",805,NA,NA,NA,NA,NA,NA
"TE_Experiment2",1,2,"Experimental",1,1,"CatRating",34,"Die in Südamerika beheimatete Kammspinne zählt zu den drei giftigsten Spinnenarten der Welt.","SetB","True",NA,"Biology",839,NA,NA,NA,NA,NA,NA
"TE_Experiment2",1,2,"Experimental",1,1,"CatRating",35,"Seepferdchen gehören zur Gattung der Fische.","SetA","True",NA,"Biology",849,NA,NA,NA,NA,NA,NA
"TE_Experiment2",1,2,"Experimental",1,1,"CatRating",36,"Unter den Bären legt der Braunbär die größten Entfernungen zurück.","SetA","False",NA,"Biology",878,NA,NA,NA,NA,NA,NA
"TE_Experiment2",1,2,"Experimental",1,1,"CatRating",37,"Der spanische Ex-Diktator Francisco Franco hatte den Beinamen ""Conducator"".","SetA","False",NA,"Politics/History",1672,NA,NA,NA,NA,NA,NA
"TE_Experiment2",1,2,"Experimental",1,1,"CatRating",38,"Laut EU-Vorschrift darf ein iPod die Lautstärke von 80 Dezibel nicht  überschreiten. ","SetB","False",NA,"Politics/History",2895,NA,NA,NA,NA,NA,NA
"TE_Experiment2",1,2,"Experimental",1,1,"CatRating",39,"In Bolivien liegt der höchstgelegene Regierungssitz der Welt.","SetA","True",NA,"Entertainment",1170,NA,NA,NA,NA,NA,NA
"TE_Experiment2",1,2,"Experimental",1,1,"CatRating",40,"Nur ca. zwei Prozent der Weltbevölkerung sind von Natur aus blond.","SetA","True",NA,"Biology",998,NA,NA,NA,NA,NA,NA
"TE_Experiment2",1,2,"Experimental",1,1,"CatRating",41,"Die Insel Ösel gehört zu Dänemark.","SetA","False",NA,"Geography",3393,NA,NA,NA,NA,NA,NA
"TE_Experiment2",1,2,"Experimental",1,1,"CatRating",42,"Die Gebrüder Montgolfier entwarfen den ersten Fallschirm.","SetB","False",NA,"Other",3110,NA,NA,NA,NA,NA,NA
"TE_Experiment2",1,2,"Experimental",1,1,"CatRating",43,"Die Schwarzerle zählt zu den Buchengewächsen.","SetA","False",NA,"Biology",772,NA,NA,NA,NA,NA,NA
"TE_Experiment2",1,2,"Experimental",1,1,"CatRating",44,"Albert Einstein heiratete seine Cousine.","SetB","True",NA,"Entertainment",801,NA,NA,NA,NA,NA,NA
"TE_Experiment2",1,2,"Experimental",1,1,"CatRating",45,"Eine der ersten deutschen Internetsuchmaschinen hieß ""Alcazar"".","SetA","False",NA,"Other",1659,NA,NA,NA,NA,NA,NA
"TE_Experiment2",1,2,"Experimental",1,1,"CatRating",46,"Der Bereich zwischen den Augenbrauen heißt Glabella.","SetA","True",NA,"Biology",775,NA,NA,NA,NA,NA,NA
"TE_Experiment2",1,2,"Experimental",1,1,"CatRating",47,"Schären sind Talgletscher in Skandinavien.","SetB","False",NA,"Other",1836,NA,NA,NA,NA,NA,NA
"TE_Experiment2",1,2,"Experimental",1,1,"CatRating",48,"Ibo ist wie Esperanto eine künstliche Welthilfssprache.","SetA","False",NA,"Other",2013,NA,NA,NA,NA,NA,NA
"TE_Experiment2",1,2,"Experimental",1,1,"CatRating",49,"Der erste Bordcomputer für Autos wurde in Amerika entwickelt. ","SetA","False",NA,"Entertainment",808,NA,NA,NA,NA,NA,NA
"TE_Experiment2",1,2,"Experimental",1,1,"CatRating",50,"Auf jedem Kontinent gibt es eine Stadt die Rom heißt.","SetB","True",NA,"Entertainment",885,NA,NA,NA,NA,NA,NA
"TE_Experiment2",1,2,"Experimental",1,1,"CatRating",51,"Kaiser Konstantin IV wurde auf Befehl seiner eigenen Mutter ermordet.","SetB","True",NA,"Politics/History",991,NA,NA,NA,NA,NA,NA
"TE_Experiment2",1,2,"Experimental",1,1,"CatRating",52,"Die Schweden führten als erste Kartons anstelle von Milchflaschen ein.","SetB","True",NA,"Other",1267,NA,NA,NA,NA,NA,NA
"TE_Experiment2",1,2,"Experimental",1,1,"CatRating",53,"Ein menschliches Haar wächst jährlich ca. 85 mm.","SetB","True",NA,"Other",1786,NA,NA,NA,NA,NA,NA
"TE_Experiment2",1,2,"Experimental",1,1,"CatRating",54,"Freddie Mercurys richtiger Name lautete Farrokh Bulsara.","SetA","True",NA,"Entertainment",929,NA,NA,NA,NA,NA,NA
"TE_Experiment2",1,2,"Experimental",1,1,"CatRating",55,"Die Stilrichtung des Impressionismus entwickelte sich in Spanien. ","SetA","False",NA,"Other",2342,NA,NA,NA,NA,NA,NA
"TE_Experiment2",1,2,"Experimental",1,1,"CatRating",56,"Das Zwerghörnchen ist das kleinste Säugetier Europas.","SetB","False",NA,"Biology",874,NA,NA,NA,NA,NA,NA
"TE_Experiment2",1,2,"Experimental",1,1,"CatRating",57,"Das meiste Gold wird derzeit in Südafrika gefördert.","SetA","True",NA,"Other",2905,NA,NA,NA,NA,NA,NA
"TE_Experiment2",1,2,"Experimental",1,1,"CatRating",58,"Ein neugeborenes Panda-Baby ist kleiner als eine Maus.","SetA","True",NA,"Biology",1847,NA,NA,NA,NA,NA,NA
"TE_Experiment2",1,2,"Experimental",1,1,"CatRating",59,"Weibliche Frettchen können an Östrogenvergiftung sterben, wenn sie läufig sind und nicht gedeckt werden.","SetA","True",NA,"Biology",1224,NA,NA,NA,NA,NA,NA
"TE_Experiment2",1,2,"Experimental",1,1,"CatRating",60,"Es gibt drei amerikanische Städte, die ""Santa Claus"" heißen.","SetB","True",NA,"Entertainment",1335,NA,NA,NA,NA,NA,NA
"TE_Experiment2",1,2,"Experimental",1,1,"CatRating",61,"Minerva ist die römische Göttin der Weisheit.","SetA","True",NA,"Entertainment",2219,NA,NA,NA,NA,NA,NA
"TE_Experiment2",1,2,"Experimental",1,1,"CatRating",62,"Sheryl Crow war Hürdenläuferin.","SetA","True",NA,"Entertainment",2631,NA,NA,NA,NA,NA,NA
"TE_Experiment2",1,2,"Experimental",1,1,"CatRating",63,"Das Lieblingsgetränk von Benedikt XVI. ist Fanta.","SetB","True",NA,"Entertainment",1926,NA,NA,NA,NA,NA,NA
"TE_Experiment2",1,2,"Experimental",1,1,"CatRating",64,"Der Mond passt vierzigmal in die Erdkugel.","SetA","False",NA,"Science",1407,NA,NA,NA,NA,NA,NA
"TE_Experiment2",1,2,"Experimental",1,1,"CatRating",65,"Der Javagraben ist die tiefste Meerestiefe der Welt.","SetB","False",NA,"Geography",840,NA,NA,NA,NA,NA,NA
"TE_Experiment2",1,2,"Experimental",1,1,"CatRating",66,"Mitgliedern der Nazi-SS wurde ihre Blutgruppe in die Achselhöhle tätowiert.","SetB","True",NA,"Other",2587,NA,NA,NA,NA,NA,NA
"TE_Experiment2",1,2,"Experimental",1,1,"CatRating",67,"Sumatra ist die viertgrößte Insel der Welt. ","SetB","False",NA,"Geography",1680,NA,NA,NA,NA,NA,NA
"TE_Experiment2",1,2,"Experimental",1,1,"CatRating",68,"Die Farbe von Hühnereiern kann man anhand der Farbe der Ohrenscheiben des Huhns voraussagen.","SetB","True",NA,"Biology",1730,NA,NA,NA,NA,NA,NA
"TE_Experiment2",1,2,"Experimental",1,1,"CatRating",69,"Ein Dingo kann länger ohne Wasser leben als ein Kamel.","SetA","False",NA,"Biology",1182,NA,NA,NA,NA,NA,NA
"TE_Experiment2",1,2,"Experimental",1,1,"CatRating",70,"Bob Dylan arbeitet nebenberuflich als Winzer.","SetA","True",NA,"Entertainment",1077,NA,NA,NA,NA,NA,NA
"TE_Experiment2",1,2,"Experimental",1,1,"CatRating",71,"Tiger haben nicht nur gestreiftes Fell, sondern auch gestreifte Haut.","SetB","True",NA,"Biology",927,NA,NA,NA,NA,NA,NA
"TE_Experiment2",1,2,"Experimental",1,1,"CatRating",72,"Das Jojo war ursprünglich eine philippinische Jagdwaffe.","SetA","True",NA,"Entertainment",1705,NA,NA,NA,NA,NA,NA
"TE_Experiment2",1,2,"Experimental",1,1,"CatRating",73,"Der Kilt stammt ursprünglich aus Irland, nicht aus Schottland.","SetA","False",NA,"Entertainment",887,NA,NA,NA,NA,NA,NA
"TE_Experiment2",1,2,"Experimental",1,1,"CatRating",74,"Die Tanne ist der Nadelbaum mit den längsten Nadeln.","SetB","False",NA,"Biology",2033,NA,NA,NA,NA,NA,NA
"TE_Experiment2",1,2,"Experimental",1,1,"CatRating",75,"In Uganda ist die Amtssprache Englisch.","SetB","True",NA,"Other",1360,NA,NA,NA,NA,NA,NA
"TE_Experiment2",1,2,"Experimental",1,1,"CatRating",76,"Den Haag ist der offizielle Verwaltungssitz der Niederlande. ","SetB","True",NA,"Politics/History",1241,NA,NA,NA,NA,NA,NA
"TE_Experiment2",1,2,"Experimental",1,1,"CatRating",77,"Balsaholz ist die schwerste aller Holzarten.","SetB","False",NA,"Science",2372,NA,NA,NA,NA,NA,NA
"TE_Experiment2",1,2,"Experimental",1,1,"CatRating",78,"Manama ist die Hauptstadt Bahrains.","SetA","True",NA,"Geography",1991,NA,NA,NA,NA,NA,NA
"TE_Experiment2",1,2,"Experimental",1,1,"CatRating",79,"Die Azoren gehören zu Spanien.","SetA","False",NA,"Geography",998,NA,NA,NA,NA,NA,NA
"TE_Experiment2",1,2,"Experimental",1,1,"CatRating",80,"Virginia war die erste englische Kolonie in Nordamerika.","SetA","True",NA,"Politics/History",1808,NA,NA,NA,NA,NA,NA
"TE_Experiment2",1,2,"Experimental",1,1,"CatRating",81,"Ende 2003 waren in Deutschland 15 Atomkraftwerke am Netz. ","SetB","False",NA,"Politics/History",1041,NA,NA,NA,NA,NA,NA
"TE_Experiment2",1,2,"Experimental",1,1,"CatRating",82,"Ultraschall sind Wellen und Schwingungen unterhalb von 16 Hertz.","SetA","False",NA,"Science",683,NA,NA,NA,NA,NA,NA
"TE_Experiment2",1,2,"Experimental",1,1,"CatRating",83,"Der Allradantrieb wurde 1938 in England erfunden.","SetB","False",NA,"Other",1469,NA,NA,NA,NA,NA,NA
"TE_Experiment2",1,2,"Experimental",1,1,"CatRating",84,"Die Hälfte der Bürger Albaniens ist jünger als 30 Jahre.","SetB","False",NA,"Other",2580,NA,NA,NA,NA,NA,NA
"TE_Experiment2",1,2,"Experimental",1,1,"CatRating",85,"Jürgen Klinsmann erhielt bei Bayern München den Spitznamen ""Flipper"".","SetB","True",NA,"Entertainment",1039,NA,NA,NA,NA,NA,NA
"TE_Experiment2",1,2,"Experimental",1,1,"CatRating",86,"Bei Nahrungsmangel kann ein Spulwurm bis zu 95% seines eigenen Körpers verzehren.","SetA","False",NA,"Other",2793,NA,NA,NA,NA,NA,NA
"TE_Experiment2",1,2,"Experimental",1,1,"CatRating",87,"Laut WHO sind Krebserkrankungen die häufigste Todesursache.  ","SetA","False",NA,"Other",2080,NA,NA,NA,NA,NA,NA
"TE_Experiment2",1,2,"Experimental",1,1,"CatRating",88,"Kanada hat die längste Küste von allen Staaten der Erde.","SetA","True",NA,"Geography",2113,NA,NA,NA,NA,NA,NA
"TE_Experiment2",1,2,"Experimental",1,1,"CatRating",89,"Bolivien ist der kleinste Binnenstaat Südamerikas. ","SetA","False",NA,"Geography",975,NA,NA,NA,NA,NA,NA
"TE_Experiment2",1,2,"Experimental",1,1,"CatRating",90,"Seoul bedeutet auf koreanisch ""Die Hauptstadt"".","SetB","True",NA,"Other",2348,NA,NA,NA,NA,NA,NA
"TE_Experiment2",1,2,"Experimental",1,1,"CatRating",91,"Morpheus ist der griechische Gott der Träume.","SetA","True",NA,"Other",2114,NA,NA,NA,NA,NA,NA
"TE_Experiment2",1,2,"Experimental",1,1,"CatRating",92,"Ein Menschenfloh kann 20cm hoch springen.","SetB","True",NA,"Biology",776,NA,NA,NA,NA,NA,NA
"TE_Experiment2",1,2,"Experimental",1,1,"CatRating",93,"Der Pavane ist ein spanisch-italienischer Volkstanz aus dem 16. Jahrhundert.","SetA","True",NA,"Other",1197,NA,NA,NA,NA,NA,NA
"TE_Experiment2",1,2,"Experimental",1,NA,"Buffer",94,"Siemens meldete 2004 in Deutschland die meisten Patente an.","Buffer",NA,NA,"Other",1847,NA,NA,NA,NA,NA,NA
"TE_Experiment2",1,2,"Experimental",1,NA,"Buffer",95,"Menschen und Affen sind die einzigen Lebewesen, die weinen. ","Buffer",NA,NA,"Other",2736,NA,NA,NA,NA,NA,NA
"TE_Experiment2",1,2,"Experimental",1,NA,"Buffer",96,"Babys werden ohne Gaumenbein geboren.","Buffer",NA,NA,"Biology",1211,NA,NA,NA,NA,NA,NA
"TE_Experiment2",1,2,"Experimental",1,NA,"Buffer",97,"Indigoblau ist der älteste bekannte pflanzliche Farbstoff.","Buffer",NA,NA,"Politics/History",1703,NA,NA,NA,NA,NA,NA
"TE_Experiment2",1,2,"Experimental",1,NA,"Buffer",98,"Die weibliche Kammratte hat ihre Brustwarzen am Rücken.","Buffer",NA,NA,"Biology",1727,NA,NA,NA,NA,NA,NA
"TE_Experiment2",1,2,"Experimental",1,2,"TruthRating",702,"Die Stilrichtung des Impressionismus entwickelte sich in Spanien. ","SetA","False","Yes",NA,NA,4,3649,NA,NA,NA,"selected"
"TE_Experiment2",1,2,"Experimental",1,2,"TruthRating",703,"Der Kilt stammt ursprünglich aus Irland, nicht aus Schottland.","SetA","False","Yes",NA,NA,2,1297,NA,NA,NA,"selected"
"TE_Experiment2",1,2,"Experimental",1,2,"TruthRating",704,"Bolivien ist der kleinste Binnenstaat Südamerikas. ","SetA","False","Yes",NA,NA,5,1189,NA,NA,NA,"selected"
"TE_Experiment2",1,2,"Experimental",1,2,"TruthRating",705,"Jassir Arafat kämpfte im Sueskrieg für die ägyptische Armee.","SetC","True","No",NA,NA,3,1196,NA,NA,NA,"selected"
"TE_Experiment2",1,2,"Experimental",1,2,"TruthRating",706,"Der Name BenQ steht für Bringing Enjoyment and Quality to Life.","SetA","True","Yes",NA,NA,2,1742,NA,NA,NA,"selected"
"TE_Experiment2",1,2,"Experimental",1,2,"TruthRating",707,"Die Azoren gehören zu Spanien.","SetA","False","Yes",NA,NA,5,794,NA,NA,NA,"selected"
"TE_Experiment2",1,2,"Experimental",1,2,"TruthRating",708,"In Deutschland leiden ca. 1 Millionen Menschen an Alzheimer.","SetC","True","No",NA,NA,5,802,NA,NA,NA,"selected"
"TE_Experiment2",1,2,"Experimental",1,2,"TruthRating",709,"Die Insel Ösel gehört zu Dänemark.","SetA","False","Yes",NA,NA,4,1420,NA,NA,NA,"selected"
"TE_Experiment2",1,2,"Experimental",1,2,"TruthRating",710,"Die Aktivität einer radioaktiven Substanz wird in Sievert gemessen.","SetC","False","No",NA,NA,5,1672,NA,NA,NA,"selected"
"TE_Experiment2",1,2,"Experimental",1,2,"TruthRating",711,"Die Norfolkinseln im Pazifik gehören zu Neuseeland. ","SetA","False","Yes",NA,NA,2,2727,NA,NA,NA,"selected"
"TE_Experiment2",1,2,"Experimental",1,2,"TruthRating",712,"März und April sind die heißesten Monate auf den Malediven.","SetA","True","Yes",NA,NA,4,1439,NA,NA,NA,"selected"
"TE_Experiment2",1,2,"Experimental",1,2,"TruthRating",713,"Karl Marx wurde in London begraben.","SetC","True","No",NA,NA,4,1528,NA,NA,NA,"selected"
"TE_Experiment2",1,2,"Experimental",1,2,"TruthRating",714,"Manama ist die Hauptstadt Bahrains.","SetA","True","Yes",NA,NA,3,1090,NA,NA,NA,"selected"
"TE_Experiment2",1,2,"Experimental",1,2,"TruthRating",715,"Der hundertjährige Krieg dauerte in Wahrheit nur 93 Jahre.","SetC","False","No",NA,NA,5,1479,NA,NA,NA,"selected"
"TE_Experiment2",1,2,"Experimental",1,2,"TruthRating",716,"Der erste Geldautomat wurde bereits 1939 von der City Bank of New York betrieben.","SetC","True","No",NA,NA,5,984,NA,NA,NA,"selected"
"TE_Experiment2",1,2,"Experimental",1,2,"TruthRating",717,"Jimmy Carter war der einzige geschiedene US-Präsident.","SetC","False","No",NA,NA,2,1031,NA,NA,NA,"selected"
"TE_Experiment2",1,2,"Experimental",1,2,"TruthRating",718,"Weibliche Frettchen können an Östrogenvergiftung sterben, wenn sie läufig sind und nicht gedeckt werden.","SetA","True","Yes",NA,NA,3,1351,NA,NA,NA,"selected"
"TE_Experiment2",1,2,"Experimental",1,2,"TruthRating",719,"Wenn sämtliches Eis der Erde schmilzt, steigt der Meeresspiegel um 150 Meter.","SetC","False","No",NA,NA,5,982,NA,NA,NA,"selected"
"TE_Experiment2",1,2,"Experimental",1,2,"TruthRating",720,"Der preußische König August I. der Starke wurde auch der Soldatenkönig genannt.","SetC","False","No",NA,NA,6,1037,NA,NA,NA,"selected"
"TE_Experiment2",1,2,"Experimental",1,2,"TruthRating",721,"Im Arabischen gibt es etwa 500 Worte für ""Kamel"".","SetC","False","No",NA,NA,4,2944,NA,NA,NA,"selected"
"TE_Experiment2",1,2,"Experimental",1,2,"TruthRating",722,"Laut WHO sind Krebserkrankungen die häufigste Todesursache.  ","SetA","False","Yes",NA,NA,5,1291,NA,NA,NA,"selected"
"TE_Experiment2",1,2,"Experimental",1,2,"TruthRating",723,"Freddie Mercurys richtiger Name lautete Farrokh Bulsara.","SetA","True","Yes",NA,NA,3,823,NA,NA,NA,"selected"
"TE_Experiment2",1,2,"Experimental",1,2,"TruthRating",724,"Kanada hat die längste Küste von allen Staaten der Erde.","SetA","True","Yes",NA,NA,5,1111,NA,NA,NA,"selected"
"TE_Experiment2",1,2,"Experimental",1,2,"TruthRating",725,"In Griechenland gilt nicht Freitag der 13., sondern Mittwoch der 13. als Unglückstag.","SetC","False","No",NA,NA,4,678,NA,NA,NA,"selected"
"TE_Experiment2",1,2,"Experimental",1,2,"TruthRating",726,"Frauen blinzeln fast doppelt so viel wie Männer.","SetA","True","Yes",NA,NA,6,960,NA,NA,NA,"selected"
"TE_Experiment2",1,2,"Experimental",1,2,"TruthRating",727,"Ibo ist wie Esperanto eine künstliche Welthilfssprache.","SetA","False","Yes",NA,NA,4,1554,NA,NA,NA,"selected"
"TE_Experiment2",1,2,"Experimental",1,2,"TruthRating",728,"Bob Dylan arbeitet nebenberuflich als Winzer.","SetA","True","Yes",NA,NA,5,977,NA,NA,NA,"selected"
"TE_Experiment2",1,2,"Experimental",1,2,"TruthRating",729,"Papst Johannes Paul II wurde seinerzeit als ""Mann des Jahres"" ausgezeichnet.","SetC","False","No",NA,NA,3,1533,NA,NA,NA,"selected"
"TE_Experiment2",1,2,"Experimental",1,2,"TruthRating",730,"Ein Polospiel ist in Zeitabschnitte von 7,5 Minuten unterteilt, die man ""Chukkas"" nennt.","SetC","True","No",NA,NA,5,1666,NA,NA,NA,"selected"
"TE_Experiment2",1,2,"Experimental",1,2,"TruthRating",731,"Nur ca. zwei Prozent der Weltbevölkerung sind von Natur aus blond.","SetA","True","Yes",NA,NA,2,960,NA,NA,NA,"selected"
"TE_Experiment2",1,2,"Experimental",1,2,"TruthRating",732,"Bei Nahrungsmangel kann ein Spulwurm bis zu 95% seines eigenen Körpers verzehren.","SetA","False","Yes",NA,NA,4,1410,NA,NA,NA,"selected"
"TE_Experiment2",1,2,"Experimental",1,2,"TruthRating",733,"Der weiße Hai hat keine natürlichen Feinde.","SetC","True","No",NA,NA,5,727,NA,NA,NA,"selected"
"TE_Experiment2",1,2,"Experimental",1,2,"TruthRating",734,"Ebenso wie der Fingerabdruck ist auch der Zungenabdruck eines Menschen einzigartig.","SetC","True","No",NA,NA,6,865,NA,NA,NA,"selected"
"TE_Experiment2",1,2,"Experimental",1,2,"TruthRating",735,"Der erste Bordcomputer für Autos wurde in Amerika entwickelt. ","SetA","False","Yes",NA,NA,4,1160,NA,NA,NA,"selected"
"TE_Experiment2",1,2,"Experimental",1,2,"TruthRating",736,"Das Domino-Spiel besteht aus 28 Steinen.","SetA","True","Yes",NA,NA,5,1746,NA,NA,NA,"selected"
"TE_Experiment2",1,2,"Experimental",1,2,"TruthRating",737,"John Wayne hieß in Wirklichkeit Jonathan Walter Miller.","SetC","False","No",NA,NA,5,1673,NA,NA,NA,"selected"
"TE_Experiment2",1,2,"Experimental",1,2,"TruthRating",738,"Eine der ersten deutschen Internetsuchmaschinen hieß ""Alcazar"".","SetA","False","Yes",NA,NA,2,1023,NA,NA,NA,"selected"
"TE_Experiment2",1,2,"Experimental",1,2,"TruthRating",739,"Das indische Tadsch Mahal wurde aus Basalt-Stein erbaut.","SetA","False","Yes",NA,NA,3,1487,NA,NA,NA,"selected"
"TE_Experiment2",1,2,"Experimental",1,2,"TruthRating",740,"Das Jojo war ursprünglich eine philippinische Jagdwaffe.","SetA","True","Yes",NA,NA,4,896,NA,NA,NA,"selected"
"TE_Experiment2",1,2,"Experimental",1,2,"TruthRating",741,"Das älteste noch existierende Parlament der Welt ist das ""Sejm"" in Polen.","SetC","False","No",NA,NA,3,1621,NA,NA,NA,"selected"
"TE_Experiment2",1,2,"Experimental",1,2,"TruthRating",742,"Pamela Anderson ist kanadische Staatsbürgerin.","SetC","True","No",NA,NA,3,609,NA,NA,NA,"selected"
"TE_Experiment2",1,2,"Experimental",1,2,"TruthRating",743,"Kamele sind über kurze Distanzen schneller als ein Rennpferd.","SetC","False","No",NA,NA,4,1894,NA,NA,NA,"selected"
"TE_Experiment2",1,2,"Experimental",1,2,"TruthRating",744,"Der richtige Name des Krümelmonsters aus der Sesamstraße lautet ""Sam"".","SetC","False","No",NA,NA,2,1626,NA,NA,NA,"selected"
"TE_Experiment2",1,2,"Experimental",1,2,"TruthRating",745,"Der Mond passt vierzigmal in die Erdkugel.","SetA","False","Yes",NA,NA,4,1457,NA,NA,NA,"selected"
"TE_Experiment2",1,2,"Experimental",1,2,"TruthRating",746,"Ein Mensch, der unter Androphobie leidet, hat Angst vor anderen Menschen.","SetC","False","No",NA,NA,4,1710,NA,NA,NA,"selected"
"TE_Experiment2",1,2,"Experimental",1,2,"TruthRating",747,"Der Film ""Ein unmoralisches Angebot"" bekam die goldene Himbeere verliehen.","SetC","True","No",NA,NA,4,2116,NA,NA,NA,"selected"
"TE_Experiment2",1,2,"Experimental",1,2,"TruthRating",748,"Hamburg hat mehr Brücken als die Städte Venedig, Amsterdam und London zusammen.","SetC","True","No",NA,NA,2,1619,NA,NA,NA,"selected"
"TE_Experiment2",1,2,"Experimental",1,2,"TruthRating",749,"Der See Genezareth ist das tiefst gelegenste stehende Gewässer der Erde.","SetC","False","No",NA,NA,5,1855,NA,NA,NA,"selected"
"TE_Experiment2",1,2,"Experimental",1,2,"TruthRating",750,"Der neue Airbus A380 kann maximal 777 Passagiere transportieren. ","SetC","False","No",NA,NA,5,1714,NA,NA,NA,"selected"
"TE_Experiment2",1,2,"Experimental",1,2,"TruthRating",751,"Der Prophet Mohammed arbeitete vor seiner religiösen Berufung als Arzt. ","SetA","False","Yes",NA,NA,5,1377,NA,NA,NA,"selected"
"TE_Experiment2",1,2,"Experimental",1,2,"TruthRating",752,"Die Slavonia war das erste Schiff, das das SOS-Notsignal benutzte.","SetC","True","No",NA,NA,3,1301,NA,NA,NA,"selected"
"TE_Experiment2",1,2,"Experimental",1,2,"TruthRating",753,"Der spanische Ex-Diktator Francisco Franco hatte den Beinamen ""Conducator"".","SetA","False","Yes",NA,NA,2,1546,NA,NA,NA,"selected"
"TE_Experiment2",1,2,"Experimental",1,2,"TruthRating",754,"Das Schnabeltier gehört nicht zur Gattung der Säugetiere.","SetA","False","Yes",NA,NA,4,1337,NA,NA,NA,"selected"
"TE_Experiment2",1,2,"Experimental",1,2,"TruthRating",755,"Der Bereich zwischen den Augenbrauen heißt Glabella.","SetA","True","Yes",NA,NA,4,1741,NA,NA,NA,"selected"
"TE_Experiment2",1,2,"Experimental",1,2,"TruthRating",756,"Blaue Augen werden im Alter immer heller.","SetC","True","No",NA,NA,4,1473,NA,NA,NA,"selected"
"TE_Experiment2",1,2,"Experimental",1,2,"TruthRating",757,"Die Band ""Oasis"" hat sich nach einem Fitness-Studio benannt.","SetC","True","No",NA,NA,2,1993,NA,NA,NA,"selected"
"TE_Experiment2",1,2,"Experimental",1,2,"TruthRating",758,"Morpheus ist der griechische Gott der Träume.","SetA","True","Yes",NA,NA,5,951,NA,NA,NA,"selected"
"TE_Experiment2",1,2,"Experimental",1,2,"TruthRating",759,"Kleinohrigel haben keine Stacheln.","SetC","False","No",NA,NA,3,2094,NA,NA,NA,"selected"
"TE_Experiment2",1,2,"Experimental",1,2,"TruthRating",760,"Der Durchmesser des Wurfkreises beim Diskuswerfens beträgt 2,5 m.","SetA","True","Yes",NA,NA,5,1730,NA,NA,NA,"selected"
"TE_Experiment2",1,2,"Experimental",1,2,"TruthRating",761,"Ultraschall sind Wellen und Schwingungen unterhalb von 16 Hertz.","SetA","False","Yes",NA,NA,4,3294,NA,NA,NA,"selected"
"TE_Experiment2",1,2,"Experimental",1,2,"TruthRating",762,"Im arabischen Raum heißt Homer Simpson ""Omar Shamshoon"".","SetC","True","No",NA,NA,2,2064,NA,NA,NA,"selected"
"TE_Experiment2",1,2,"Experimental",1,2,"TruthRating",763,"Virginia war die erste englische Kolonie in Nordamerika.","SetA","True","Yes",NA,NA,5,1487,NA,NA,NA,"selected"
"TE_Experiment2",1,2,"Experimental",1,2,"TruthRating",764,"Die Bach-Blütentherapie ist deutlich wirksamer als ein Placebo.","SetA","False","Yes",NA,NA,6,1689,NA,NA,NA,"selected"
"TE_Experiment2",1,2,"Experimental",1,2,"TruthRating",765,"Borkum ist die größte ostfriesische Insel.","SetC","True","No",NA,NA,2,2939,NA,NA,NA,"selected"
"TE_Experiment2",1,2,"Experimental",1,2,"TruthRating",766,"Ein Dingo kann länger ohne Wasser leben als ein Kamel.","SetA","False","Yes",NA,NA,4,2589,NA,NA,NA,"selected"
"TE_Experiment2",1,2,"Experimental",1,2,"TruthRating",767,"Beim Rugby gibt es 30 Spieler.","SetC","True","No",NA,NA,3,1811,NA,NA,NA,"selected"
"TE_Experiment2",1,2,"Experimental",1,2,"TruthRating",768,"Der rote Naturfarbstoff in den Schalen von Krustentieren heißt Xanthophyll.","SetC","False","No",NA,NA,3,1967,NA,NA,NA,"selected"
"TE_Experiment2",1,2,"Experimental",1,2,"TruthRating",769,"Das meiste Gold wird derzeit in Südafrika gefördert.","SetA","True","Yes",NA,NA,5,1616,NA,NA,NA,"selected"
"TE_Experiment2",1,2,"Experimental",1,2,"TruthRating",770,"1 Meter entspricht dem fünfzigmillionsten Teil des Erdumfangs.","SetA","False","Yes",NA,NA,5,1860,NA,NA,NA,"selected"
"TE_Experiment2",1,2,"Experimental",1,2,"TruthRating",771,"Italien wurde 1934 zum ersten Mal Fußballweltmeister.","SetC","True","No",NA,NA,3,5057,NA,NA,NA,"selected"
"TE_Experiment2",1,2,"Experimental",1,2,"TruthRating",772,"In Bolivien liegt der höchstgelegene Regierungssitz der Welt.","SetA","True","Yes",NA,NA,2,2666,NA,NA,NA,"selected"
"TE_Experiment2",1,2,"Experimental",1,2,"TruthRating",773,"Alle Uhren im Film ""Pulp Fiction"" stehen auf 4.10 Uhr.","SetC","False","No",NA,NA,3,2136,NA,NA,NA,"selected"
"TE_Experiment2",1,2,"Experimental",1,2,"TruthRating",774,"Spanholz besteht hauptsächlich aus Birkenholz.","SetC","True","No",NA,NA,5,1443,NA,NA,NA,"selected"
"TE_Experiment2",1,2,"Experimental",1,2,"TruthRating",775,"Minerva ist die römische Göttin der Weisheit.","SetA","True","Yes",NA,NA,4,2134,NA,NA,NA,"selected"
"TE_Experiment2",1,2,"Experimental",1,2,"TruthRating",776,"Ein neugeborenes Panda-Baby ist kleiner als eine Maus.","SetA","True","Yes",NA,NA,6,1329,NA,NA,NA,"selected"
"TE_Experiment2",1,2,"Experimental",1,2,"TruthRating",777,"Der Wassergehalt bei Beeren beträgt 90%.","SetC","True","No",NA,NA,4,1470,NA,NA,NA,"selected"
"TE_Experiment2",1,2,"Experimental",1,2,"TruthRating",778,"Seepferdchen gehören zur Gattung der Fische.","SetA","True","Yes",NA,NA,4,1565,NA,NA,NA,"selected"
"TE_Experiment2",1,2,"Experimental",1,2,"TruthRating",779,"Unter den Bären legt der Braunbär die größten Entfernungen zurück.","SetA","False","Yes",NA,NA,1,1630,NA,NA,NA,"selected"
"TE_Experiment2",1,2,"Experimental",1,2,"TruthRating",780,"Jean-Jaques Rousseau war alleinerziehender Vater.","SetC","False","No",NA,NA,3,1565,NA,NA,NA,"selected"
"TE_Experiment2",1,2,"Experimental",1,2,"TruthRating",781,"Der erste Sinn, der im Alter nachlässt, ist das Gehör.","SetC","False","No",NA,NA,2,1550,NA,NA,NA,"selected"
"TE_Experiment2",1,2,"Experimental",1,2,"TruthRating",782,"Die längsten Opern stammen von Gioacchino Rossini.","SetC","False","No",NA,NA,2,1661,NA,NA,NA,"selected"
"TE_Experiment2",1,2,"Experimental",1,2,"TruthRating",783,"Moritz Bleibtreu und Heike Makatsch wurden am gleichen Tag geboren.","SetC","True","No",NA,NA,3,873,NA,NA,NA,"selected"
"TE_Experiment2",1,2,"Experimental",1,2,"TruthRating",784,"Die Schwarzerle zählt zu den Buchengewächsen.","SetA","False","Yes",NA,NA,6,1792,NA,NA,NA,"selected"
"TE_Experiment2",1,2,"Experimental",1,2,"TruthRating",785,"Das geflügelte Wort ""Gelobt sei, was hart macht"" geht auf  den Philosophen Friedrich Nietzsche zurück.","SetC","True","No",NA,NA,2,2111,NA,NA,NA,"selected"
"TE_Experiment2",1,2,"Experimental",1,2,"TruthRating",786,"Sheryl Crow war Hürdenläuferin.","SetA","True","Yes",NA,NA,4,1517,NA,NA,NA,"selected"
"TE_Experiment2",1,2,"Experimental",1,2,"TruthRating",787,"Der Pavane ist ein spanisch-italienischer Volkstanz aus dem 16. Jahrhundert.","SetA","True","Yes",NA,NA,2,1856,NA,NA,NA,"selected"
"TE_Experiment2",1,2,"Experimental",1,2,"TruthRating",788,"Die Wüste Dahna liegt in Saudi-Arabien.","SetC","True","No",NA,NA,2,1660,NA,NA,NA,"selected"
"TE_Experiment2",1,2,"Experimental",1,2,"TruthRating",789,"Der einstige UNO-Generalsekretär Kofi Annan kommt aus Nigeria.","SetC","False","No",NA,NA,2,2064,NA,NA,NA,"selected"
"TE_Experiment2",1,2,"Experimental",1,3,"RecogTest",790,"Mongolen geben Salz statt Zucker in ihren Tee.","SetD","True","No",NA,NA,NA,NA,"New",4030,"CorRejection","selected"
"TE_Experiment2",1,2,"Experimental",1,3,"RecogTest",791,"Die Wüste Gobi ist eine Felswüste.","SetD","False","No",NA,NA,NA,NA,"New",1682,"CorRejection","selected"
"TE_Experiment2",1,2,"Experimental",1,3,"RecogTest",792,"In Angola ist Spanisch die offizielle Amtssprache.","SetD","False","No",NA,NA,NA,NA,"New",3210,"CorRejection","selected"
"TE_Experiment2",1,2,"Experimental",1,3,"RecogTest",793,"Eine wirkungsvolle Art eine Kakerlake zu töten ist ihr den Kopf abzutrennen.","SetD","False","No",NA,NA,NA,NA,"New",2660,"CorRejection","selected"
"TE_Experiment2",1,2,"Experimental",1,3,"RecogTest",794,"Sauberer Schnee schmilzt schneller als schmutziger Schnee.","SetD","False","No",NA,NA,NA,NA,"New",2150,"CorRejection","selected"
"TE_Experiment2",1,2,"Experimental",1,3,"RecogTest",795,"Die Gebrüder Montgolfier entwarfen den ersten Fallschirm.","SetB","False","Yes",NA,NA,NA,NA,"Old",2060,"Hit","selected"
"TE_Experiment2",1,2,"Experimental",1,3,"RecogTest",796,"Die Erde wird in 340 Längenkreise unterteilt.","SetD","True","No",NA,NA,NA,NA,"New",1919,"CorRejection","selected"
"TE_Experiment2",1,2,"Experimental",1,3,"RecogTest",797,"Nauru ist die kleinste souveräne Republik der Erde.","SetD","True","No",NA,NA,NA,NA,"New",1936,"CorRejection","selected"
"TE_Experiment2",1,2,"Experimental",1,3,"RecogTest",798,"König Karl IV von Frankreich wurde auch ""Karl der Böse"" genannt.","SetD","False","No",NA,NA,NA,NA,"New",2154,"CorRejection","selected"
"TE_Experiment2",1,2,"Experimental",1,3,"RecogTest",799,"Tony Blair und Rowan Atkinson gingen auf die gleiche Schule.","SetD","True","No",NA,NA,NA,NA,"New",1751,"CorRejection","selected"
"TE_Experiment2",1,2,"Experimental",1,3,"RecogTest",800,"Bei Männern heißt übermäßiger Geschlechtstrieb nicht Nymphomanie sondern Satyriasis.","SetD","True","No",NA,NA,NA,NA,"New",2366,"CorRejection","selected"
"TE_Experiment2",1,2,"Experimental",1,3,"RecogTest",801,"Ein Systemabsturz eines Mac-Rechners wird durch ein Warndreieck angezeigt.","SetD","False","No",NA,NA,NA,NA,"New",1621,"CorRejection","selected"
"TE_Experiment2",1,2,"Experimental",1,3,"RecogTest",802,"Die Luftpumpe ist eine französische Erfindung.","SetD","False","No",NA,NA,NA,NA,"New",1329,"CorRejection","selected"
"TE_Experiment2",1,2,"Experimental",1,3,"RecogTest",803,"Die italienische Flagge wurde von Giuseppe Garibaldi entworfen.","SetB","False","Yes",NA,NA,NA,NA,"Old",1372,"Hit","selected"
"TE_Experiment2",1,2,"Experimental",1,3,"RecogTest",804,"Tennis wurde in englischen Klöstern erfunden. ","SetB","False","Yes",NA,NA,NA,NA,"Old",1615,"Hit","selected"
"TE_Experiment2",1,2,"Experimental",1,3,"RecogTest",805,"Otto Rehhagel wurde 2004 als ""Grieche des Jahres"" ausgezeichnet.","SetD","True","No",NA,NA,NA,NA,"New",1483,"CorRejection","selected"
"TE_Experiment2",1,2,"Experimental",1,3,"RecogTest",806,"Den Haag ist der offizielle Verwaltungssitz der Niederlande. ","SetB","True","Yes",NA,NA,NA,NA,"Old",2212,"Hit","selected"
"TE_Experiment2",1,2,"Experimental",1,3,"RecogTest",807,"Ein Schwan trägt ca. 50.000 Federn am Körper.","SetB","False","Yes",NA,NA,NA,NA,"Old",1534,"Hit","selected"
"TE_Experiment2",1,2,"Experimental",1,3,"RecogTest",808,"Henry Maske wurde Weltmeister im Cruisergewicht. ","SetD","False","No",NA,NA,NA,NA,"New",2298,"CorRejection","selected"
"TE_Experiment2",1,2,"Experimental",1,3,"RecogTest",809,"Die Hälfte der Bürger Albaniens ist jünger als 30 Jahre.","SetB","False","Yes",NA,NA,NA,NA,"Old",2140,"Hit","selected"
"TE_Experiment2",1,2,"Experimental",1,3,"RecogTest",810,"Dreifarbige Katzen sind fast immer weiblich.","SetB","True","Yes",NA,NA,NA,NA,"Old",1327,"Hit","selected"
"TE_Experiment2",1,2,"Experimental",1,3,"RecogTest",811,"Kendo ist eine aus Japan stammende waffenlose Kampfsportart.","SetB","False","Yes",NA,NA,NA,NA,"Old",3078,"Hit","selected"
"TE_Experiment2",1,2,"Experimental",1,3,"RecogTest",812,"Die Schweden führten als erste Kartons anstelle von Milchflaschen ein.","SetB","True","Yes",NA,NA,NA,NA,"Old",3038,"Hit","selected"
"TE_Experiment2",1,2,"Experimental",1,3,"RecogTest",813,"Auf jedem Kontinent gibt es eine Stadt die Rom heißt.","SetB","True","Yes",NA,NA,NA,NA,"Old",2221,"Hit","selected"
"TE_Experiment2",1,2,"Experimental",1,3,"RecogTest",814,"Lachse können bis zu 20 Jahre alt werden. ","SetB","False","Yes",NA,NA,NA,NA,"Old",1359,"Hit","selected"
"TE_Experiment2",1,2,"Experimental",1,3,"RecogTest",815,"Laut EU-Vorschrift darf ein iPod die Lautstärke von 80 Dezibel nicht  überschreiten. ","SetB","False","Yes",NA,NA,NA,NA,"Old",2065,"Hit","selected"
"TE_Experiment2",1,2,"Experimental",1,3,"RecogTest",816,"Die alten Perser kelterten den ersten Wein.","SetD","True","No",NA,NA,NA,NA,"New",2662,"CorRejection","selected"
"TE_Experiment2",1,2,"Experimental",1,3,"RecogTest",817,"Kaiser Konstantin IV wurde auf Befehl seiner eigenen Mutter ermordet.","SetB","True","Yes",NA,NA,NA,NA,"Old",2833,"Hit","selected"
"TE_Experiment2",1,2,"Experimental",1,3,"RecogTest",818,"Mitgliedern der Nazi-SS wurde ihre Blutgruppe in die Achselhöhle tätowiert.","SetB","True","Yes",NA,NA,NA,NA,"Old",1629,"Hit","selected"
"TE_Experiment2",1,2,"Experimental",1,3,"RecogTest",819,"Der Philosoph Platon war einer der besten Speerwerfer seiner Zeit.","SetD","False","No",NA,NA,NA,NA,"New",3628,"CorRejection","selected"
"TE_Experiment2",1,2,"Experimental",1,3,"RecogTest",820,"Ein menschliches Haar wächst jährlich ca. 85 mm.","SetB","True","Yes",NA,NA,NA,NA,"Old",1607,"Hit","selected"
"TE_Experiment2",1,2,"Experimental",1,3,"RecogTest",821,"Die frühesten Vorläufer des Sudoku waren die lateinischen Quadrate des Mathematikers Leonhard Euler.","SetD","True","No",NA,NA,NA,NA,"New",2681,"CorRejection","selected"
"TE_Experiment2",1,2,"Experimental",1,3,"RecogTest",822,"Spanien schaffte als letztes aller EU-Länder 1996 die Todesstrafe ab.","SetD","False","No",NA,NA,NA,NA,"New",3808,"CorRejection","selected"
"TE_Experiment2",1,2,"Experimental",1,3,"RecogTest",823,"Die Farbe von Hühnereiern kann man anhand der Farbe der Ohrenscheiben des Huhns voraussagen.","SetB","True","Yes",NA,NA,NA,NA,"Old",2895,"Hit","selected"
"TE_Experiment2",1,2,"Experimental",1,3,"RecogTest",824,"Balsaholz ist die schwerste aller Holzarten.","SetB","False","Yes",NA,NA,NA,NA,"Old",2841,"Hit","selected"
"TE_Experiment2",1,2,"Experimental",1,3,"RecogTest",825,"Sambia hieß früher Nordrhodesien.","SetD","True","No",NA,NA,NA,NA,"New",2425,"CorRejection","selected"
"TE_Experiment2",1,2,"Experimental",1,3,"RecogTest",826,"Markus Merk wurde Weltschiedsrichter des Jahres 2006.","SetB","False","Yes",NA,NA,NA,NA,"Old",3430,"Hit","selected"
"TE_Experiment2",1,2,"Experimental",1,3,"RecogTest",827,"Der Friedensvertrag, der den Deutsch-Französischen Krieg beendete, wurde in Frankfurt am Main geschlossen.","SetD","True","No",NA,NA,NA,NA,"New",3058,"CorRejection","selected"
"TE_Experiment2",1,2,"Experimental",1,3,"RecogTest",828,"Erdbeeren enthalten mehr Vitamin C als Orangen.","SetB","True","Yes",NA,NA,NA,NA,"Old",1772,"Hit","selected"
"TE_Experiment2",1,2,"Experimental",1,3,"RecogTest",829,"Tuberkulose wird durch Viren übertragen.","SetB","False","Yes",NA,NA,NA,NA,"Old",1904,"Hit","selected"
"TE_Experiment2",1,2,"Experimental",1,3,"RecogTest",830,"Alexander Graham Bell erfand das Tragflügelboot.","SetB","True","Yes",NA,NA,NA,NA,"Old",2605,"Hit","selected"
"TE_Experiment2",1,2,"Experimental",1,3,"RecogTest",831,"Der Biss der großen Blauringkrake führt innerhalb weniger Minuten zum Tod.","SetD","True","No",NA,NA,NA,NA,"New",4541,"CorRejection","selected"
"TE_Experiment2",1,2,"Experimental",1,3,"RecogTest",832,"Tom Cruise ist Legastheniker.","SetD","True","No",NA,NA,NA,NA,"New",1725,"CorRejection","selected"
"TE_Experiment2",1,2,"Experimental",1,3,"RecogTest",833,"Tiger haben nicht nur gestreiftes Fell, sondern auch gestreifte Haut.","SetB","True","Yes",NA,NA,NA,NA,"Old",1710,"Hit","selected"
"TE_Experiment2",10,1,"Control",4,NA,"Buffer",1,"Ein Blatt Papier lässt sich genau achtmal in der Hälfte falten.","Buffer",NA,NA,NA,NA,5,2248,NA,NA,NA,NA
"TE_Experiment2",10,1,"Control",4,NA,"Buffer",2,"Der Weißmeer-Kanal ist der längste Kanal der Erde.","Buffer",NA,NA,NA,NA,4,1753,NA,NA,NA,NA
"TE_Experiment2",10,1,"Control",4,NA,"Buffer",3,"Der Katzenwels besitzt mehr Geschmacksknospen als jedes andere Lebewesen.","Buffer",NA,NA,NA,NA,3,2008,NA,NA,NA,NA
"TE_Experiment2",10,1,"Control",4,NA,"Buffer",4,"IRA ist die Abkürzung für ""Irish Revolting Army"".","Buffer",NA,NA,NA,NA,3,1953,NA,NA,NA,NA
"TE_Experiment2",10,1,"Control",4,NA,"Buffer",5,"Die dänische Flagge ist die älteste unveränderte Nationalflagge der Welt.","Buffer",NA,NA,NA,NA,4,623,NA,NA,NA,NA
"TE_Experiment2",10,1,"Control",4,1,"TruthRating",6,"Kaiser Konstantin IV wurde auf Befehl seiner eigenen Mutter ermordet.","SetB","True",NA,NA,NA,3,791,NA,NA,NA,NA
"TE_Experiment2",10,1,"Control",4,1,"TruthRating",7,"Eine Stubenfliege hat eine maximale Lebensdauer von 70 Tagen.","SetB","True",NA,NA,NA,3,550,NA,NA,NA,NA
"TE_Experiment2",10,1,"Control",4,1,"TruthRating",8,"Die Azoren gehören zu Spanien.","SetA","False",NA,NA,NA,3,1102,NA,NA,NA,NA
"TE_Experiment2",10,1,"Control",4,1,"TruthRating",9,"Morpheus ist der griechische Gott der Träume.","SetA","True",NA,NA,NA,3,685,NA,NA,NA,NA
"TE_Experiment2",10,1,"Control",4,1,"TruthRating",10,"Eine der ersten deutschen Internetsuchmaschinen hieß ""Alcazar"".","SetA","False",NA,NA,NA,1,776,NA,NA,NA,NA
"TE_Experiment2",10,1,"Control",4,1,"TruthRating",11,"Seoul bedeutet auf koreanisch ""Die Hauptstadt"".","SetB","True",NA,NA,NA,3,1388,NA,NA,NA,NA
"TE_Experiment2",10,1,"Control",4,1,"TruthRating",12,"Den Haag ist der offizielle Verwaltungssitz der Niederlande. ","SetB","True",NA,NA,NA,4,499,NA,NA,NA,NA
"TE_Experiment2",10,1,"Control",4,1,"TruthRating",13,"Seepferdchen gehören zur Gattung der Fische.","SetA","True",NA,NA,NA,3,2536,NA,NA,NA,NA
"TE_Experiment2",10,1,"Control",4,1,"TruthRating",14,"Die Tanne ist der Nadelbaum mit den längsten Nadeln.","SetB","False",NA,NA,NA,3,1068,NA,NA,NA,NA
"TE_Experiment2",10,1,"Control",4,1,"TruthRating",15,"Lachse können bis zu 20 Jahre alt werden. ","SetB","False",NA,NA,NA,4,555,NA,NA,NA,NA
"TE_Experiment2",10,1,"Control",4,1,"TruthRating",16,"Der Kilt stammt ursprünglich aus Irland, nicht aus Schottland.","SetA","False",NA,NA,NA,6,821,NA,NA,NA,NA
"TE_Experiment2",10,1,"Control",4,1,"TruthRating",17,"Tuberkulose wird durch Viren übertragen.","SetB","False",NA,NA,NA,5,738,NA,NA,NA,NA
"TE_Experiment2",10,1,"Control",4,1,"TruthRating",18,"Balsaholz ist die schwerste aller Holzarten.","SetB","False",NA,NA,NA,3,463,NA,NA,NA,NA
"TE_Experiment2",10,1,"Control",4,1,"TruthRating",19,"Freddie Mercurys richtiger Name lautete Farrokh Bulsara.","SetA","True",NA,NA,NA,3,591,NA,NA,NA,NA
"TE_Experiment2",10,1,"Control",4,1,"TruthRating",20,"Richard Gere und Cindy Crawford ließen sich in Mexiko trauen.","SetB","False",NA,NA,NA,3,486,NA,NA,NA,NA
"TE_Experiment2",10,1,"Control",4,1,"TruthRating",21,"Die Stilrichtung des Impressionismus entwickelte sich in Spanien. ","SetA","False",NA,NA,NA,4,617,NA,NA,NA,NA
"TE_Experiment2",10,1,"Control",4,1,"TruthRating",22,"Der Allradantrieb wurde 1938 in England erfunden.","SetB","False",NA,NA,NA,4,725,NA,NA,NA,NA
"TE_Experiment2",10,1,"Control",4,1,"TruthRating",23,"Das einzige Bild, das Van Gogh zu seinen Lebzeiten verkaufte, war ""Der rote Weinberg"".","SetB","True",NA,NA,NA,3,560,NA,NA,NA,NA
"TE_Experiment2",10,1,"Control",4,1,"TruthRating",24,"Markus Merk wurde Weltschiedsrichter des Jahres 2006.","SetB","False",NA,NA,NA,4,971,NA,NA,NA,NA
"TE_Experiment2",10,1,"Control",4,1,"TruthRating",25,"Ultraschall sind Wellen und Schwingungen unterhalb von 16 Hertz.","SetA","False",NA,NA,NA,4,535,NA,NA,NA,NA
"TE_Experiment2",10,1,"Control",4,1,"TruthRating",26,"Ein Dingo kann länger ohne Wasser leben als ein Kamel.","SetA","False",NA,NA,NA,3,1196,NA,NA,NA,NA
"TE_Experiment2",10,1,"Control",4,1,"TruthRating",27,"Der Durchmesser des Wurfkreises beim Diskuswerfens beträgt 2,5 m.","SetA","True",NA,NA,NA,3,1438,NA,NA,NA,NA
"TE_Experiment2",10,1,"Control",4,1,"TruthRating",28,"Alexander Graham Bell erfand das Tragflügelboot.","SetB","True",NA,NA,NA,3,584,NA,NA,NA,NA
"TE_Experiment2",10,1,"Control",4,1,"TruthRating",29,"Albert Einstein heiratete seine Cousine.","SetB","True",NA,NA,NA,3,951,NA,NA,NA,NA
"TE_Experiment2",10,1,"Control",4,1,"TruthRating",30,"Der Name BenQ steht für Bringing Enjoyment and Quality to Life.","SetA","True",NA,NA,NA,5,775,NA,NA,NA,NA
"TE_Experiment2",10,1,"Control",4,1,"TruthRating",31,"Die italienische Flagge wurde von Giuseppe Garibaldi entworfen.","SetB","False",NA,NA,NA,5,723,NA,NA,NA,NA
"TE_Experiment2",10,1,"Control",4,1,"TruthRating",32,"Der Mond passt vierzigmal in die Erdkugel.","SetA","False",NA,NA,NA,3,582,NA,NA,NA,NA
"TE_Experiment2",10,1,"Control",4,1,"TruthRating",33,"Das hawaiianische Alphabet besteht aus nur 12 Buchstaben.","SetB","True",NA,NA,NA,4,693,NA,NA,NA,NA
"TE_Experiment2",10,1,"Control",4,1,"TruthRating",34,"In Uganda ist die Amtssprache Englisch.","SetB","True",NA,NA,NA,3,754,NA,NA,NA,NA
"TE_Experiment2",10,1,"Control",4,1,"TruthRating",35,"Das meiste Gold wird derzeit in Südafrika gefördert.","SetA","True",NA,NA,NA,4,578,NA,NA,NA,NA
"TE_Experiment2",10,1,"Control",4,1,"TruthRating",36,"Der erste Bordcomputer für Autos wurde in Amerika entwickelt. ","SetA","False",NA,NA,NA,3,655,NA,NA,NA,NA
"TE_Experiment2",10,1,"Control",4,1,"TruthRating",37,"Das indische Tadsch Mahal wurde aus Basalt-Stein erbaut.","SetA","False",NA,NA,NA,4,820,NA,NA,NA,NA
"TE_Experiment2",10,1,"Control",4,1,"TruthRating",38,"Jürgen Klinsmann erhielt bei Bayern München den Spitznamen ""Flipper"".","SetB","True",NA,NA,NA,2,657,NA,NA,NA,NA
"TE_Experiment2",10,1,"Control",4,1,"TruthRating",39,"Ein menschliches Haar wächst jährlich ca. 85 mm.","SetB","True",NA,NA,NA,3,542,NA,NA,NA,NA
"TE_Experiment2",10,1,"Control",4,1,"TruthRating",40,"Bob Dylan arbeitet nebenberuflich als Winzer.","SetA","True",NA,NA,NA,5,826,NA,NA,NA,NA
"TE_Experiment2",10,1,"Control",4,1,"TruthRating",41,"Manama ist die Hauptstadt Bahrains.","SetA","True",NA,NA,NA,3,529,NA,NA,NA,NA
"TE_Experiment2",10,1,"Control",4,1,"TruthRating",42,"Das Schnabeltier gehört nicht zur Gattung der Säugetiere.","SetA","False",NA,NA,NA,3,566,NA,NA,NA,NA
"TE_Experiment2",10,1,"Control",4,1,"TruthRating",43,"Weibliche Frettchen können an Östrogenvergiftung sterben, wenn sie läufig sind und nicht gedeckt werden.","SetA","True",NA,NA,NA,3,2034,NA,NA,NA,NA
"TE_Experiment2",10,1,"Control",4,1,"TruthRating",44,"März und April sind die heißesten Monate auf den Malediven.","SetA","True",NA,NA,NA,4,1680,NA,NA,NA,NA
"TE_Experiment2",10,1,"Control",4,1,"TruthRating",45,"Ein Menschenfloh kann 20cm hoch springen.","SetB","True",NA,NA,NA,5,913,NA,NA,NA,NA
"TE_Experiment2",10,1,"Control",4,1,"TruthRating",46,"Der Pavane ist ein spanisch-italienischer Volkstanz aus dem 16. Jahrhundert.","SetA","True",NA,NA,NA,4,585,NA,NA,NA,NA
"TE_Experiment2",10,1,"Control",4,1,"TruthRating",47,"Dreifarbige Katzen sind fast immer weiblich.","SetB","True",NA,NA,NA,3,2120,NA,NA,NA,NA
"TE_Experiment2",10,1,"Control",4,1,"TruthRating",48,"Schären sind Talgletscher in Skandinavien.","SetB","False",NA,NA,NA,3,593,NA,NA,NA,NA
"TE_Experiment2",10,1,"Control",4,1,"TruthRating",49,"Ein Schwan trägt ca. 50.000 Federn am Körper.","SetB","False",NA,NA,NA,4,505,NA,NA,NA,NA
"TE_Experiment2",10,1,"Control",4,1,"TruthRating",50,"Die Schweden führten als erste Kartons anstelle von Milchflaschen ein.","SetB","True",NA,NA,NA,3,929,NA,NA,NA,NA
"TE_Experiment2",10,1,"Control",4,1,"TruthRating",51,"Tennis wurde in englischen Klöstern erfunden. ","SetB","False",NA,NA,NA,4,795,NA,NA,NA,NA
"TE_Experiment2",10,1,"Control",4,1,"TruthRating",52,"Die Hälfte der Bürger Albaniens ist jünger als 30 Jahre.","SetB","False",NA,NA,NA,3,1354,NA,NA,NA,NA
"TE_Experiment2",10,1,"Control",4,1,"TruthRating",53,"Die Bach-Blütentherapie ist deutlich wirksamer als ein Placebo.","SetA","False",NA,NA,NA,3,1217,NA,NA,NA,NA
"TE_Experiment2",10,1,"Control",4,1,"TruthRating",54,"Auf jedem Kontinent gibt es eine Stadt die Rom heißt.","SetB","True",NA,NA,NA,2,1286,NA,NA,NA,NA
"TE_Experiment2",10,1,"Control",4,1,"TruthRating",55,"Das Domino-Spiel besteht aus 28 Steinen.","SetA","True",NA,NA,NA,3,3303,NA,NA,NA,NA
"TE_Experiment2",10,1,"Control",4,1,"TruthRating",56,"Schwebfliegen sind die einzigen Insekten die rückwärts fliegen können.","SetB","False",NA,NA,NA,3,642,NA,NA,NA,NA
"TE_Experiment2",10,1,"Control",4,1,"TruthRating",57,"Das Jojo war ursprünglich eine philippinische Jagdwaffe.","SetA","True",NA,NA,NA,2,788,NA,NA,NA,NA
"TE_Experiment2",10,1,"Control",4,1,"TruthRating",58,"Die Farbe von Hühnereiern kann man anhand der Farbe der Ohrenscheiben des Huhns voraussagen.","SetB","True",NA,NA,NA,1,2108,NA,NA,NA,NA
"TE_Experiment2",10,1,"Control",4,1,"TruthRating",59,"Ibo ist wie Esperanto eine künstliche Welthilfssprache.","SetA","False",NA,NA,NA,3,754,NA,NA,NA,NA
"TE_Experiment2",10,1,"Control",4,1,"TruthRating",60,"Sumatra ist die viertgrößte Insel der Welt. ","SetB","False",NA,NA,NA,4,513,NA,NA,NA,NA
"TE_Experiment2",10,1,"Control",4,1,"TruthRating",61,"Minerva ist die römische Göttin der Weisheit.","SetA","True",NA,NA,NA,3,617,NA,NA,NA,NA
"TE_Experiment2",10,1,"Control",4,1,"TruthRating",62,"Die Schwarzerle zählt zu den Buchengewächsen.","SetA","False",NA,NA,NA,5,614,NA,NA,NA,NA
"TE_Experiment2",10,1,"Control",4,1,"TruthRating",63,"In Bolivien liegt der höchstgelegene Regierungssitz der Welt.","SetA","True",NA,NA,NA,3,571,NA,NA,NA,NA
"TE_Experiment2",10,1,"Control",4,1,"TruthRating",64,"Volleyball wurde in Florida erfunden.","SetB","False",NA,NA,NA,5,824,NA,NA,NA,NA
"TE_Experiment2",10,1,"Control",4,1,"TruthRating",65,"Bei Nahrungsmangel kann ein Spulwurm bis zu 95% seines eigenen Körpers verzehren.","SetA","False",NA,NA,NA,5,952,NA,NA,NA,NA
"TE_Experiment2",10,1,"Control",4,1,"TruthRating",66,"Der Prophet Mohammed arbeitete vor seiner religiösen Berufung als Arzt. ","SetA","False",NA,NA,NA,3,631,NA,NA,NA,NA
"TE_Experiment2",10,1,"Control",4,1,"TruthRating",67,"Erdbeeren enthalten mehr Vitamin C als Orangen.","SetB","True",NA,NA,NA,3,575,NA,NA,NA,NA
"TE_Experiment2",10,1,"Control",4,1,"TruthRating",68,"Die Luftröhre eines Menschen ist durchschnittlich 24 cm lang. ","SetB","False",NA,NA,NA,4,740,NA,NA,NA,NA
"TE_Experiment2",10,1,"Control",4,1,"TruthRating",69,"Laut WHO sind Krebserkrankungen die häufigste Todesursache.  ","SetA","False",NA,NA,NA,2,729,NA,NA,NA,NA
"TE_Experiment2",10,1,"Control",4,1,"TruthRating",70,"Die Insel Ösel gehört zu Dänemark.","SetA","False",NA,NA,NA,2,598,NA,NA,NA,NA
"TE_Experiment2",10,1,"Control",4,1,"TruthRating",71,"Mitgliedern der Nazi-SS wurde ihre Blutgruppe in die Achselhöhle tätowiert.","SetB","True",NA,NA,NA,5,615,NA,NA,NA,NA
"TE_Experiment2",10,1,"Control",4,1,"TruthRating",72,"Laut EU-Vorschrift darf ein iPod die Lautstärke von 80 Dezibel nicht  überschreiten. ","SetB","False",NA,NA,NA,2,901,NA,NA,NA,NA
"TE_Experiment2",10,1,"Control",4,1,"TruthRating",73,"Die in Südamerika beheimatete Kammspinne zählt zu den drei giftigsten Spinnenarten der Welt.","SetB","True",NA,NA,NA,3,641,NA,NA,NA,NA
"TE_Experiment2",10,1,"Control",4,1,"TruthRating",74,"Die Gebrüder Montgolfier entwarfen den ersten Fallschirm.","SetB","False",NA,NA,NA,5,811,NA,NA,NA,NA
"TE_Experiment2",10,1,"Control",4,1,"TruthRating",75,"Nur ca. zwei Prozent der Weltbevölkerung sind von Natur aus blond.","SetA","True",NA,NA,NA,4,880,NA,NA,NA,NA
"TE_Experiment2",10,1,"Control",4,1,"TruthRating",76,"Der spanische Ex-Diktator Francisco Franco hatte den Beinamen ""Conducator"".","SetA","False",NA,NA,NA,3,706,NA,NA,NA,NA
"TE_Experiment2",10,1,"Control",4,1,"TruthRating",77,"Frauen blinzeln fast doppelt so viel wie Männer.","SetA","True",NA,NA,NA,2,785,NA,NA,NA,NA
"TE_Experiment2",10,1,"Control",4,1,"TruthRating",78,"Unter den Bären legt der Braunbär die größten Entfernungen zurück.","SetA","False",NA,NA,NA,5,553,NA,NA,NA,NA
"TE_Experiment2",10,1,"Control",4,1,"TruthRating",79,"Virginia war die erste englische Kolonie in Nordamerika.","SetA","True",NA,NA,NA,4,585,NA,NA,NA,NA
"TE_Experiment2",10,1,"Control",4,1,"TruthRating",80,"Kendo ist eine aus Japan stammende waffenlose Kampfsportart.","SetB","False",NA,NA,NA,2,608,NA,NA,NA,NA
"TE_Experiment2",10,1,"Control",4,1,"TruthRating",81,"Ein neugeborenes Panda-Baby ist kleiner als eine Maus.","SetA","True",NA,NA,NA,3,1005,NA,NA,NA,NA
"TE_Experiment2",10,1,"Control",4,1,"TruthRating",82,"1 Meter entspricht dem fünfzigmillionsten Teil des Erdumfangs.","SetA","False",NA,NA,NA,3,447,NA,NA,NA,NA
"TE_Experiment2",10,1,"Control",4,1,"TruthRating",83,"Die Norfolkinseln im Pazifik gehören zu Neuseeland. ","SetA","False",NA,NA,NA,4,866,NA,NA,NA,NA
"TE_Experiment2",10,1,"Control",4,1,"TruthRating",84,"Tiger haben nicht nur gestreiftes Fell, sondern auch gestreifte Haut.","SetB","True",NA,NA,NA,2,1033,NA,NA,NA,NA
"TE_Experiment2",10,1,"Control",4,1,"TruthRating",85,"Bolivien ist der kleinste Binnenstaat Südamerikas. ","SetA","False",NA,NA,NA,3,584,NA,NA,NA,NA
"TE_Experiment2",10,1,"Control",4,1,"TruthRating",86,"Ende 2003 waren in Deutschland 15 Atomkraftwerke am Netz. ","SetB","False",NA,NA,NA,4,584,NA,NA,NA,NA
"TE_Experiment2",10,1,"Control",4,1,"TruthRating",87,"Der Javagraben ist die tiefste Meerestiefe der Welt.","SetB","False",NA,NA,NA,3,584,NA,NA,NA,NA
"TE_Experiment2",10,1,"Control",4,1,"TruthRating",88,"Der Bereich zwischen den Augenbrauen heißt Glabella.","SetA","True",NA,NA,NA,4,736,NA,NA,NA,NA
"TE_Experiment2",10,1,"Control",4,1,"TruthRating",89,"Kanada hat die längste Küste von allen Staaten der Erde.","SetA","True",NA,NA,NA,3,492,NA,NA,NA,NA
"TE_Experiment2",10,1,"Control",4,1,"TruthRating",90,"Es gibt drei amerikanische Städte, die ""Santa Claus"" heißen.","SetB","True",NA,NA,NA,4,538,NA,NA,NA,NA
"TE_Experiment2",10,1,"Control",4,1,"TruthRating",91,"Das Zwerghörnchen ist das kleinste Säugetier Europas.","SetB","False",NA,NA,NA,3,719,NA,NA,NA,NA
"TE_Experiment2",10,1,"Control",4,1,"TruthRating",92,"Das Lieblingsgetränk von Benedikt XVI. ist Fanta.","SetB","True",NA,NA,NA,3,553,NA,NA,NA,NA
"TE_Experiment2",10,1,"Control",4,1,"TruthRating",93,"Sheryl Crow war Hürdenläuferin.","SetA","True",NA,NA,NA,1,745,NA,NA,NA,NA
"TE_Experiment2",10,1,"Control",4,NA,"Buffer",94,"Die weibliche Kammratte hat ihre Brustwarzen am Rücken.","Buffer",NA,NA,NA,NA,3,528,NA,NA,NA,NA
"TE_Experiment2",10,1,"Control",4,NA,"Buffer",95,"Siemens meldete 2004 in Deutschland die meisten Patente an.","Buffer",NA,NA,NA,NA,3,1683,NA,NA,NA,NA
"TE_Experiment2",10,1,"Control",4,NA,"Buffer",96,"Menschen und Affen sind die einzigen Lebewesen, die weinen. ","Buffer",NA,NA,NA,NA,1,716,NA,NA,NA,NA
"TE_Experiment2",10,1,"Control",4,NA,"Buffer",97,"Babys werden ohne Gaumenbein geboren.","Buffer",NA,NA,NA,NA,3,1286,NA,NA,NA,NA
"TE_Experiment2",10,1,"Control",4,NA,"Buffer",98,"Indigoblau ist der älteste bekannte pflanzliche Farbstoff.","Buffer",NA,NA,NA,NA,4,1960,NA,NA,NA,NA
"TE_Experiment2",10,1,"Control",4,2,"TruthRating",702,"Otto Rehhagel wurde 2004 als ""Grieche des Jahres"" ausgezeichnet.","SetD","True","No",NA,NA,3,1132,NA,NA,NA,"selected"
"TE_Experiment2",10,1,"Control",4,2,"TruthRating",703,"Es gibt drei amerikanische Städte, die ""Santa Claus"" heißen.","SetB","True","Yes",NA,NA,3,648,NA,NA,NA,"selected"
"TE_Experiment2",10,1,"Control",4,2,"TruthRating",704,"Bei Männern heißt übermäßiger Geschlechtstrieb nicht Nymphomanie sondern Satyriasis.","SetD","True","No",NA,NA,3,957,NA,NA,NA,"selected"
"TE_Experiment2",10,1,"Control",4,2,"TruthRating",705,"Das einzige Bild, das Van Gogh zu seinen Lebzeiten verkaufte, war ""Der rote Weinberg"".","SetB","True","Yes",NA,NA,3,671,NA,NA,NA,"selected"
"TE_Experiment2",10,1,"Control",4,2,"TruthRating",706,"Den Haag ist der offizielle Verwaltungssitz der Niederlande. ","SetB","True","Yes",NA,NA,4,679,NA,NA,NA,"selected"
"TE_Experiment2",10,1,"Control",4,2,"TruthRating",707,"Von allen Staaten hat Singapur die höchste Einwohnerdichte.","SetD","False","No",NA,NA,4,697,NA,NA,NA,"selected"
"TE_Experiment2",10,1,"Control",4,2,"TruthRating",708,"Sumatra ist die viertgrößte Insel der Welt. ","SetB","False","Yes",NA,NA,3,638,NA,NA,NA,"selected"
"TE_Experiment2",10,1,"Control",4,2,"TruthRating",709,"Julius Cäsar und Alexander der Große litten beide unter Epilepsie.","SetD","True","No",NA,NA,4,480,NA,NA,NA,"selected"
"TE_Experiment2",10,1,"Control",4,2,"TruthRating",710,"Die Luftröhre eines Menschen ist durchschnittlich 24 cm lang. ","SetB","False","Yes",NA,NA,4,491,NA,NA,NA,"selected"
"TE_Experiment2",10,1,"Control",4,2,"TruthRating",711,"Ein frei neben der Kirche stehender Glockenturm wird Kemenate genannt.","SetD","False","No",NA,NA,3,752,NA,NA,NA,"selected"
"TE_Experiment2",10,1,"Control",4,2,"TruthRating",712,"Disneyworld ist größer als die zehn kleinsten Länder der Erde.","SetD","False","No",NA,NA,3,759,NA,NA,NA,"selected"
"TE_Experiment2",10,1,"Control",4,2,"TruthRating",713,"Albert Einstein heiratete seine Cousine.","SetB","True","Yes",NA,NA,3,530,NA,NA,NA,"selected"
"TE_Experiment2",10,1,"Control",4,2,"TruthRating",714,"Das Osterfest fällt immer auf den ersten Sonntag nach Neumond nach dem 21. März.","SetD","False","No",NA,NA,3,2727,NA,NA,NA,"selected"
"TE_Experiment2",10,1,"Control",4,2,"TruthRating",715,"Das hawaiianische Alphabet besteht aus nur 12 Buchstaben.","SetB","True","Yes",NA,NA,4,455,NA,NA,NA,"selected"
"TE_Experiment2",10,1,"Control",4,2,"TruthRating",716,"Die Maßeinheit für die Größe von Knöpfen heißt ""Linie"".","SetD","True","No",NA,NA,3,540,NA,NA,NA,"selected"
"TE_Experiment2",10,1,"Control",4,2,"TruthRating",717,"In Angola ist Spanisch die offizielle Amtssprache.","SetD","False","No",NA,NA,4,433,NA,NA,NA,"selected"
"TE_Experiment2",10,1,"Control",4,2,"TruthRating",718,"Mongolen geben Salz statt Zucker in ihren Tee.","SetD","True","No",NA,NA,3,513,NA,NA,NA,"selected"
"TE_Experiment2",10,1,"Control",4,2,"TruthRating",719,"Der größte Riesenmammutbaum der Welt heißt ""King Arthur"".","SetD","False","No",NA,NA,3,705,NA,NA,NA,"selected"
"TE_Experiment2",10,1,"Control",4,2,"TruthRating",720,"Eine wirkungsvolle Art eine Kakerlake zu töten ist ihr den Kopf abzutrennen.","SetD","False","No",NA,NA,4,1664,NA,NA,NA,"selected"
"TE_Experiment2",10,1,"Control",4,2,"TruthRating",721,"Auf jedem Kontinent gibt es eine Stadt die Rom heißt.","SetB","True","Yes",NA,NA,2,807,NA,NA,NA,"selected"
"TE_Experiment2",10,1,"Control",4,2,"TruthRating",722,"Bei einer HIV-Infizierung sind die weißen Blutkörperchen von dem Virus befallen.","SetD","True","No",NA,NA,4,1281,NA,NA,NA,"selected"
"TE_Experiment2",10,1,"Control",4,2,"TruthRating",723,"Tom Cruise ist Legastheniker.","SetD","True","No",NA,NA,2,795,NA,NA,NA,"selected"
"TE_Experiment2",10,1,"Control",4,2,"TruthRating",724,"Eine Stubenfliege hat eine maximale Lebensdauer von 70 Tagen.","SetB","True","Yes",NA,NA,3,522,NA,NA,NA,"selected"
"TE_Experiment2",10,1,"Control",4,2,"TruthRating",725,"Die Erde wird in 340 Längenkreise unterteilt.","SetD","True","No",NA,NA,2,877,NA,NA,NA,"selected"
"TE_Experiment2",10,1,"Control",4,2,"TruthRating",726,"Der Philosoph Platon war einer der besten Speerwerfer seiner Zeit.","SetD","False","No",NA,NA,4,399,NA,NA,NA,"selected"
"TE_Experiment2",10,1,"Control",4,2,"TruthRating",727,"Die alten Perser kelterten den ersten Wein.","SetD","True","No",NA,NA,4,433,NA,NA,NA,"selected"
"TE_Experiment2",10,1,"Control",4,2,"TruthRating",728,"Die Hälfte der Bürger Albaniens ist jünger als 30 Jahre.","SetB","False","Yes",NA,NA,3,488,NA,NA,NA,"selected"
"TE_Experiment2",10,1,"Control",4,2,"TruthRating",729,"Die Gruppe Tokio Hotel hieß früher ""Devilish"".","SetD","True","No",NA,NA,2,597,NA,NA,NA,"selected"
"TE_Experiment2",10,1,"Control",4,2,"TruthRating",730,"Volleyball wurde in Florida erfunden.","SetB","False","Yes",NA,NA,4,600,NA,NA,NA,"selected"
"TE_Experiment2",10,1,"Control",4,2,"TruthRating",731,"Das erste Taschenbuch der Geschichte war Goethes ""Faust"".","SetD","True","No",NA,NA,4,674,NA,NA,NA,"selected"
"TE_Experiment2",10,1,"Control",4,2,"TruthRating",732,"Der heißeste Ort im jährlichen Mittel ist Duri in Somalia mit 34,4° Celsius.","SetD","False","No",NA,NA,4,617,NA,NA,NA,"selected"
"TE_Experiment2",10,1,"Control",4,2,"TruthRating",733,"Sauberer Schnee schmilzt schneller als schmutziger Schnee.","SetD","False","No",NA,NA,2,606,NA,NA,NA,"selected"
"TE_Experiment2",10,1,"Control",4,2,"TruthRating",734,"Die Torstangen im Eishockey sind rot.","SetD","True","No",NA,NA,4,481,NA,NA,NA,"selected"
"TE_Experiment2",10,1,"Control",4,2,"TruthRating",735,"Schwebfliegen sind die einzigen Insekten die rückwärts fliegen können.","SetB","False","Yes",NA,NA,3,515,NA,NA,NA,"selected"
"TE_Experiment2",10,1,"Control",4,2,"TruthRating",736,"Die Luftpumpe ist eine französische Erfindung.","SetD","False","No",NA,NA,3,685,NA,NA,NA,"selected"
"TE_Experiment2",10,1,"Control",4,2,"TruthRating",737,"Spanien schaffte als letztes aller EU-Länder 1996 die Todesstrafe ab.","SetD","False","No",NA,NA,3,584,NA,NA,NA,"selected"
"TE_Experiment2",10,1,"Control",4,2,"TruthRating",738,"Sambia hieß früher Nordrhodesien.","SetD","True","No",NA,NA,3,575,NA,NA,NA,"selected"
"TE_Experiment2",10,1,"Control",4,2,"TruthRating",739,"Schären sind Talgletscher in Skandinavien.","SetB","False","Yes",NA,NA,3,420,NA,NA,NA,"selected"
"TE_Experiment2",10,1,"Control",4,2,"TruthRating",740,"Markus Merk wurde Weltschiedsrichter des Jahres 2006.","SetB","False","Yes",NA,NA,3,434,NA,NA,NA,"selected"
"TE_Experiment2",10,1,"Control",4,2,"TruthRating",741,"Die in Südamerika beheimatete Kammspinne zählt zu den drei giftigsten Spinnenarten der Welt.","SetB","True","Yes",NA,NA,3,433,NA,NA,NA,"selected"
"TE_Experiment2",10,1,"Control",4,2,"TruthRating",742,"Der Friedensvertrag, der den Deutsch-Französischen Krieg beendete, wurde in Frankfurt am Main geschlossen.","SetD","True","No",NA,NA,4,497,NA,NA,NA,"selected"
"TE_Experiment2",10,1,"Control",4,2,"TruthRating",743,"Die Tanne ist der Nadelbaum mit den längsten Nadeln.","SetB","False","Yes",NA,NA,3,590,NA,NA,NA,"selected"
"TE_Experiment2",10,1,"Control",4,2,"TruthRating",744,"Tennis wurde in englischen Klöstern erfunden. ","SetB","False","Yes",NA,NA,3,446,NA,NA,NA,"selected"
"TE_Experiment2",10,1,"Control",4,2,"TruthRating",745,"Der Javagraben ist die tiefste Meerestiefe der Welt.","SetB","False","Yes",NA,NA,3,489,NA,NA,NA,"selected"
"TE_Experiment2",10,1,"Control",4,2,"TruthRating",746,"Laut EU-Vorschrift darf ein iPod die Lautstärke von 80 Dezibel nicht  überschreiten. ","SetB","False","Yes",NA,NA,3,541,NA,NA,NA,"selected"
"TE_Experiment2",10,1,"Control",4,2,"TruthRating",747,"Die Wüste Gobi ist eine Felswüste.","SetD","False","No",NA,NA,4,1050,NA,NA,NA,"selected"
"TE_Experiment2",10,1,"Control",4,2,"TruthRating",748,"König Karl IV von Frankreich wurde auch ""Karl der Böse"" genannt.","SetD","False","No",NA,NA,4,614,NA,NA,NA,"selected"
"TE_Experiment2",10,1,"Control",4,2,"TruthRating",749,"Die Zielscheibe beim Gewehrschießen ist in 9 Kreise aufgeteilt.","SetD","True","No",NA,NA,2,2299,NA,NA,NA,"selected"
"TE_Experiment2",10,1,"Control",4,2,"TruthRating",750,"Die frühesten Vorläufer des Sudoku waren die lateinischen Quadrate des Mathematikers Leonhard Euler.","SetD","True","No",NA,NA,4,823,NA,NA,NA,"selected"
"TE_Experiment2",10,1,"Control",4,2,"TruthRating",751,"In Uganda ist die Amtssprache Englisch.","SetB","True","Yes",NA,NA,4,502,NA,NA,NA,"selected"
"TE_Experiment2",10,1,"Control",4,2,"TruthRating",752,"Balsaholz ist die schwerste aller Holzarten.","SetB","False","Yes",NA,NA,3,670,NA,NA,NA,"selected"
"TE_Experiment2",10,1,"Control",4,2,"TruthRating",753,"In Ecuador liegt die höchstgelegene Millionenstadt der Welt.","SetD","True","No",NA,NA,3,662,NA,NA,NA,"selected"
"TE_Experiment2",10,1,"Control",4,2,"TruthRating",754,"Der Null-Meridian läuft durch den Londoner Stadtteil Kingston.","SetD","False","No",NA,NA,3,1077,NA,NA,NA,"selected"
"TE_Experiment2",10,1,"Control",4,2,"TruthRating",755,"Dreifarbige Katzen sind fast immer weiblich.","SetB","True","Yes",NA,NA,3,455,NA,NA,NA,"selected"
"TE_Experiment2",10,1,"Control",4,2,"TruthRating",756,"Alexander Graham Bell erfand das Tragflügelboot.","SetB","True","Yes",NA,NA,3,492,NA,NA,NA,"selected"
"TE_Experiment2",10,1,"Control",4,2,"TruthRating",757,"Richard Gere und Cindy Crawford ließen sich in Mexiko trauen.","SetB","False","Yes",NA,NA,3,473,NA,NA,NA,"selected"
"TE_Experiment2",10,1,"Control",4,2,"TruthRating",758,"Die Nachtwache ist das berühmteste Bild von Rembrandt.","SetD","True","No",NA,NA,3,539,NA,NA,NA,"selected"
"TE_Experiment2",10,1,"Control",4,2,"TruthRating",759,"Kaiser Konstantin IV wurde auf Befehl seiner eigenen Mutter ermordet.","SetB","True","Yes",NA,NA,3,584,NA,NA,NA,"selected"
"TE_Experiment2",10,1,"Control",4,2,"TruthRating",760,"Die Farbe von Hühnereiern kann man anhand der Farbe der Ohrenscheiben des Huhns voraussagen.","SetB","True","Yes",NA,NA,2,752,NA,NA,NA,"selected"
"TE_Experiment2",10,1,"Control",4,2,"TruthRating",761,"Ende 2003 waren in Deutschland 15 Atomkraftwerke am Netz. ","SetB","False","Yes",NA,NA,5,704,NA,NA,NA,"selected"
"TE_Experiment2",10,1,"Control",4,2,"TruthRating",762,"Der Biss der großen Blauringkrake führt innerhalb weniger Minuten zum Tod.","SetD","True","No",NA,NA,4,719,NA,NA,NA,"selected"
"TE_Experiment2",10,1,"Control",4,2,"TruthRating",763,"Nauru ist die kleinste souveräne Republik der Erde.","SetD","True","No",NA,NA,3,713,NA,NA,NA,"selected"
"TE_Experiment2",10,1,"Control",4,2,"TruthRating",764,"Gisèle Bündchen hat einen Zwillingsbruder.","SetD","False","No",NA,NA,4,529,NA,NA,NA,"selected"
"TE_Experiment2",10,1,"Control",4,2,"TruthRating",765,"Tony Blair und Rowan Atkinson gingen auf die gleiche Schule.","SetD","True","No",NA,NA,3,574,NA,NA,NA,"selected"
"TE_Experiment2",10,1,"Control",4,2,"TruthRating",766,"Ein Menschenfloh kann 20cm hoch springen.","SetB","True","Yes",NA,NA,5,667,NA,NA,NA,"selected"
"TE_Experiment2",10,1,"Control",4,2,"TruthRating",767,"Die Gebrüder Montgolfier entwarfen den ersten Fallschirm.","SetB","False","Yes",NA,NA,4,451,NA,NA,NA,"selected"
"TE_Experiment2",10,1,"Control",4,2,"TruthRating",768,"Kendo ist eine aus Japan stammende waffenlose Kampfsportart.","SetB","False","Yes",NA,NA,3,616,NA,NA,NA,"selected"
"TE_Experiment2",10,1,"Control",4,2,"TruthRating",769,"Die Schweden führten als erste Kartons anstelle von Milchflaschen ein.","SetB","True","Yes",NA,NA,3,565,NA,NA,NA,"selected"
"TE_Experiment2",10,1,"Control",4,2,"TruthRating",770,"Das Zwerghörnchen ist das kleinste Säugetier Europas.","SetB","False","Yes",NA,NA,3,767,NA,NA,NA,"selected"
"TE_Experiment2",10,1,"Control",4,2,"TruthRating",771,"Lachse können bis zu 20 Jahre alt werden. ","SetB","False","Yes",NA,NA,3,641,NA,NA,NA,"selected"
"TE_Experiment2",10,1,"Control",4,2,"TruthRating",772,"Jürgen Klinsmann erhielt bei Bayern München den Spitznamen ""Flipper"".","SetB","True","Yes",NA,NA,3,580,NA,NA,NA,"selected"
"TE_Experiment2",10,1,"Control",4,2,"TruthRating",773,"Das Lieblingsgetränk von Benedikt XVI. ist Fanta.","SetB","True","Yes",NA,NA,3,569,NA,NA,NA,"selected"
"TE_Experiment2",10,1,"Control",4,2,"TruthRating",774,"Ein Systemabsturz eines Mac-Rechners wird durch ein Warndreieck angezeigt.","SetD","False","No",NA,NA,4,525,NA,NA,NA,"selected"
"TE_Experiment2",10,1,"Control",4,2,"TruthRating",775,"Ein Schwan trägt ca. 50.000 Federn am Körper.","SetB","False","Yes",NA,NA,4,663,NA,NA,NA,"selected"
"TE_Experiment2",10,1,"Control",4,2,"TruthRating",776,"Tiger haben nicht nur gestreiftes Fell, sondern auch gestreifte Haut.","SetB","True","Yes",NA,NA,2,1128,NA,NA,NA,"selected"
"TE_Experiment2",10,1,"Control",4,2,"TruthRating",777,"Seoul bedeutet auf koreanisch ""Die Hauptstadt"".","SetB","True","Yes",NA,NA,3,545,NA,NA,NA,"selected"
"TE_Experiment2",10,1,"Control",4,2,"TruthRating",778,"Mitgliedern der Nazi-SS wurde ihre Blutgruppe in die Achselhöhle tätowiert.","SetB","True","Yes",NA,NA,4,536,NA,NA,NA,"selected"
"TE_Experiment2",10,1,"Control",4,2,"TruthRating",779,"Erdbeeren enthalten mehr Vitamin C als Orangen.","SetB","True","Yes",NA,NA,3,574,NA,NA,NA,"selected"
"TE_Experiment2",10,1,"Control",4,2,"TruthRating",780,"Tuberkulose wird durch Viren übertragen.","SetB","False","Yes",NA,NA,4,995,NA,NA,NA,"selected"
"TE_Experiment2",10,1,"Control",4,2,"TruthRating",781,"11,9% der Erdoberfläche liegen 1000 Meter über dem Meeresspiegel. ","SetD","False","No",NA,NA,3,658,NA,NA,NA,"selected"
"TE_Experiment2",10,1,"Control",4,2,"TruthRating",782,"Das Capybara ist das größte aller Beuteltiere.","SetD","False","No",NA,NA,3,495,NA,NA,NA,"selected"
"TE_Experiment2",10,1,"Control",4,2,"TruthRating",783,"Henry Maske wurde Weltmeister im Cruisergewicht. ","SetD","False","No",NA,NA,4,676,NA,NA,NA,"selected"
"TE_Experiment2",10,1,"Control",4,2,"TruthRating",784,"Der Allradantrieb wurde 1938 in England erfunden.","SetB","False","Yes",NA,NA,4,502,NA,NA,NA,"selected"
"TE_Experiment2",10,1,"Control",4,2,"TruthRating",785,"Der griechische Gott Apollon ist der Schutzherr der Küste.","SetD","True","No",NA,NA,3,486,NA,NA,NA,"selected"
"TE_Experiment2",10,1,"Control",4,2,"TruthRating",786,"Ein menschliches Haar wächst jährlich ca. 85 mm.","SetB","True","Yes",NA,NA,3,680,NA,NA,NA,"selected"
"TE_Experiment2",10,1,"Control",4,2,"TruthRating",787,"Die italienische Flagge wurde von Giuseppe Garibaldi entworfen.","SetB","False","Yes",NA,NA,4,587,NA,NA,NA,"selected"
"TE_Experiment2",10,1,"Control",4,2,"TruthRating",788,"Das Gehäuse des ersten Apple Computers bestand aus Aluminium.","SetD","False","No",NA,NA,3,946,NA,NA,NA,"selected"
"TE_Experiment2",10,1,"Control",4,2,"TruthRating",789,"Der Segozero in Russland ist der größte See Europas.","SetD","False","No",NA,NA,4,1082,NA,NA,NA,"selected"
"TE_Experiment2",10,1,"Control",4,3,"RecogTest",790,"Papst Johannes Paul II wurde seinerzeit als ""Mann des Jahres"" ausgezeichnet.","SetC","False","No",NA,NA,NA,NA,"New",4864,"CorRejection","selected"
"TE_Experiment2",10,1,"Control",4,3,"RecogTest",791,"Weibliche Frettchen können an Östrogenvergiftung sterben, wenn sie läufig sind und nicht gedeckt werden.","SetA","True","Yes",NA,NA,NA,NA,"Old",1939,"Hit","selected"
"TE_Experiment2",10,1,"Control",4,3,"RecogTest",792,"Das meiste Gold wird derzeit in Südafrika gefördert.","SetA","True","Yes",NA,NA,NA,NA,"Old",3926,"Hit","selected"
"TE_Experiment2",10,1,"Control",4,3,"RecogTest",793,"Manama ist die Hauptstadt Bahrains.","SetA","True","Yes",NA,NA,NA,NA,"New",6309,"Miss","selected"
"TE_Experiment2",10,1,"Control",4,3,"RecogTest",794,"Spanholz besteht hauptsächlich aus Birkenholz.","SetC","True","No",NA,NA,NA,NA,"New",1526,"CorRejection","selected"
"TE_Experiment2",10,1,"Control",4,3,"RecogTest",795,"Freddie Mercurys richtiger Name lautete Farrokh Bulsara.","SetA","True","Yes",NA,NA,NA,NA,"New",1568,"Miss","selected"
"TE_Experiment2",10,1,"Control",4,3,"RecogTest",796,"Der weiße Hai hat keine natürlichen Feinde.","SetC","True","No",NA,NA,NA,NA,"New",1800,"CorRejection","selected"
"TE_Experiment2",10,1,"Control",4,3,"RecogTest",797,"März und April sind die heißesten Monate auf den Malediven.","SetA","True","Yes",NA,NA,NA,NA,"Old",1673,"Hit","selected"
"TE_Experiment2",10,1,"Control",4,3,"RecogTest",798,"Das indische Tadsch Mahal wurde aus Basalt-Stein erbaut.","SetA","False","Yes",NA,NA,NA,NA,"Old",3126,"Hit","selected"
"TE_Experiment2",10,1,"Control",4,3,"RecogTest",799,"Ebenso wie der Fingerabdruck ist auch der Zungenabdruck eines Menschen einzigartig.","SetC","True","No",NA,NA,NA,NA,"New",481,"CorRejection","selected"
"TE_Experiment2",10,1,"Control",4,3,"RecogTest",800,"Der Durchmesser des Wurfkreises beim Diskuswerfens beträgt 2,5 m.","SetA","True","Yes",NA,NA,NA,NA,"Old",1563,"Hit","selected"
"TE_Experiment2",10,1,"Control",4,3,"RecogTest",801,"Der erste Geldautomat wurde bereits 1939 von der City Bank of New York betrieben.","SetC","True","No",NA,NA,NA,NA,"New",2755,"CorRejection","selected"
"TE_Experiment2",10,1,"Control",4,3,"RecogTest",802,"Der Bereich zwischen den Augenbrauen heißt Glabella.","SetA","True","Yes",NA,NA,NA,NA,"Old",1985,"Hit","selected"
"TE_Experiment2",10,1,"Control",4,3,"RecogTest",803,"Bolivien ist der kleinste Binnenstaat Südamerikas. ","SetA","False","Yes",NA,NA,NA,NA,"Old",1534,"Hit","selected"
"TE_Experiment2",10,1,"Control",4,3,"RecogTest",804,"Die Slavonia war das erste Schiff, das das SOS-Notsignal benutzte.","SetC","True","No",NA,NA,NA,NA,"New",2690,"CorRejection","selected"
"TE_Experiment2",10,1,"Control",4,3,"RecogTest",805,"Im arabischen Raum heißt Homer Simpson ""Omar Shamshoon"".","SetC","True","No",NA,NA,NA,NA,"New",1676,"CorRejection","selected"
"TE_Experiment2",10,1,"Control",4,3,"RecogTest",806,"Minerva ist die römische Göttin der Weisheit.","SetA","True","Yes",NA,NA,NA,NA,"Old",3045,"Hit","selected"
"TE_Experiment2",10,1,"Control",4,3,"RecogTest",807,"Pamela Anderson ist kanadische Staatsbürgerin.","SetC","True","No",NA,NA,NA,NA,"New",1340,"CorRejection","selected"
"TE_Experiment2",10,1,"Control",4,3,"RecogTest",808,"1 Meter entspricht dem fünfzigmillionsten Teil des Erdumfangs.","SetA","False","Yes",NA,NA,NA,NA,"Old",2767,"Hit","selected"
"TE_Experiment2",10,1,"Control",4,3,"RecogTest",809,"Ein Polospiel ist in Zeitabschnitte von 7,5 Minuten unterteilt, die man ""Chukkas"" nennt.","SetC","True","No",NA,NA,NA,NA,"New",1767,"CorRejection","selected"
"TE_Experiment2",10,1,"Control",4,3,"RecogTest",810,"Die Wüste Dahna liegt in Saudi-Arabien.","SetC","True","No",NA,NA,NA,NA,"New",2583,"CorRejection","selected"
"TE_Experiment2",10,1,"Control",4,3,"RecogTest",811,"Jimmy Carter war der einzige geschiedene US-Präsident.","SetC","False","No",NA,NA,NA,NA,"New",1285,"CorRejection","selected"
"TE_Experiment2",10,1,"Control",4,3,"RecogTest",812,"In Deutschland leiden ca. 1 Millionen Menschen an Alzheimer.","SetC","True","No",NA,NA,NA,NA,"New",1613,"CorRejection","selected"
"TE_Experiment2",10,1,"Control",4,3,"RecogTest",813,"Das älteste noch existierende Parlament der Welt ist das ""Sejm"" in Polen.","SetC","False","No",NA,NA,NA,NA,"New",1448,"CorRejection","selected"
"TE_Experiment2",10,1,"Control",4,3,"RecogTest",814,"Ein Mensch, der unter Androphobie leidet, hat Angst vor anderen Menschen.","SetC","False","No",NA,NA,NA,NA,"New",1884,"CorRejection","selected"
"TE_Experiment2",10,1,"Control",4,3,"RecogTest",815,"Kleinohrigel haben keine Stacheln.","SetC","False","No",NA,NA,NA,NA,"New",1292,"CorRejection","selected"
"TE_Experiment2",10,1,"Control",4,3,"RecogTest",816,"Der erste Bordcomputer für Autos wurde in Amerika entwickelt. ","SetA","False","Yes",NA,NA,NA,NA,"Old",2263,"Hit","selected"
"TE_Experiment2",10,1,"Control",4,3,"RecogTest",817,"Seepferdchen gehören zur Gattung der Fische.","SetA","True","Yes",NA,NA,NA,NA,"Old",1365,"Hit","selected"
"TE_Experiment2",10,1,"Control",4,3,"RecogTest",818,"Borkum ist die größte ostfriesische Insel.","SetC","True","No",NA,NA,NA,NA,"New",1062,"CorRejection","selected"
"TE_Experiment2",10,1,"Control",4,3,"RecogTest",819,"Die Insel Ösel gehört zu Dänemark.","SetA","False","Yes",NA,NA,NA,NA,"Old",1677,"Hit","selected"
"TE_Experiment2",10,1,"Control",4,3,"RecogTest",820,"Kamele sind über kurze Distanzen schneller als ein Rennpferd.","SetC","False","No",NA,NA,NA,NA,"New",2517,"CorRejection","selected"
"TE_Experiment2",10,1,"Control",4,3,"RecogTest",821,"Unter den Bären legt der Braunbär die größten Entfernungen zurück.","SetA","False","Yes",NA,NA,NA,NA,"Old",1620,"Hit","selected"
"TE_Experiment2",10,1,"Control",4,3,"RecogTest",822,"Italien wurde 1934 zum ersten Mal Fußballweltmeister.","SetC","True","No",NA,NA,NA,NA,"New",1799,"CorRejection","selected"
"TE_Experiment2",10,1,"Control",4,3,"RecogTest",823,"Der richtige Name des Krümelmonsters aus der Sesamstraße lautet ""Sam"".","SetC","False","No",NA,NA,NA,NA,"New",1624,"CorRejection","selected"
"TE_Experiment2",10,1,"Control",4,3,"RecogTest",824,"Kanada hat die längste Küste von allen Staaten der Erde.","SetA","True","Yes",NA,NA,NA,NA,"Old",1942,"Hit","selected"
"TE_Experiment2",10,1,"Control",4,3,"RecogTest",825,"Die Norfolkinseln im Pazifik gehören zu Neuseeland. ","SetA","False","Yes",NA,NA,NA,NA,"Old",3241,"Hit","selected"
"TE_Experiment2",10,1,"Control",4,3,"RecogTest",826,"Der Wassergehalt bei Beeren beträgt 90%.","SetC","True","No",NA,NA,NA,NA,"New",1360,"CorRejection","selected"
"TE_Experiment2",10,1,"Control",4,3,"RecogTest",827,"Der preußische König August I. der Starke wurde auch der Soldatenkönig genannt.","SetC","False","No",NA,NA,NA,NA,"New",1624,"CorRejection","selected"
"TE_Experiment2",10,1,"Control",4,3,"RecogTest",828,"John Wayne hieß in Wirklichkeit Jonathan Walter Miller.","SetC","False","No",NA,NA,NA,NA,"New",1839,"CorRejection","selected"
"TE_Experiment2",10,1,"Control",4,3,"RecogTest",829,"Die Bach-Blütentherapie ist deutlich wirksamer als ein Placebo.","SetA","False","Yes",NA,NA,NA,NA,"Old",1471,"Hit","selected"
"TE_Experiment2",10,1,"Control",4,3,"RecogTest",830,"Der Name BenQ steht für Bringing Enjoyment and Quality to Life.","SetA","True","Yes",NA,NA,NA,NA,"Old",1237,"Hit","selected"
"TE_Experiment2",10,1,"Control",4,3,"RecogTest",831,"Virginia war die erste englische Kolonie in Nordamerika.","SetA","True","Yes",NA,NA,NA,NA,"Old",1214,"Hit","selected"
"TE_Experiment2",10,1,"Control",4,3,"RecogTest",832,"Der Mond passt vierzigmal in die Erdkugel.","SetA","False","Yes",NA,NA,NA,NA,"Old",1577,"Hit","selected"
"TE_Experiment2",10,1,"Control",4,3,"RecogTest",833,"Ein neugeborenes Panda-Baby ist kleiner als eine Maus.","SetA","True","Yes",NA,NA,NA,NA,"Old",6133,"Hit","selected"
"TE_Experiment2",11,1,"Control",5,NA,"Buffer",1,"IRA ist die Abkürzung für ""Irish Revolting Army"".","Buffer",NA,NA,NA,NA,6,2262,NA,NA,NA,NA
"TE_Experiment2",11,1,"Control",5,NA,"Buffer",2,"Der Weißmeer-Kanal ist der längste Kanal der Erde.","Buffer",NA,NA,NA,NA,2,1802,NA,NA,NA,NA
"TE_Experiment2",11,1,"Control",5,NA,"Buffer",3,"Ein Blatt Papier lässt sich genau achtmal in der Hälfte falten.","Buffer",NA,NA,NA,NA,4,1811,NA,NA,NA,NA
"TE_Experiment2",11,1,"Control",5,NA,"Buffer",4,"Der Katzenwels besitzt mehr Geschmacksknospen als jedes andere Lebewesen.","Buffer",NA,NA,NA,NA,2,1575,NA,NA,NA,NA
"TE_Experiment2",11,1,"Control",5,NA,"Buffer",5,"Die dänische Flagge ist die älteste unveränderte Nationalflagge der Welt.","Buffer",NA,NA,NA,NA,4,2379,NA,NA,NA,NA
"TE_Experiment2",11,1,"Control",5,1,"TruthRating",6,"Tony Blair und Rowan Atkinson gingen auf die gleiche Schule.","SetD","True",NA,NA,NA,4,2054,NA,NA,NA,NA
"TE_Experiment2",11,1,"Control",5,1,"TruthRating",7,"Die Band ""Oasis"" hat sich nach einem Fitness-Studio benannt.","SetC","True",NA,NA,NA,4,1570,NA,NA,NA,NA
"TE_Experiment2",11,1,"Control",5,1,"TruthRating",8,"Ebenso wie der Fingerabdruck ist auch der Zungenabdruck eines Menschen einzigartig.","SetC","True",NA,NA,NA,2,1526,NA,NA,NA,NA
"TE_Experiment2",11,1,"Control",5,1,"TruthRating",9,"John Wayne hieß in Wirklichkeit Jonathan Walter Miller.","SetC","False",NA,NA,NA,5,927,NA,NA,NA,NA
"TE_Experiment2",11,1,"Control",5,1,"TruthRating",10,"Tom Cruise ist Legastheniker.","SetD","True",NA,NA,NA,4,1217,NA,NA,NA,NA
"TE_Experiment2",11,1,"Control",5,1,"TruthRating",11,"Der Friedensvertrag, der den Deutsch-Französischen Krieg beendete, wurde in Frankfurt am Main geschlossen.","SetD","True",NA,NA,NA,1,734,NA,NA,NA,NA
"TE_Experiment2",11,1,"Control",5,1,"TruthRating",12,"Die Gruppe Tokio Hotel hieß früher ""Devilish"".","SetD","True",NA,NA,NA,3,1443,NA,NA,NA,NA
"TE_Experiment2",11,1,"Control",5,1,"TruthRating",13,"Das erste Taschenbuch der Geschichte war Goethes ""Faust"".","SetD","True",NA,NA,NA,2,1180,NA,NA,NA,NA
"TE_Experiment2",11,1,"Control",5,1,"TruthRating",14,"Bei Männern heißt übermäßiger Geschlechtstrieb nicht Nymphomanie sondern Satyriasis.","SetD","True",NA,NA,NA,4,1169,NA,NA,NA,NA
"TE_Experiment2",11,1,"Control",5,1,"TruthRating",15,"Das geflügelte Wort ""Gelobt sei, was hart macht"" geht auf  den Philosophen Friedrich Nietzsche zurück.","SetC","True",NA,NA,NA,4,1670,NA,NA,NA,NA
"TE_Experiment2",11,1,"Control",5,1,"TruthRating",16,"Der Film ""Ein unmoralisches Angebot"" bekam die goldene Himbeere verliehen.","SetC","True",NA,NA,NA,4,973,NA,NA,NA,NA
"TE_Experiment2",11,1,"Control",5,1,"TruthRating",17,"Pamela Anderson ist kanadische Staatsbürgerin.","SetC","True",NA,NA,NA,3,1402,NA,NA,NA,NA
"TE_Experiment2",11,1,"Control",5,1,"TruthRating",18,"Ein frei neben der Kirche stehender Glockenturm wird Kemenate genannt.","SetD","False",NA,NA,NA,4,2627,NA,NA,NA,NA
"TE_Experiment2",11,1,"Control",5,1,"TruthRating",19,"Alle Uhren im Film ""Pulp Fiction"" stehen auf 4.10 Uhr.","SetC","False",NA,NA,NA,5,673,NA,NA,NA,NA
"TE_Experiment2",11,1,"Control",5,1,"TruthRating",20,"Der Null-Meridian läuft durch den Londoner Stadtteil Kingston.","SetD","False",NA,NA,NA,6,1529,NA,NA,NA,NA
"TE_Experiment2",11,1,"Control",5,1,"TruthRating",21,"Die Luftpumpe ist eine französische Erfindung.","SetD","False",NA,NA,NA,4,2290,NA,NA,NA,NA
"TE_Experiment2",11,1,"Control",5,1,"TruthRating",22,"Die Zielscheibe beim Gewehrschießen ist in 9 Kreise aufgeteilt.","SetD","True",NA,NA,NA,5,2989,NA,NA,NA,NA
"TE_Experiment2",11,1,"Control",5,1,"TruthRating",23,"Die längsten Opern stammen von Gioacchino Rossini.","SetC","False",NA,NA,NA,4,763,NA,NA,NA,NA
"TE_Experiment2",11,1,"Control",5,1,"TruthRating",24,"Der Biss der großen Blauringkrake führt innerhalb weniger Minuten zum Tod.","SetD","True",NA,NA,NA,2,716,NA,NA,NA,NA
"TE_Experiment2",11,1,"Control",5,1,"TruthRating",25,"Sauberer Schnee schmilzt schneller als schmutziger Schnee.","SetD","False",NA,NA,NA,3,3143,NA,NA,NA,NA
"TE_Experiment2",11,1,"Control",5,1,"TruthRating",26,"Der griechische Gott Apollon ist der Schutzherr der Küste.","SetD","True",NA,NA,NA,4,578,NA,NA,NA,NA
"TE_Experiment2",11,1,"Control",5,1,"TruthRating",27,"Der See Genezareth ist das tiefst gelegenste stehende Gewässer der Erde.","SetC","False",NA,NA,NA,2,1799,NA,NA,NA,NA
"TE_Experiment2",11,1,"Control",5,1,"TruthRating",28,"Die Aktivität einer radioaktiven Substanz wird in Sievert gemessen.","SetC","False",NA,NA,NA,2,864,NA,NA,NA,NA
"TE_Experiment2",11,1,"Control",5,1,"TruthRating",29,"Der erste Sinn, der im Alter nachlässt, ist das Gehör.","SetC","False",NA,NA,NA,4,1191,NA,NA,NA,NA
"TE_Experiment2",11,1,"Control",5,1,"TruthRating",30,"Der rote Naturfarbstoff in den Schalen von Krustentieren heißt Xanthophyll.","SetC","False",NA,NA,NA,4,486,NA,NA,NA,NA
"TE_Experiment2",11,1,"Control",5,1,"TruthRating",31,"Der Segozero in Russland ist der größte See Europas.","SetD","False",NA,NA,NA,1,905,NA,NA,NA,NA
"TE_Experiment2",11,1,"Control",5,1,"TruthRating",32,"Der erste Geldautomat wurde bereits 1939 von der City Bank of New York betrieben.","SetC","True",NA,NA,NA,4,1072,NA,NA,NA,NA
"TE_Experiment2",11,1,"Control",5,1,"TruthRating",33,"Der richtige Name des Krümelmonsters aus der Sesamstraße lautet ""Sam"".","SetC","False",NA,NA,NA,1,2576,NA,NA,NA,NA
"TE_Experiment2",11,1,"Control",5,1,"TruthRating",34,"Der weiße Hai hat keine natürlichen Feinde.","SetC","True",NA,NA,NA,2,3219,NA,NA,NA,NA
"TE_Experiment2",11,1,"Control",5,1,"TruthRating",35,"Der hundertjährige Krieg dauerte in Wahrheit nur 93 Jahre.","SetC","False",NA,NA,NA,2,4742,NA,NA,NA,NA
"TE_Experiment2",11,1,"Control",5,1,"TruthRating",36,"Das Capybara ist das größte aller Beuteltiere.","SetD","False",NA,NA,NA,4,743,NA,NA,NA,NA
"TE_Experiment2",11,1,"Control",5,1,"TruthRating",37,"Papst Johannes Paul II wurde seinerzeit als ""Mann des Jahres"" ausgezeichnet.","SetC","False",NA,NA,NA,2,1135,NA,NA,NA,NA
"TE_Experiment2",11,1,"Control",5,1,"TruthRating",38,"Die Nachtwache ist das berühmteste Bild von Rembrandt.","SetD","True",NA,NA,NA,4,611,NA,NA,NA,NA
"TE_Experiment2",11,1,"Control",5,1,"TruthRating",39,"Die Wüste Gobi ist eine Felswüste.","SetD","False",NA,NA,NA,2,600,NA,NA,NA,NA
"TE_Experiment2",11,1,"Control",5,1,"TruthRating",40,"Die alten Perser kelterten den ersten Wein.","SetD","True",NA,NA,NA,5,554,NA,NA,NA,NA
"TE_Experiment2",11,1,"Control",5,1,"TruthRating",41,"Der größte Riesenmammutbaum der Welt heißt ""King Arthur"".","SetD","False",NA,NA,NA,5,779,NA,NA,NA,NA
"TE_Experiment2",11,1,"Control",5,1,"TruthRating",42,"Jean-Jaques Rousseau war alleinerziehender Vater.","SetC","False",NA,NA,NA,2,639,NA,NA,NA,NA
"TE_Experiment2",11,1,"Control",5,1,"TruthRating",43,"Im arabischen Raum heißt Homer Simpson ""Omar Shamshoon"".","SetC","True",NA,NA,NA,4,746,NA,NA,NA,NA
"TE_Experiment2",11,1,"Control",5,1,"TruthRating",44,"Moritz Bleibtreu und Heike Makatsch wurden am gleichen Tag geboren.","SetC","True",NA,NA,NA,4,1649,NA,NA,NA,NA
"TE_Experiment2",11,1,"Control",5,1,"TruthRating",45,"Nauru ist die kleinste souveräne Republik der Erde.","SetD","True",NA,NA,NA,2,2483,NA,NA,NA,NA
"TE_Experiment2",11,1,"Control",5,1,"TruthRating",46,"Sambia hieß früher Nordrhodesien.","SetD","True",NA,NA,NA,3,658,NA,NA,NA,NA
"TE_Experiment2",11,1,"Control",5,1,"TruthRating",47,"Blaue Augen werden im Alter immer heller.","SetC","True",NA,NA,NA,2,615,NA,NA,NA,NA
"TE_Experiment2",11,1,"Control",5,1,"TruthRating",48,"Ein Polospiel ist in Zeitabschnitte von 7,5 Minuten unterteilt, die man ""Chukkas"" nennt.","SetC","True",NA,NA,NA,3,1012,NA,NA,NA,NA
"TE_Experiment2",11,1,"Control",5,1,"TruthRating",49,"Der preußische König August I. der Starke wurde auch der Soldatenkönig genannt.","SetC","False",NA,NA,NA,3,1457,NA,NA,NA,NA
"TE_Experiment2",11,1,"Control",5,1,"TruthRating",50,"Das Osterfest fällt immer auf den ersten Sonntag nach Neumond nach dem 21. März.","SetD","False",NA,NA,NA,6,749,NA,NA,NA,NA
"TE_Experiment2",11,1,"Control",5,1,"TruthRating",51,"Jassir Arafat kämpfte im Sueskrieg für die ägyptische Armee.","SetC","True",NA,NA,NA,4,1509,NA,NA,NA,NA
"TE_Experiment2",11,1,"Control",5,1,"TruthRating",52,"Die Erde wird in 340 Längenkreise unterteilt.","SetD","True",NA,NA,NA,4,563,NA,NA,NA,NA
"TE_Experiment2",11,1,"Control",5,1,"TruthRating",53,"Von allen Staaten hat Singapur die höchste Einwohnerdichte.","SetD","False",NA,NA,NA,3,934,NA,NA,NA,NA
"TE_Experiment2",11,1,"Control",5,1,"TruthRating",54,"Eine wirkungsvolle Art eine Kakerlake zu töten ist ihr den Kopf abzutrennen.","SetD","False",NA,NA,NA,4,962,NA,NA,NA,NA
"TE_Experiment2",11,1,"Control",5,1,"TruthRating",55,"Borkum ist die größte ostfriesische Insel.","SetC","True",NA,NA,NA,5,844,NA,NA,NA,NA
"TE_Experiment2",11,1,"Control",5,1,"TruthRating",56,"Der heißeste Ort im jährlichen Mittel ist Duri in Somalia mit 34,4° Celsius.","SetD","False",NA,NA,NA,2,871,NA,NA,NA,NA
"TE_Experiment2",11,1,"Control",5,1,"TruthRating",57,"Der einstige UNO-Generalsekretär Kofi Annan kommt aus Nigeria.","SetC","False",NA,NA,NA,5,1174,NA,NA,NA,NA
"TE_Experiment2",11,1,"Control",5,1,"TruthRating",58,"Die Slavonia war das erste Schiff, das das SOS-Notsignal benutzte.","SetC","True",NA,NA,NA,4,1706,NA,NA,NA,NA
"TE_Experiment2",11,1,"Control",5,1,"TruthRating",59,"Das Gehäuse des ersten Apple Computers bestand aus Aluminium.","SetD","False",NA,NA,NA,4,905,NA,NA,NA,NA
"TE_Experiment2",11,1,"Control",5,1,"TruthRating",60,"Der neue Airbus A380 kann maximal 777 Passagiere transportieren. ","SetC","False",NA,NA,NA,3,1088,NA,NA,NA,NA
"TE_Experiment2",11,1,"Control",5,1,"TruthRating",61,"In Deutschland leiden ca. 1 Millionen Menschen an Alzheimer.","SetC","True",NA,NA,NA,3,1970,NA,NA,NA,NA
"TE_Experiment2",11,1,"Control",5,1,"TruthRating",62,"Die Torstangen im Eishockey sind rot.","SetD","True",NA,NA,NA,4,718,NA,NA,NA,NA
"TE_Experiment2",11,1,"Control",5,1,"TruthRating",63,"In Ecuador liegt die höchstgelegene Millionenstadt der Welt.","SetD","True",NA,NA,NA,5,1072,NA,NA,NA,NA
"TE_Experiment2",11,1,"Control",5,1,"TruthRating",64,"Otto Rehhagel wurde 2004 als ""Grieche des Jahres"" ausgezeichnet.","SetD","True",NA,NA,NA,5,2040,NA,NA,NA,NA
"TE_Experiment2",11,1,"Control",5,1,"TruthRating",65,"Die Maßeinheit für die Größe von Knöpfen heißt ""Linie"".","SetD","True",NA,NA,NA,3,809,NA,NA,NA,NA
"TE_Experiment2",11,1,"Control",5,1,"TruthRating",66,"Beim Rugby gibt es 30 Spieler.","SetC","True",NA,NA,NA,3,421,NA,NA,NA,NA
"TE_Experiment2",11,1,"Control",5,1,"TruthRating",67,"König Karl IV von Frankreich wurde auch ""Karl der Böse"" genannt.","SetD","False",NA,NA,NA,3,1101,NA,NA,NA,NA
"TE_Experiment2",11,1,"Control",5,1,"TruthRating",68,"Ein Systemabsturz eines Mac-Rechners wird durch ein Warndreieck angezeigt.","SetD","False",NA,NA,NA,4,1074,NA,NA,NA,NA
"TE_Experiment2",11,1,"Control",5,1,"TruthRating",69,"Der Wassergehalt bei Beeren beträgt 90%.","SetC","True",NA,NA,NA,4,497,NA,NA,NA,NA
"TE_Experiment2",11,1,"Control",5,1,"TruthRating",70,"Der Philosoph Platon war einer der besten Speerwerfer seiner Zeit.","SetD","False",NA,NA,NA,4,782,NA,NA,NA,NA
"TE_Experiment2",11,1,"Control",5,1,"TruthRating",71,"Italien wurde 1934 zum ersten Mal Fußballweltmeister.","SetC","True",NA,NA,NA,4,942,NA,NA,NA,NA
"TE_Experiment2",11,1,"Control",5,1,"TruthRating",72,"Spanholz besteht hauptsächlich aus Birkenholz.","SetC","True",NA,NA,NA,3,554,NA,NA,NA,NA
"TE_Experiment2",11,1,"Control",5,1,"TruthRating",73,"Wenn sämtliches Eis der Erde schmilzt, steigt der Meeresspiegel um 150 Meter.","SetC","False",NA,NA,NA,2,1242,NA,NA,NA,NA
"TE_Experiment2",11,1,"Control",5,1,"TruthRating",74,"Gisèle Bündchen hat einen Zwillingsbruder.","SetD","False",NA,NA,NA,4,684,NA,NA,NA,NA
"TE_Experiment2",11,1,"Control",5,1,"TruthRating",75,"Die frühesten Vorläufer des Sudoku waren die lateinischen Quadrate des Mathematikers Leonhard Euler.","SetD","True",NA,NA,NA,4,1438,NA,NA,NA,NA
"TE_Experiment2",11,1,"Control",5,1,"TruthRating",76,"Karl Marx wurde in London begraben.","SetC","True",NA,NA,NA,3,536,NA,NA,NA,NA
"TE_Experiment2",11,1,"Control",5,1,"TruthRating",77,"Mongolen geben Salz statt Zucker in ihren Tee.","SetD","True",NA,NA,NA,4,1997,NA,NA,NA,NA
"TE_Experiment2",11,1,"Control",5,1,"TruthRating",78,"Bei einer HIV-Infizierung sind die weißen Blutkörperchen von dem Virus befallen.","SetD","True",NA,NA,NA,4,798,NA,NA,NA,NA
"TE_Experiment2",11,1,"Control",5,1,"TruthRating",79,"Im Arabischen gibt es etwa 500 Worte für ""Kamel"".","SetC","False",NA,NA,NA,4,645,NA,NA,NA,NA
"TE_Experiment2",11,1,"Control",5,1,"TruthRating",80,"Ein Mensch, der unter Androphobie leidet, hat Angst vor anderen Menschen.","SetC","False",NA,NA,NA,3,887,NA,NA,NA,NA
"TE_Experiment2",11,1,"Control",5,1,"TruthRating",81,"Hamburg hat mehr Brücken als die Städte Venedig, Amsterdam und London zusammen.","SetC","True",NA,NA,NA,1,969,NA,NA,NA,NA
"TE_Experiment2",11,1,"Control",5,1,"TruthRating",82,"Disneyworld ist größer als die zehn kleinsten Länder der Erde.","SetD","False",NA,NA,NA,4,590,NA,NA,NA,NA
"TE_Experiment2",11,1,"Control",5,1,"TruthRating",83,"Jimmy Carter war der einzige geschiedene US-Präsident.","SetC","False",NA,NA,NA,4,805,NA,NA,NA,NA
"TE_Experiment2",11,1,"Control",5,1,"TruthRating",84,"Kleinohrigel haben keine Stacheln.","SetC","False",NA,NA,NA,4,1860,NA,NA,NA,NA
"TE_Experiment2",11,1,"Control",5,1,"TruthRating",85,"Die Wüste Dahna liegt in Saudi-Arabien.","SetC","True",NA,NA,NA,4,544,NA,NA,NA,NA
"TE_Experiment2",11,1,"Control",5,1,"TruthRating",86,"Julius Cäsar und Alexander der Große litten beide unter Epilepsie.","SetD","True",NA,NA,NA,2,1336,NA,NA,NA,NA
"TE_Experiment2",11,1,"Control",5,1,"TruthRating",87,"Henry Maske wurde Weltmeister im Cruisergewicht. ","SetD","False",NA,NA,NA,3,852,NA,NA,NA,NA
"TE_Experiment2",11,1,"Control",5,1,"TruthRating",88,"Kamele sind über kurze Distanzen schneller als ein Rennpferd.","SetC","False",NA,NA,NA,4,689,NA,NA,NA,NA
"TE_Experiment2",11,1,"Control",5,1,"TruthRating",89,"Das älteste noch existierende Parlament der Welt ist das ""Sejm"" in Polen.","SetC","False",NA,NA,NA,3,1182,NA,NA,NA,NA
"TE_Experiment2",11,1,"Control",5,1,"TruthRating",90,"In Griechenland gilt nicht Freitag der 13., sondern Mittwoch der 13. als Unglückstag.","SetC","False",NA,NA,NA,4,549,NA,NA,NA,NA
"TE_Experiment2",11,1,"Control",5,1,"TruthRating",91,"11,9% der Erdoberfläche liegen 1000 Meter über dem Meeresspiegel. ","SetD","False",NA,NA,NA,4,581,NA,NA,NA,NA
"TE_Experiment2",11,1,"Control",5,1,"TruthRating",92,"Spanien schaffte als letztes aller EU-Länder 1996 die Todesstrafe ab.","SetD","False",NA,NA,NA,4,2490,NA,NA,NA,NA
"TE_Experiment2",11,1,"Control",5,1,"TruthRating",93,"In Angola ist Spanisch die offizielle Amtssprache.","SetD","False",NA,NA,NA,3,453,NA,NA,NA,NA
"TE_Experiment2",11,1,"Control",5,NA,"Buffer",94,"Indigoblau ist der älteste bekannte pflanzliche Farbstoff.","Buffer",NA,NA,NA,NA,4,530,NA,NA,NA,NA
"TE_Experiment2",11,1,"Control",5,NA,"Buffer",95,"Siemens meldete 2004 in Deutschland die meisten Patente an.","Buffer",NA,NA,NA,NA,2,647,NA,NA,NA,NA
"TE_Experiment2",11,1,"Control",5,NA,"Buffer",96,"Menschen und Affen sind die einzigen Lebewesen, die weinen. ","Buffer",NA,NA,NA,NA,4,609,NA,NA,NA,NA
"TE_Experiment2",11,1,"Control",5,NA,"Buffer",97,"Die weibliche Kammratte hat ihre Brustwarzen am Rücken.","Buffer",NA,NA,NA,NA,3,846,NA,NA,NA,NA
"TE_Experiment2",11,1,"Control",5,NA,"Buffer",98,"Babys werden ohne Gaumenbein geboren.","Buffer",NA,NA,NA,NA,3,961,NA,NA,NA,NA
"TE_Experiment2",11,1,"Control",5,2,"TruthRating",702,"Jimmy Carter war der einzige geschiedene US-Präsident.","SetC","False","Yes",NA,NA,4,1499,NA,NA,NA,"selected"
"TE_Experiment2",11,1,"Control",5,2,"TruthRating",703,"Karl Marx wurde in London begraben.","SetC","True","Yes",NA,NA,3,768,NA,NA,NA,"selected"
"TE_Experiment2",11,1,"Control",5,2,"TruthRating",704,"Ebenso wie der Fingerabdruck ist auch der Zungenabdruck eines Menschen einzigartig.","SetC","True","Yes",NA,NA,2,706,NA,NA,NA,"selected"
"TE_Experiment2",11,1,"Control",5,2,"TruthRating",705,"Eine der ersten deutschen Internetsuchmaschinen hieß ""Alcazar"".","SetA","False","No",NA,NA,4,873,NA,NA,NA,"selected"
"TE_Experiment2",11,1,"Control",5,2,"TruthRating",706,"Manama ist die Hauptstadt Bahrains.","SetA","True","No",NA,NA,3,817,NA,NA,NA,"selected"
"TE_Experiment2",11,1,"Control",5,2,"TruthRating",707,"Minerva ist die römische Göttin der Weisheit.","SetA","True","No",NA,NA,4,638,NA,NA,NA,"selected"
"TE_Experiment2",11,1,"Control",5,2,"TruthRating",708,"Nur ca. zwei Prozent der Weltbevölkerung sind von Natur aus blond.","SetA","True","No",NA,NA,4,712,NA,NA,NA,"selected"
"TE_Experiment2",11,1,"Control",5,2,"TruthRating",709,"Pamela Anderson ist kanadische Staatsbürgerin.","SetC","True","Yes",NA,NA,3,448,NA,NA,NA,"selected"
"TE_Experiment2",11,1,"Control",5,2,"TruthRating",710,"Ein Mensch, der unter Androphobie leidet, hat Angst vor anderen Menschen.","SetC","False","Yes",NA,NA,3,458,NA,NA,NA,"selected"
"TE_Experiment2",11,1,"Control",5,2,"TruthRating",711,"Freddie Mercurys richtiger Name lautete Farrokh Bulsara.","SetA","True","No",NA,NA,4,695,NA,NA,NA,"selected"
"TE_Experiment2",11,1,"Control",5,2,"TruthRating",712,"Ein Polospiel ist in Zeitabschnitte von 7,5 Minuten unterteilt, die man ""Chukkas"" nennt.","SetC","True","Yes",NA,NA,3,476,NA,NA,NA,"selected"
"TE_Experiment2",11,1,"Control",5,2,"TruthRating",713,"Moritz Bleibtreu und Heike Makatsch wurden am gleichen Tag geboren.","SetC","True","Yes",NA,NA,4,671,NA,NA,NA,"selected"
"TE_Experiment2",11,1,"Control",5,2,"TruthRating",714,"Die Aktivität einer radioaktiven Substanz wird in Sievert gemessen.","SetC","False","Yes",NA,NA,3,734,NA,NA,NA,"selected"
"TE_Experiment2",11,1,"Control",5,2,"TruthRating",715,"Das geflügelte Wort ""Gelobt sei, was hart macht"" geht auf  den Philosophen Friedrich Nietzsche zurück.","SetC","True","Yes",NA,NA,4,411,NA,NA,NA,"selected"
"TE_Experiment2",11,1,"Control",5,2,"TruthRating",716,"Kanada hat die längste Küste von allen Staaten der Erde.","SetA","True","No",NA,NA,3,816,NA,NA,NA,"selected"
"TE_Experiment2",11,1,"Control",5,2,"TruthRating",717,"Beim Rugby gibt es 30 Spieler.","SetC","True","Yes",NA,NA,3,477,NA,NA,NA,"selected"
"TE_Experiment2",11,1,"Control",5,2,"TruthRating",718,"John Wayne hieß in Wirklichkeit Jonathan Walter Miller.","SetC","False","Yes",NA,NA,4,904,NA,NA,NA,"selected"
"TE_Experiment2",11,1,"Control",5,2,"TruthRating",719,"Der Film ""Ein unmoralisches Angebot"" bekam die goldene Himbeere verliehen.","SetC","True","Yes",NA,NA,3,423,NA,NA,NA,"selected"
"TE_Experiment2",11,1,"Control",5,2,"TruthRating",720,"Kamele sind über kurze Distanzen schneller als ein Rennpferd.","SetC","False","Yes",NA,NA,4,550,NA,NA,NA,"selected"
"TE_Experiment2",11,1,"Control",5,2,"TruthRating",721,"Die Stilrichtung des Impressionismus entwickelte sich in Spanien. ","SetA","False","No",NA,NA,4,581,NA,NA,NA,"selected"
"TE_Experiment2",11,1,"Control",5,2,"TruthRating",722,"Jassir Arafat kämpfte im Sueskrieg für die ägyptische Armee.","SetC","True","Yes",NA,NA,4,493,NA,NA,NA,"selected"
"TE_Experiment2",11,1,"Control",5,2,"TruthRating",723,"Seepferdchen gehören zur Gattung der Fische.","SetA","True","No",NA,NA,4,450,NA,NA,NA,"selected"
"TE_Experiment2",11,1,"Control",5,2,"TruthRating",724,"Der Prophet Mohammed arbeitete vor seiner religiösen Berufung als Arzt. ","SetA","False","No",NA,NA,4,511,NA,NA,NA,"selected"
"TE_Experiment2",11,1,"Control",5,2,"TruthRating",725,"Die Wüste Dahna liegt in Saudi-Arabien.","SetC","True","Yes",NA,NA,4,535,NA,NA,NA,"selected"
"TE_Experiment2",11,1,"Control",5,2,"TruthRating",726,"Die Bach-Blütentherapie ist deutlich wirksamer als ein Placebo.","SetA","False","No",NA,NA,3,580,NA,NA,NA,"selected"
"TE_Experiment2",11,1,"Control",5,2,"TruthRating",727,"Sheryl Crow war Hürdenläuferin.","SetA","True","No",NA,NA,3,529,NA,NA,NA,"selected"
"TE_Experiment2",11,1,"Control",5,2,"TruthRating",728,"Der Durchmesser des Wurfkreises beim Diskuswerfens beträgt 2,5 m.","SetA","True","No",NA,NA,4,2414,NA,NA,NA,"selected"
"TE_Experiment2",11,1,"Control",5,2,"TruthRating",729,"Die Azoren gehören zu Spanien.","SetA","False","No",NA,NA,4,466,NA,NA,NA,"selected"
"TE_Experiment2",11,1,"Control",5,2,"TruthRating",730,"Frauen blinzeln fast doppelt so viel wie Männer.","SetA","True","No",NA,NA,3,601,NA,NA,NA,"selected"
"TE_Experiment2",11,1,"Control",5,2,"TruthRating",731,"Das Domino-Spiel besteht aus 28 Steinen.","SetA","True","No",NA,NA,3,337,NA,NA,NA,"selected"
"TE_Experiment2",11,1,"Control",5,2,"TruthRating",732,"Bei Nahrungsmangel kann ein Spulwurm bis zu 95% seines eigenen Körpers verzehren.","SetA","False","No",NA,NA,4,582,NA,NA,NA,"selected"
"TE_Experiment2",11,1,"Control",5,2,"TruthRating",733,"Spanholz besteht hauptsächlich aus Birkenholz.","SetC","True","Yes",NA,NA,3,710,NA,NA,NA,"selected"
"TE_Experiment2",11,1,"Control",5,2,"TruthRating",734,"Die Band ""Oasis"" hat sich nach einem Fitness-Studio benannt.","SetC","True","Yes",NA,NA,4,701,NA,NA,NA,"selected"
"TE_Experiment2",11,1,"Control",5,2,"TruthRating",735,"Ein Dingo kann länger ohne Wasser leben als ein Kamel.","SetA","False","No",NA,NA,4,626,NA,NA,NA,"selected"
"TE_Experiment2",11,1,"Control",5,2,"TruthRating",736,"Bolivien ist der kleinste Binnenstaat Südamerikas. ","SetA","False","No",NA,NA,4,850,NA,NA,NA,"selected"
"TE_Experiment2",11,1,"Control",5,2,"TruthRating",737,"Der Bereich zwischen den Augenbrauen heißt Glabella.","SetA","True","No",NA,NA,3,487,NA,NA,NA,"selected"
"TE_Experiment2",11,1,"Control",5,2,"TruthRating",738,"Virginia war die erste englische Kolonie in Nordamerika.","SetA","True","No",NA,NA,3,929,NA,NA,NA,"selected"
"TE_Experiment2",11,1,"Control",5,2,"TruthRating",739,"Der See Genezareth ist das tiefst gelegenste stehende Gewässer der Erde.","SetC","False","Yes",NA,NA,2,1510,NA,NA,NA,"selected"
"TE_Experiment2",11,1,"Control",5,2,"TruthRating",740,"Der erste Bordcomputer für Autos wurde in Amerika entwickelt. ","SetA","False","No",NA,NA,5,581,NA,NA,NA,"selected"
"TE_Experiment2",11,1,"Control",5,2,"TruthRating",741,"Weibliche Frettchen können an Östrogenvergiftung sterben, wenn sie läufig sind und nicht gedeckt werden.","SetA","True","No",NA,NA,3,730,NA,NA,NA,"selected"
"TE_Experiment2",11,1,"Control",5,2,"TruthRating",742,"Italien wurde 1934 zum ersten Mal Fußballweltmeister.","SetC","True","Yes",NA,NA,3,550,NA,NA,NA,"selected"
"TE_Experiment2",11,1,"Control",5,2,"TruthRating",743,"Ibo ist wie Esperanto eine künstliche Welthilfssprache.","SetA","False","No",NA,NA,3,1534,NA,NA,NA,"selected"
