"","subject","session","within_identifier","between_identifier","trial","statement_identifier","rt","response","repeated","certainty"
"1",1,"warning_1",0,0,1,1,99,0.2,0,99
"2",1,"warning_1",1,1,2,2,99,0.6,0,99
"3",1,"warning_1",0,0,3,3,99,0.8,0,99
"4",1,"warning_1",1,1,4,4,99,0.6,0,99
"5",1,"warning_1",0,0,5,5,99,0.6,0,99
"6",1,"warning_1",1,1,6,6,99,0.6,0,99
"7",1,"warning_1",0,0,7,7,99,0.8,0,99
"8",1,"warning_1",1,1,8,8,99,0.8,0,99
"9",1,"warning_1",0,0,9,9,99,0.6,0,99
"10",1,"warning_1",1,1,10,10,99,0.6,0,99
"11",1,"warning_1",0,0,11,11,99,0.6,0,99
"12",1,"warning_1",1,1,12,12,99,0.8,0,99
"13",1,"warning_1",0,0,13,13,99,0.6,0,99
"14",1,"warning_1",1,1,14,14,99,0.6,0,99
"15",1,"warning_1",0,0,15,15,99,0.2,0,99
"16",1,"warning_1",1,1,16,16,99,0.4,0,99
"17",1,"warning_1",0,0,17,17,99,0.8,0,99
"18",1,"warning_1",1,1,18,18,99,0.8,0,99
"19",1,"warning_1",0,0,19,19,99,0.4,0,99
"20",1,"warning_1",1,1,20,20,99,0.6,0,99
"21",1,"warning_1",0,0,21,21,99,0.6,0,99
"22",1,"warning_1",1,1,22,22,99,0.2,0,99
"23",1,"warning_1",0,0,23,23,99,0.6,0,99
"24",1,"warning_1",1,1,24,24,99,0.6,0,99
"25",1,"warning_1",0,0,25,25,99,0.8,0,99
"26",1,"warning_1",1,1,26,26,99,0.8,0,99
"27",1,"warning_1",0,0,27,27,99,0.4,0,99
"28",1,"warning_1",1,1,28,28,99,0.6,0,99
"29",1,"warning_1",0,0,29,29,99,0.4,0,99
"30",1,"warning_1",1,1,30,30,99,0.8,0,99
"31",1,"warning_1",0,0,31,31,99,0.2,0,99
"32",1,"warning_1",1,1,32,32,99,0.6,0,99
"33",1,"warning_1",0,0,33,33,99,0.4,0,99
"34",1,"warning_1",1,1,34,34,99,0.6,0,99
"35",1,"warning_1",0,0,35,35,99,0.6,0,99
"36",1,"warning_1",1,1,36,36,99,0.2,0,99
"37",1,"warning_1",0,0,37,37,99,0.6,1,99
"38",1,"warning_1",1,1,38,38,99,1,1,99
"39",1,"warning_1",0,0,39,39,99,1,1,99
"40",1,"warning_1",1,1,40,40,99,0.8,1,99
"41",1,"warning_1",0,0,41,41,99,1,1,99
"42",1,"warning_1",1,1,42,42,99,0.8,1,99
"43",1,"warning_1",0,0,43,43,99,0.8,1,99
"44",1,"warning_1",1,1,44,44,99,0.6,1,99
"45",1,"warning_1",0,0,45,45,99,0.6,1,99
"46",1,"warning_1",1,1,46,46,99,1,1,99
"47",1,"warning_1",0,0,47,47,99,1,1,99
"48",1,"warning_1",1,1,48,48,99,1,1,99
"49",1,"warning_1",0,0,49,49,99,1,1,99
"50",1,"warning_1",1,1,50,50,99,1,1,99
"51",1,"warning_1",0,0,51,51,99,0.6,1,99
"52",1,"warning_1",1,1,52,52,99,1,1,99
"53",1,"warning_1",0,0,53,53,99,0.8,1,99
"54",1,"warning_1",1,1,54,54,99,1,1,99
"55",1,"warning_1",0,0,55,55,99,0.2,1,99
"56",1,"warning_1",1,1,56,56,99,0.6,1,99
"57",1,"warning_1",0,0,57,57,99,0.6,1,99
"58",1,"warning_1",1,1,58,58,99,0.4,1,99
"59",1,"warning_1",0,0,59,59,99,0.6,1,99
"60",1,"warning_1",1,1,60,60,99,1,1,99
"61",1,"warning_1",0,0,61,61,99,1,1,99
"62",1,"warning_1",1,1,62,62,99,1,1,99
"63",1,"warning_1",0,0,63,63,99,1,1,99
"64",1,"warning_1",1,1,64,64,99,0.4,1,99
"65",1,"warning_1",0,0,65,65,99,0.6,1,99
"66",1,"warning_1",1,1,66,66,99,1,1,99
"67",1,"warning_1",0,0,67,67,99,0.2,1,99
"68",1,"warning_1",1,1,68,68,99,0,1,99
"69",1,"warning_1",0,0,69,69,99,1,1,99
"70",1,"warning_1",1,1,70,70,99,0.6,1,99
"71",1,"warning_1",0,0,71,71,99,1,1,99
"72",1,"warning_1",1,1,72,72,99,1,1,99
"73",2,"warning_1",0,0,1,1,99,0.2,1,99
"74",2,"warning_1",1,1,2,2,99,0.4,1,99
"75",2,"warning_1",0,0,3,3,99,0,1,99
"76",2,"warning_1",1,1,4,4,99,0.4,1,99
"77",2,"warning_1",0,0,5,5,99,0.6,1,99
"78",2,"warning_1",1,1,6,6,99,0.2,1,99
"79",2,"warning_1",0,0,7,7,99,0.8,1,99
"80",2,"warning_1",1,1,8,8,99,0.2,1,99
"81",2,"warning_1",0,0,9,9,99,0.2,1,99
"82",2,"warning_1",1,1,10,10,99,0.6,1,99
"83",2,"warning_1",0,0,11,11,99,0.2,1,99
"84",2,"warning_1",1,1,12,12,99,0.2,1,99
"85",2,"warning_1",0,0,13,13,99,0.2,1,99
"86",2,"warning_1",1,1,14,14,99,0.2,1,99
"87",2,"warning_1",0,0,15,15,99,0.8,1,99
"88",2,"warning_1",1,1,16,16,99,0.6,1,99
"89",2,"warning_1",0,0,17,17,99,0.2,1,99
"90",2,"warning_1",1,1,18,18,99,0.8,1,99
"91",2,"warning_1",0,0,19,19,99,0.2,1,99
"92",2,"warning_1",1,1,20,20,99,0.2,1,99
"93",2,"warning_1",0,0,21,21,99,0.8,1,99
"94",2,"warning_1",1,1,22,22,99,0.2,1,99
"95",2,"warning_1",0,0,23,23,99,0.2,1,99
"96",2,"warning_1",1,1,24,24,99,0.6,1,99
"97",2,"warning_1",0,0,25,25,99,0.2,1,99
"98",2,"warning_1",1,1,26,26,99,0.4,1,99
"99",2,"warning_1",0,0,27,27,99,0.8,1,99
"100",2,"warning_1",1,1,28,28,99,0.6,1,99
"101",2,"warning_1",0,0,29,29,99,0.8,1,99
"102",2,"warning_1",1,1,30,30,99,1,1,99
"103",2,"warning_1",0,0,31,31,99,0.4,1,99
"104",2,"warning_1",1,1,32,32,99,0.2,1,99
"105",2,"warning_1",0,0,33,33,99,0.8,1,99
"106",2,"warning_1",1,1,34,34,99,0.6,1,99
"107",2,"warning_1",0,0,35,35,99,0.8,1,99
"108",2,"warning_1",1,1,36,36,99,0.6,1,99
"109",2,"warning_1",0,0,37,37,99,0.2,0,99
"110",2,"warning_1",1,1,38,38,99,0.4,0,99
"111",2,"warning_1",0,0,39,39,99,0.2,0,99
"112",2,"warning_1",1,1,40,40,99,0.2,0,99
"113",2,"warning_1",0,0,41,41,99,0.2,0,99
"114",2,"warning_1",1,1,42,42,99,0.2,0,99
"115",2,"warning_1",0,0,43,43,99,0.2,0,99
"116",2,"warning_1",1,1,44,44,99,0.6,0,99
"117",2,"warning_1",0,0,45,45,99,0.2,0,99
"118",2,"warning_1",1,1,46,46,99,0.2,0,99
"119",2,"warning_1",0,0,47,47,99,1,0,99
"120",2,"warning_1",1,1,48,48,99,0.2,0,99
"121",2,"warning_1",0,0,49,49,99,0.2,0,99
"122",2,"warning_1",1,1,50,50,99,0.6,0,99
"123",2,"warning_1",0,0,51,51,99,0,0,99
"124",2,"warning_1",1,1,52,52,99,0.6,0,99
"125",2,"warning_1",0,0,53,53,99,0.2,0,99
"126",2,"warning_1",1,1,54,54,99,0,0,99
"127",2,"warning_1",0,0,55,55,99,0.6,0,99
"128",2,"warning_1",1,1,56,56,99,0.2,0,99
"129",2,"warning_1",0,0,57,57,99,0.4,0,99
"130",2,"warning_1",1,1,58,58,99,0.6,0,99
"131",2,"warning_1",0,0,59,59,99,0.4,0,99
"132",2,"warning_1",1,1,60,60,99,0.2,0,99
"133",2,"warning_1",0,0,61,61,99,0.6,0,99
"134",2,"warning_1",1,1,62,62,99,0.2,0,99
"135",2,"warning_1",0,0,63,63,99,0.4,0,99
"136",2,"warning_1",1,1,64,64,99,0.2,0,99
"137",2,"warning_1",0,0,65,65,99,0.4,0,99
"138",2,"warning_1",1,1,66,66,99,0.6,0,99
"139",2,"warning_1",0,0,67,67,99,0.4,0,99
"140",2,"warning_1",1,1,68,68,99,0.2,0,99
"141",2,"warning_1",0,0,69,69,99,0.8,0,99
"142",2,"warning_1",1,1,70,70,99,0.6,0,99
"143",2,"warning_1",0,0,71,71,99,0.2,0,99
"144",2,"warning_1",1,1,72,72,99,0.6,0,99
"145",3,"warning_0",0,0,1,1,99,1,0,99
"146",3,"warning_0",1,1,2,2,99,1,0,99
"147",3,"warning_0",0,0,3,3,99,0.8,0,99
"148",3,"warning_0",1,1,4,4,99,0.2,0,99
"149",3,"warning_0",0,0,5,5,99,0.2,0,99
"150",3,"warning_0",1,1,6,6,99,1,0,99
"151",3,"warning_0",0,0,7,7,99,0,0,99
"152",3,"warning_0",1,1,8,8,99,0.8,0,99
"153",3,"warning_0",0,0,9,9,99,0.8,0,99
"154",3,"warning_0",1,1,10,10,99,0.2,0,99
"155",3,"warning_0",0,0,11,11,99,0.8,0,99
"156",3,"warning_0",1,1,12,12,99,0,0,99
"157",3,"warning_0",0,0,13,13,99,0.2,0,99
"158",3,"warning_0",1,1,14,14,99,1,0,99
"159",3,"warning_0",0,0,15,15,99,1,0,99
"160",3,"warning_0",1,1,16,16,99,1,0,99
"161",3,"warning_0",0,0,17,17,99,0,0,99
"162",3,"warning_0",1,1,18,18,99,0,0,99
"163",3,"warning_0",0,0,19,19,99,0.4,0,99
"164",3,"warning_0",1,1,20,20,99,1,0,99
"165",3,"warning_0",0,0,21,21,99,1,0,99
"166",3,"warning_0",1,1,22,22,99,0,0,99
"167",3,"warning_0",0,0,23,23,99,0.2,0,99
"168",3,"warning_0",1,1,24,24,99,1,0,99
"169",3,"warning_0",0,0,25,25,99,0.8,0,99
"170",3,"warning_0",1,1,26,26,99,1,0,99
"171",3,"warning_0",0,0,27,27,99,0,0,99
"172",3,"warning_0",1,1,28,28,99,1,0,99
"173",3,"warning_0",0,0,29,29,99,0,0,99
"174",3,"warning_0",1,1,30,30,99,1,0,99
"175",3,"warning_0",0,0,31,31,99,0.2,0,99
"176",3,"warning_0",1,1,32,32,99,0.8,0,99
"177",3,"warning_0",0,0,33,33,99,1,0,99
"178",3,"warning_0",1,1,34,34,99,0.8,0,99
"179",3,"warning_0",0,0,35,35,99,0.8,0,99
"180",3,"warning_0",1,1,36,36,99,1,0,99
"181",3,"warning_0",0,0,37,37,99,1,1,99
"182",3,"warning_0",1,1,38,38,99,0.8,1,99
"183",3,"warning_0",0,0,39,39,99,1,1,99
"184",3,"warning_0",1,1,40,40,99,1,1,99
"185",3,"warning_0",0,0,41,41,99,1,1,99
"186",3,"warning_0",1,1,42,42,99,0.2,1,99
"187",3,"warning_0",0,0,43,43,99,1,1,99
"188",3,"warning_0",1,1,44,44,99,1,1,99
"189",3,"warning_0",0,0,45,45,99,1,1,99
"190",3,"warning_0",1,1,46,46,99,1,1,99
"191",3,"warning_0",0,0,47,47,99,1,1,99
"192",3,"warning_0",1,1,48,48,99,1,1,99
"193",3,"warning_0",0,0,49,49,99,1,1,99
"194",3,"warning_0",1,1,50,50,99,1,1,99
"195",3,"warning_0",0,0,51,51,99,0,1,99
"196",3,"warning_0",1,1,52,52,99,1,1,99
"197",3,"warning_0",0,0,53,53,99,0.2,1,99
"198",3,"warning_0",1,1,54,54,99,1,1,99
"199",3,"warning_0",0,0,55,55,99,1,1,99
"200",3,"warning_0",1,1,56,56,99,1,1,99
"201",3,"warning_0",0,0,57,57,99,1,1,99
"202",3,"warning_0",1,1,58,58,99,1,1,99
"203",3,"warning_0",0,0,59,59,99,1,1,99
"204",3,"warning_0",1,1,60,60,99,1,1,99
"205",3,"warning_0",0,0,61,61,99,1,1,99
"206",3,"warning_0",1,1,62,62,99,1,1,99
"207",3,"warning_0",0,0,63,63,99,1,1,99
"208",3,"warning_0",1,1,64,64,99,1,1,99
"209",3,"warning_0",0,0,65,65,99,1,1,99
"210",3,"warning_0",1,1,66,66,99,1,1,99
"211",3,"warning_0",0,0,67,67,99,1,1,99
"212",3,"warning_0",1,1,68,68,99,1,1,99
"213",3,"warning_0",0,0,69,69,99,1,1,99
"214",3,"warning_0",1,1,70,70,99,1,1,99
"215",3,"warning_0",0,0,71,71,99,1,1,99
"216",3,"warning_0",1,1,72,72,99,1,1,99
"217",4,"warning_1",0,0,1,1,99,0.4,1,99
"218",4,"warning_1",1,1,2,2,99,0.6,1,99
"219",4,"warning_1",0,0,3,3,99,0.4,1,99
"220",4,"warning_1",1,1,4,4,99,0.4,1,99
"221",4,"warning_1",0,0,5,5,99,0.4,1,99
"222",4,"warning_1",1,1,6,6,99,0.6,1,99
"223",4,"warning_1",0,0,7,7,99,0.6,1,99
"224",4,"warning_1",1,1,8,8,99,0.2,1,99
"225",4,"warning_1",0,0,9,9,99,0.4,1,99
"226",4,"warning_1",1,1,10,10,99,0.6,1,99
"227",4,"warning_1",0,0,11,11,99,0.6,1,99
"228",4,"warning_1",1,1,12,12,99,1,1,99
"229",4,"warning_1",0,0,13,13,99,0.4,1,99
"230",4,"warning_1",1,1,14,14,99,0.6,1,99
"231",4,"warning_1",0,0,15,15,99,0.6,1,99
"232",4,"warning_1",1,1,16,16,99,0.2,1,99
"233",4,"warning_1",0,0,17,17,99,0.8,1,99
"234",4,"warning_1",1,1,18,18,99,1,1,99
"235",4,"warning_1",0,0,19,19,99,0.4,1,99
"236",4,"warning_1",1,1,20,20,99,0.2,1,99
"237",4,"warning_1",0,0,21,21,99,0.6,1,99
"238",4,"warning_1",1,1,22,22,99,0.4,1,99
"239",4,"warning_1",0,0,23,23,99,0.4,1,99
"240",4,"warning_1",1,1,24,24,99,0.2,1,99
"241",4,"warning_1",0,0,25,25,99,0.6,1,99
"242",4,"warning_1",1,1,26,26,99,0.4,1,99
"243",4,"warning_1",0,0,27,27,99,0.2,1,99
"244",4,"warning_1",1,1,28,28,99,0.2,1,99
"245",4,"warning_1",0,0,29,29,99,0.6,1,99
"246",4,"warning_1",1,1,30,30,99,0.6,1,99
"247",4,"warning_1",0,0,31,31,99,0.6,1,99
"248",4,"warning_1",1,1,32,32,99,0.6,1,99
"249",4,"warning_1",0,0,33,33,99,0.6,1,99
"250",4,"warning_1",1,1,34,34,99,0.4,1,99
"251",4,"warning_1",0,0,35,35,99,0.6,1,99
"252",4,"warning_1",1,1,36,36,99,0.2,1,99
"253",4,"warning_1",0,0,37,37,99,0.6,0,99
"254",4,"warning_1",1,1,38,38,99,0.4,0,99
"255",4,"warning_1",0,0,39,39,99,0.4,0,99
"256",4,"warning_1",1,1,40,40,99,0.6,0,99
"257",4,"warning_1",0,0,41,41,99,0.6,0,99
"258",4,"warning_1",1,1,42,42,99,0.6,0,99
"259",4,"warning_1",0,0,43,43,99,0.4,0,99
"260",4,"warning_1",1,1,44,44,99,0.6,0,99
"261",4,"warning_1",0,0,45,45,99,0.4,0,99
"262",4,"warning_1",1,1,46,46,99,0.4,0,99
"263",4,"warning_1",0,0,47,47,99,1,0,99
"264",4,"warning_1",1,1,48,48,99,0.6,0,99
"265",4,"warning_1",0,0,49,49,99,1,0,99
"266",4,"warning_1",1,1,50,50,99,0.4,0,99
"267",4,"warning_1",0,0,51,51,99,0.6,0,99
"268",4,"warning_1",1,1,52,52,99,1,0,99
"269",4,"warning_1",0,0,53,53,99,0.8,0,99
"270",4,"warning_1",1,1,54,54,99,0.6,0,99
"271",4,"warning_1",0,0,55,55,99,0.2,0,99
"272",4,"warning_1",1,1,56,56,99,0.4,0,99
"273",4,"warning_1",0,0,57,57,99,0.2,0,99
"274",4,"warning_1",1,1,58,58,99,0.4,0,99
"275",4,"warning_1",0,0,59,59,99,0.6,0,99
"276",4,"warning_1",1,1,60,60,99,0.6,0,99
"277",4,"warning_1",0,0,61,61,99,0,0,99
"278",4,"warning_1",1,1,62,62,99,0.2,0,99
"279",4,"warning_1",0,0,63,63,99,0.4,0,99
"280",4,"warning_1",1,1,64,64,99,0.6,0,99
"281",4,"warning_1",0,0,65,65,99,0.6,0,99
"282",4,"warning_1",1,1,66,66,99,0.6,0,99
"283",4,"warning_1",0,0,67,67,99,0.2,0,99
"284",4,"warning_1",1,1,68,68,99,0.6,0,99
"285",4,"warning_1",0,0,69,69,99,0,0,99
"286",4,"warning_1",1,1,70,70,99,0.8,0,99
"287",4,"warning_1",0,0,71,71,99,0.4,0,99
"288",4,"warning_1",1,1,72,72,99,0.8,0,99
"289",5,"warning_1",0,0,1,1,99,0.4,1,99
"290",5,"warning_1",1,1,2,2,99,0,1,99
"291",5,"warning_1",0,0,3,3,99,0.6,1,99
"292",5,"warning_1",1,1,4,4,99,0.4,1,99
"293",5,"warning_1",0,0,5,5,99,0,1,99
"294",5,"warning_1",1,1,6,6,99,0.4,1,99
"295",5,"warning_1",0,0,7,7,99,0.2,1,99
"296",5,"warning_1",1,1,8,8,99,0,1,99
"297",5,"warning_1",0,0,9,9,99,0,1,99
"298",5,"warning_1",1,1,10,10,99,0.2,1,99
"299",5,"warning_1",0,0,11,11,99,0.4,1,99
"300",5,"warning_1",1,1,12,12,99,0.2,1,99
"301",5,"warning_1",0,0,13,13,99,0.4,1,99
"302",5,"warning_1",1,1,14,14,99,0.8,1,99
"303",5,"warning_1",0,0,15,15,99,1,1,99
"304",5,"warning_1",1,1,16,16,99,0.2,1,99
"305",5,"warning_1",0,0,17,17,99,1,1,99
"306",5,"warning_1",1,1,18,18,99,1,1,99
"307",5,"warning_1",0,0,19,19,99,0.8,1,99
"308",5,"warning_1",1,1,20,20,99,0,1,99
"309",5,"warning_1",0,0,21,21,99,0.8,1,99
"310",5,"warning_1",1,1,22,22,99,0.4,1,99
"311",5,"warning_1",0,0,23,23,99,0.4,1,99
"312",5,"warning_1",1,1,24,24,99,0,1,99
"313",5,"warning_1",0,0,25,25,99,0,1,99
"314",5,"warning_1",1,1,26,26,99,0.2,1,99
"315",5,"warning_1",0,0,27,27,99,0,1,99
"316",5,"warning_1",1,1,28,28,99,0,1,99
"317",5,"warning_1",0,0,29,29,99,0,1,99
"318",5,"warning_1",1,1,30,30,99,0.2,1,99
"319",5,"warning_1",0,0,31,31,99,0,1,99
"320",5,"warning_1",1,1,32,32,99,0.2,1,99
"321",5,"warning_1",0,0,33,33,99,0.6,1,99
"322",5,"warning_1",1,1,34,34,99,0.8,1,99
"323",5,"warning_1",0,0,35,35,99,0.4,1,99
"324",5,"warning_1",1,1,36,36,99,0.2,1,99
"325",5,"warning_1",0,0,37,37,99,0.2,0,99
"326",5,"warning_1",1,1,38,38,99,0,0,99
"327",5,"warning_1",0,0,39,39,99,0,0,99
"328",5,"warning_1",1,1,40,40,99,0.2,0,99
"329",5,"warning_1",0,0,41,41,99,0,0,99
"330",5,"warning_1",1,1,42,42,99,0.4,0,99
"331",5,"warning_1",0,0,43,43,99,0,0,99
"332",5,"warning_1",1,1,44,44,99,1,0,99
"333",5,"warning_1",0,0,45,45,99,0.2,0,99
"334",5,"warning_1",1,1,46,46,99,0.4,0,99
"335",5,"warning_1",0,0,47,47,99,0.6,0,99
"336",5,"warning_1",1,1,48,48,99,0,0,99
"337",5,"warning_1",0,0,49,49,99,1,0,99
"338",5,"warning_1",1,1,50,50,99,1,0,99
"339",5,"warning_1",0,0,51,51,99,1,0,99
"340",5,"warning_1",1,1,52,52,99,0,0,99
"341",5,"warning_1",0,0,53,53,99,0,0,99
"342",5,"warning_1",1,1,54,54,99,0.8,0,99
"343",5,"warning_1",0,0,55,55,99,0,0,99
"344",5,"warning_1",1,1,56,56,99,0.2,0,99
"345",5,"warning_1",0,0,57,57,99,0,0,99
"346",5,"warning_1",1,1,58,58,99,0.4,0,99
"347",5,"warning_1",0,0,59,59,99,0.8,0,99
"348",5,"warning_1",1,1,60,60,99,0.2,0,99
"349",5,"warning_1",0,0,61,61,99,1,0,99
"350",5,"warning_1",1,1,62,62,99,0,0,99
"351",5,"warning_1",0,0,63,63,99,0.8,0,99
"352",5,"warning_1",1,1,64,64,99,0,0,99
"353",5,"warning_1",0,0,65,65,99,0.2,0,99
"354",5,"warning_1",1,1,66,66,99,0,0,99
"355",5,"warning_1",0,0,67,67,99,1,0,99
"356",5,"warning_1",1,1,68,68,99,0.4,0,99
"357",5,"warning_1",0,0,69,69,99,1,0,99
"358",5,"warning_1",1,1,70,70,99,0.6,0,99
"359",5,"warning_1",0,0,71,71,99,0,0,99
"360",5,"warning_1",1,1,72,72,99,1,0,99
"361",6,"warning_1",0,0,1,1,99,0.8,1,99
"362",6,"warning_1",1,1,2,2,99,0.4,1,99
"363",6,"warning_1",0,0,3,3,99,0.2,1,99
"364",6,"warning_1",1,1,4,4,99,0.8,1,99
"365",6,"warning_1",0,0,5,5,99,0.2,1,99
"366",6,"warning_1",1,1,6,6,99,0.8,1,99
"367",6,"warning_1",0,0,7,7,99,0.8,1,99
"368",6,"warning_1",1,1,8,8,99,0.2,1,99
"369",6,"warning_1",0,0,9,9,99,0.8,1,99
"370",6,"warning_1",1,1,10,10,99,0.6,1,99
"371",6,"warning_1",0,0,11,11,99,0.6,1,99
"372",6,"warning_1",1,1,12,12,99,0.2,1,99
"373",6,"warning_1",0,0,13,13,99,0.8,1,99
"374",6,"warning_1",1,1,14,14,99,0.8,1,99
"375",6,"warning_1",0,0,15,15,99,0.4,1,99
"376",6,"warning_1",1,1,16,16,99,0.6,1,99
"377",6,"warning_1",0,0,17,17,99,0.6,1,99
"378",6,"warning_1",1,1,18,18,99,1,1,99
"379",6,"warning_1",0,0,19,19,99,0.8,1,99
"380",6,"warning_1",1,1,20,20,99,0.2,1,99
"381",6,"warning_1",0,0,21,21,99,0.6,1,99
"382",6,"warning_1",1,1,22,22,99,0.8,1,99
"383",6,"warning_1",0,0,23,23,99,0.8,1,99
"384",6,"warning_1",1,1,24,24,99,0.8,1,99
"385",6,"warning_1",0,0,25,25,99,0.4,1,99
"386",6,"warning_1",1,1,26,26,99,0.8,1,99
"387",6,"warning_1",0,0,27,27,99,0.4,1,99
"388",6,"warning_1",1,1,28,28,99,1,1,99
"389",6,"warning_1",0,0,29,29,99,0.8,1,99
"390",6,"warning_1",1,1,30,30,99,0.8,1,99
"391",6,"warning_1",0,0,31,31,99,0.4,1,99
"392",6,"warning_1",1,1,32,32,99,0.8,1,99
"393",6,"warning_1",0,0,33,33,99,0.8,1,99
"394",6,"warning_1",1,1,34,34,99,0.8,1,99
"395",6,"warning_1",0,0,35,35,99,0.8,1,99
"396",6,"warning_1",1,1,36,36,99,0.4,1,99
"397",6,"warning_1",0,0,37,37,99,0.6,0,99
"398",6,"warning_1",1,1,38,38,99,0.8,0,99
"399",6,"warning_1",0,0,39,39,99,0.4,0,99
"400",6,"warning_1",1,1,40,40,99,0.6,0,99
"401",6,"warning_1",0,0,41,41,99,0.4,0,99
"402",6,"warning_1",1,1,42,42,99,0.4,0,99
"403",6,"warning_1",0,0,43,43,99,0.8,0,99
"404",6,"warning_1",1,1,44,44,99,0.4,0,99
"405",6,"warning_1",0,0,45,45,99,0.6,0,99
"406",6,"warning_1",1,1,46,46,99,0.4,0,99
"407",6,"warning_1",0,0,47,47,99,0.6,0,99
"408",6,"warning_1",1,1,48,48,99,0.8,0,99
"409",6,"warning_1",0,0,49,49,99,0.6,0,99
"410",6,"warning_1",1,1,50,50,99,0.6,0,99
"411",6,"warning_1",0,0,51,51,99,0.4,0,99
"412",6,"warning_1",1,1,52,52,99,0.6,0,99
"413",6,"warning_1",0,0,53,53,99,0.8,0,99
"414",6,"warning_1",1,1,54,54,99,0.8,0,99
"415",6,"warning_1",0,0,55,55,99,0.6,0,99
"416",6,"warning_1",1,1,56,56,99,0.6,0,99
"417",6,"warning_1",0,0,57,57,99,0.8,0,99
"418",6,"warning_1",1,1,58,58,99,0.6,0,99
"419",6,"warning_1",0,0,59,59,99,0.6,0,99
"420",6,"warning_1",1,1,60,60,99,0.4,0,99
"421",6,"warning_1",0,0,61,61,99,0.8,0,99
"422",6,"warning_1",1,1,62,62,99,0,0,99
"423",6,"warning_1",0,0,63,63,99,0.6,0,99
"424",6,"warning_1",1,1,64,64,99,0.4,0,99
"425",6,"warning_1",0,0,65,65,99,0.6,0,99
"426",6,"warning_1",1,1,66,66,99,0.2,0,99
"427",6,"warning_1",0,0,67,67,99,0.6,0,99
"428",6,"warning_1",1,1,68,68,99,0.6,0,99
"429",6,"warning_1",0,0,69,69,99,0.4,0,99
"430",6,"warning_1",1,1,70,70,99,0.6,0,99
"431",6,"warning_1",0,0,71,71,99,0.4,0,99
"432",6,"warning_1",1,1,72,72,99,0.8,0,99
"433",7,"warning_0",0,0,1,1,99,1,1,99
"434",7,"warning_0",1,1,2,2,99,1,1,99
"435",7,"warning_0",0,0,3,3,99,0.6,1,99
"436",7,"warning_0",1,1,4,4,99,0.8,1,99
"437",7,"warning_0",0,0,5,5,99,0.4,1,99
"438",7,"warning_0",1,1,6,6,99,0.8,1,99
"439",7,"warning_0",0,0,7,7,99,0.4,1,99
"440",7,"warning_0",1,1,8,8,99,0.4,1,99
"441",7,"warning_0",0,0,9,9,99,0.2,1,99
"442",7,"warning_0",1,1,10,10,99,0.4,1,99
"443",7,"warning_0",0,0,11,11,99,0.4,1,99
"444",7,"warning_0",1,1,12,12,99,1,1,99
"445",7,"warning_0",0,0,13,13,99,0.6,1,99
"446",7,"warning_0",1,1,14,14,99,1,1,99
"447",7,"warning_0",0,0,15,15,99,1,1,99
"448",7,"warning_0",1,1,16,16,99,1,1,99
"449",7,"warning_0",0,0,17,17,99,1,1,99
"450",7,"warning_0",1,1,18,18,99,1,1,99
"451",7,"warning_0",0,0,19,19,99,0.8,1,99
"452",7,"warning_0",1,1,20,20,99,1,1,99
"453",7,"warning_0",0,0,21,21,99,0.6,1,99
"454",7,"warning_0",1,1,22,22,99,0.4,1,99
"455",7,"warning_0",0,0,23,23,99,0.4,1,99
"456",7,"warning_0",1,1,24,24,99,1,1,99
"457",7,"warning_0",0,0,25,25,99,1,1,99
"458",7,"warning_0",1,1,26,26,99,0.8,1,99
"459",7,"warning_0",0,0,27,27,99,1,1,99
"460",7,"warning_0",1,1,28,28,99,0.4,1,99
"461",7,"warning_0",0,0,29,29,99,1,1,99
"462",7,"warning_0",1,1,30,30,99,1,1,99
"463",7,"warning_0",0,0,31,31,99,1,1,99
"464",7,"warning_0",1,1,32,32,99,0.6,1,99
"465",7,"warning_0",0,0,33,33,99,0.8,1,99
"466",7,"warning_0",1,1,34,34,99,1,1,99
"467",7,"warning_0",0,0,35,35,99,0.8,1,99
"468",7,"warning_0",1,1,36,36,99,0.8,1,99
"469",7,"warning_0",0,0,37,37,99,0.4,0,99
"470",7,"warning_0",1,1,38,38,99,0.4,0,99
"471",7,"warning_0",0,0,39,39,99,0.4,0,99
"472",7,"warning_0",1,1,40,40,99,0.4,0,99
"473",7,"warning_0",0,0,41,41,99,0.2,0,99
"474",7,"warning_0",1,1,42,42,99,0.2,0,99
"475",7,"warning_0",0,0,43,43,99,0.8,0,99
"476",7,"warning_0",1,1,44,44,99,0.4,0,99
"477",7,"warning_0",0,0,45,45,99,0.4,0,99
"478",7,"warning_0",1,1,46,46,99,0.4,0,99
"479",7,"warning_0",0,0,47,47,99,1,0,99
"480",7,"warning_0",1,1,48,48,99,0.6,0,99
"481",7,"warning_0",0,0,49,49,99,0.8,0,99
"482",7,"warning_0",1,1,50,50,99,0.6,0,99
"483",7,"warning_0",0,0,51,51,99,0.6,0,99
"484",7,"warning_0",1,1,52,52,99,0.8,0,99
"485",7,"warning_0",0,0,53,53,99,0.6,0,99
"486",7,"warning_0",1,1,54,54,99,0.4,0,99
"487",7,"warning_0",0,0,55,55,99,0.2,0,99
"488",7,"warning_0",1,1,56,56,99,0.4,0,99
"489",7,"warning_0",0,0,57,57,99,0.4,0,99
"490",7,"warning_0",1,1,58,58,99,0.2,0,99
"491",7,"warning_0",0,0,59,59,99,0.4,0,99
"492",7,"warning_0",1,1,60,60,99,0.4,0,99
"493",7,"warning_0",0,0,61,61,99,0.4,0,99
"494",7,"warning_0",1,1,62,62,99,0.8,0,99
"495",7,"warning_0",0,0,63,63,99,0.4,0,99
"496",7,"warning_0",1,1,64,64,99,0.4,0,99
"497",7,"warning_0",0,0,65,65,99,0.4,0,99
"498",7,"warning_0",1,1,66,66,99,0.4,0,99
"499",7,"warning_0",0,0,67,67,99,0.4,0,99
"500",7,"warning_0",1,1,68,68,99,0.4,0,99
"501",7,"warning_0",0,0,69,69,99,0.8,0,99
"502",7,"warning_0",1,1,70,70,99,0.8,0,99
"503",7,"warning_0",0,0,71,71,99,0.2,0,99
"504",7,"warning_0",1,1,72,72,99,0.4,0,99
"505",8,"warning_1",0,0,1,1,99,0.2,0,99
"506",8,"warning_1",1,1,2,2,99,0.4,0,99
"507",8,"warning_1",0,0,3,3,99,0.2,0,99
"508",8,"warning_1",1,1,4,4,99,0.6,0,99
"509",8,"warning_1",0,0,5,5,99,0.4,0,99
"510",8,"warning_1",1,1,6,6,99,0.6,0,99
"511",8,"warning_1",0,0,7,7,99,0.4,0,99
"512",8,"warning_1",1,1,8,8,99,0.4,0,99
"513",8,"warning_1",0,0,9,9,99,0.4,0,99
"514",8,"warning_1",1,1,10,10,99,0.8,0,99
"515",8,"warning_1",0,0,11,11,99,0.4,0,99
"516",8,"warning_1",1,1,12,12,99,0.8,0,99
"517",8,"warning_1",0,0,13,13,99,0.4,0,99
"518",8,"warning_1",1,1,14,14,99,0.8,0,99
"519",8,"warning_1",0,0,15,15,99,0.8,0,99
"520",8,"warning_1",1,1,16,16,99,0.6,0,99
"521",8,"warning_1",0,0,17,17,99,0.2,0,99
"522",8,"warning_1",1,1,18,18,99,0.8,0,99
"523",8,"warning_1",0,0,19,19,99,0.4,0,99
"524",8,"warning_1",1,1,20,20,99,0.4,0,99
"525",8,"warning_1",0,0,21,21,99,0.6,0,99
"526",8,"warning_1",1,1,22,22,99,0.6,0,99
"527",8,"warning_1",0,0,23,23,99,0.6,0,99
"528",8,"warning_1",1,1,24,24,99,0.4,0,99
"529",8,"warning_1",0,0,25,25,99,1,0,99
"530",8,"warning_1",1,1,26,26,99,0.4,0,99
"531",8,"warning_1",0,0,27,27,99,0,0,99
"532",8,"warning_1",1,1,28,28,99,0.4,0,99
"533",8,"warning_1",0,0,29,29,99,0.2,0,99
"534",8,"warning_1",1,1,30,30,99,0.6,0,99
"535",8,"warning_1",0,0,31,31,99,0.2,0,99
"536",8,"warning_1",1,1,32,32,99,0.8,0,99
"537",8,"warning_1",0,0,33,33,99,0.6,0,99
"538",8,"warning_1",1,1,34,34,99,0.4,0,99
"539",8,"warning_1",0,0,35,35,99,0.4,0,99
"540",8,"warning_1",1,1,36,36,99,0,0,99
"541",8,"warning_1",0,0,37,37,99,0.6,1,99
"542",8,"warning_1",1,1,38,38,99,0.2,1,99
"543",8,"warning_1",0,0,39,39,99,0.2,1,99
"544",8,"warning_1",1,1,40,40,99,0.6,1,99
"545",8,"warning_1",0,0,41,41,99,0.2,1,99
"546",8,"warning_1",1,1,42,42,99,0.6,1,99
"547",8,"warning_1",0,0,43,43,99,1,1,99
"548",8,"warning_1",1,1,44,44,99,0.4,1,99
"549",8,"warning_1",0,0,45,45,99,0.8,1,99
"550",8,"warning_1",1,1,46,46,99,1,1,99
"551",8,"warning_1",0,0,47,47,99,0.2,1,99
"552",8,"warning_1",1,1,48,48,99,0.2,1,99
"553",8,"warning_1",0,0,49,49,99,0.2,1,99
"554",8,"warning_1",1,1,50,50,99,0.8,1,99
"555",8,"warning_1",0,0,51,51,99,0.6,1,99
"556",8,"warning_1",1,1,52,52,99,1,1,99
"557",8,"warning_1",0,0,53,53,99,0.2,1,99
"558",8,"warning_1",1,1,54,54,99,0.8,1,99
"559",8,"warning_1",0,0,55,55,99,0.2,1,99
"560",8,"warning_1",1,1,56,56,99,0.2,1,99
"561",8,"warning_1",0,0,57,57,99,0.8,1,99
"562",8,"warning_1",1,1,58,58,99,0.6,1,99
"563",8,"warning_1",0,0,59,59,99,0.4,1,99
"564",8,"warning_1",1,1,60,60,99,0,1,99
"565",8,"warning_1",0,0,61,61,99,0,1,99
"566",8,"warning_1",1,1,62,62,99,0.4,1,99
"567",8,"warning_1",0,0,63,63,99,0.4,1,99
"568",8,"warning_1",1,1,64,64,99,0.4,1,99
"569",8,"warning_1",0,0,65,65,99,0.4,1,99
"570",8,"warning_1",1,1,66,66,99,0.4,1,99
"571",8,"warning_1",0,0,67,67,99,0.4,1,99
"572",8,"warning_1",1,1,68,68,99,0,1,99
"573",8,"warning_1",0,0,69,69,99,0.8,1,99
"574",8,"warning_1",1,1,70,70,99,0.2,1,99
"575",8,"warning_1",0,0,71,71,99,0.2,1,99
"576",8,"warning_1",1,1,72,72,99,0.6,1,99
"577",9,"warning_1",0,0,1,1,99,0.2,0,99
"578",9,"warning_1",1,1,2,2,99,0.4,0,99
"579",9,"warning_1",0,0,3,3,99,0,0,99
"580",9,"warning_1",1,1,4,4,99,0.6,0,99
"581",9,"warning_1",0,0,5,5,99,0.2,0,99
"582",9,"warning_1",1,1,6,6,99,0.6,0,99
"583",9,"warning_1",0,0,7,7,99,0.4,0,99
"584",9,"warning_1",1,1,8,8,99,0.6,0,99
"585",9,"warning_1",0,0,9,9,99,0.2,0,99
"586",9,"warning_1",1,1,10,10,99,0.8,0,99
"587",9,"warning_1",0,0,11,11,99,0.6,0,99
"588",9,"warning_1",1,1,12,12,99,0.8,0,99
"589",9,"warning_1",0,0,13,13,99,0.4,0,99
"590",9,"warning_1",1,1,14,14,99,0.8,0,99
"591",9,"warning_1",0,0,15,15,99,0.8,0,99
"592",9,"warning_1",1,1,16,16,99,0.4,0,99
"593",9,"warning_1",0,0,17,17,99,0.4,0,99
"594",9,"warning_1",1,1,18,18,99,0.8,0,99
"595",9,"warning_1",0,0,19,19,99,0.2,0,99
"596",9,"warning_1",1,1,20,20,99,0.4,0,99
"597",9,"warning_1",0,0,21,21,99,0.4,0,99
"598",9,"warning_1",1,1,22,22,99,0.6,0,99
"599",9,"warning_1",0,0,23,23,99,0.6,0,99
"600",9,"warning_1",1,1,24,24,99,0.8,0,99
"601",9,"warning_1",0,0,25,25,99,0.2,0,99
"602",9,"warning_1",1,1,26,26,99,0.6,0,99
"603",9,"warning_1",0,0,27,27,99,0.8,0,99
"604",9,"warning_1",1,1,28,28,99,0.2,0,99
"605",9,"warning_1",0,0,29,29,99,0.6,0,99
"606",9,"warning_1",1,1,30,30,99,0.8,0,99
"607",9,"warning_1",0,0,31,31,99,0.4,0,99
"608",9,"warning_1",1,1,32,32,99,0.8,0,99
"609",9,"warning_1",0,0,33,33,99,0.2,0,99
"610",9,"warning_1",1,1,34,34,99,0.4,0,99
"611",9,"warning_1",0,0,35,35,99,0.8,0,99
"612",9,"warning_1",1,1,36,36,99,0,0,99
"613",9,"warning_1",0,0,37,37,99,0.6,1,99
"614",9,"warning_1",1,1,38,38,99,0.8,1,99
"615",9,"warning_1",0,0,39,39,99,0.2,1,99
"616",9,"warning_1",1,1,40,40,99,0.6,1,99
"617",9,"warning_1",0,0,41,41,99,0.8,1,99
"618",9,"warning_1",1,1,42,42,99,0.4,1,99
"619",9,"warning_1",0,0,43,43,99,0.4,1,99
"620",9,"warning_1",1,1,44,44,99,0.2,1,99
"621",9,"warning_1",0,0,45,45,99,0.8,1,99
"622",9,"warning_1",1,1,46,46,99,0.8,1,99
"623",9,"warning_1",0,0,47,47,99,0.8,1,99
"624",9,"warning_1",1,1,48,48,99,0.2,1,99
"625",9,"warning_1",0,0,49,49,99,0.2,1,99
"626",9,"warning_1",1,1,50,50,99,0.2,1,99
"627",9,"warning_1",0,0,51,51,99,0.6,1,99
"628",9,"warning_1",1,1,52,52,99,1,1,99
"629",9,"warning_1",0,0,53,53,99,0.8,1,99
"630",9,"warning_1",1,1,54,54,99,0.8,1,99
"631",9,"warning_1",0,0,55,55,99,0.8,1,99
"632",9,"warning_1",1,1,56,56,99,1,1,99
"633",9,"warning_1",0,0,57,57,99,0.8,1,99
"634",9,"warning_1",1,1,58,58,99,0.8,1,99
"635",9,"warning_1",0,0,59,59,99,0.6,1,99
"636",9,"warning_1",1,1,60,60,99,0.8,1,99
"637",9,"warning_1",0,0,61,61,99,0,1,99
"638",9,"warning_1",1,1,62,62,99,0.6,1,99
"639",9,"warning_1",0,0,63,63,99,0.8,1,99
"640",9,"warning_1",1,1,64,64,99,0.2,1,99
"641",9,"warning_1",0,0,65,65,99,0.6,1,99
"642",9,"warning_1",1,1,66,66,99,0.2,1,99
"643",9,"warning_1",0,0,67,67,99,0.8,1,99
"644",9,"warning_1",1,1,68,68,99,0.4,1,99
"645",9,"warning_1",0,0,69,69,99,0.8,1,99
"646",9,"warning_1",1,1,70,70,99,0.4,1,99
"647",9,"warning_1",0,0,71,71,99,0,1,99
"648",9,"warning_1",1,1,72,72,99,0.2,1,99
"649",10,"warning_0",0,0,1,1,99,0.8,1,99
"650",10,"warning_0",1,1,2,2,99,0.2,1,99
"651",10,"warning_0",0,0,3,3,99,0.4,1,99
"652",10,"warning_0",1,1,4,4,99,0.4,1,99
"653",10,"warning_0",0,0,5,5,99,1,1,99
"654",10,"warning_0",1,1,6,6,99,0.4,1,99
"655",10,"warning_0",0,0,7,7,99,0.4,1,99
"656",10,"warning_0",1,1,8,8,99,0.6,1,99
"657",10,"warning_0",0,0,9,9,99,1,1,99
"658",10,"warning_0",1,1,10,10,99,0.8,1,99
"659",10,"warning_0",0,0,11,11,99,0.6,1,99
"660",10,"warning_0",1,1,12,12,99,0.8,1,99
"661",10,"warning_0",0,0,13,13,99,0.6,1,99
"662",10,"warning_0",1,1,14,14,99,1,1,99
"663",10,"warning_0",0,0,15,15,99,0.6,1,99
"664",10,"warning_0",1,1,16,16,99,1,1,99
"665",10,"warning_0",0,0,17,17,99,1,1,99
"666",10,"warning_0",1,1,18,18,99,0.4,1,99
"667",10,"warning_0",0,0,19,19,99,0.8,1,99
"668",10,"warning_0",1,1,20,20,99,0.6,1,99
"669",10,"warning_0",0,0,21,21,99,0.4,1,99
"670",10,"warning_0",1,1,22,22,99,0.6,1,99
"671",10,"warning_0",0,0,23,23,99,0.4,1,99
"672",10,"warning_0",1,1,24,24,99,1,1,99
"673",10,"warning_0",0,0,25,25,99,1,1,99
"674",10,"warning_0",1,1,26,26,99,0.6,1,99
"675",10,"warning_0",0,0,27,27,99,1,1,99
"676",10,"warning_0",1,1,28,28,99,1,1,99
"677",10,"warning_0",0,0,29,29,99,1,1,99
"678",10,"warning_0",1,1,30,30,99,1,1,99
"679",10,"warning_0",0,0,31,31,99,0,1,99
"680",10,"warning_0",1,1,32,32,99,1,1,99
"681",10,"warning_0",0,0,33,33,99,0.4,1,99
"682",10,"warning_0",1,1,34,34,99,0.4,1,99
"683",10,"warning_0",0,0,35,35,99,0.8,1,99
"684",10,"warning_0",1,1,36,36,99,0,1,99
"685",10,"warning_0",0,0,37,37,99,0.4,0,99
"686",10,"warning_0",1,1,38,38,99,0.4,0,99
"687",10,"warning_0",0,0,39,39,99,0,0,99
"688",10,"warning_0",1,1,40,40,99,0.4,0,99
"689",10,"warning_0",0,0,41,41,99,0.4,0,99
"690",10,"warning_0",1,1,42,42,99,0.4,0,99
"691",10,"warning_0",0,0,43,43,99,0.4,0,99
"692",10,"warning_0",1,1,44,44,99,0.4,0,99
"693",10,"warning_0",0,0,45,45,99,0.2,0,99
"694",10,"warning_0",1,1,46,46,99,0.4,0,99
"695",10,"warning_0",0,0,47,47,99,1,0,99
"696",10,"warning_0",1,1,48,48,99,1,0,99
"697",10,"warning_0",0,0,49,49,99,1,0,99
"698",10,"warning_0",1,1,50,50,99,0.6,0,99
"699",10,"warning_0",0,0,51,51,99,0.4,0,99
"700",10,"warning_0",1,1,52,52,99,1,0,99
"701",10,"warning_0",0,0,53,53,99,0.4,0,99
"702",10,"warning_0",1,1,54,54,99,0.4,0,99
"703",10,"warning_0",0,0,55,55,99,0,0,99
"704",10,"warning_0",1,1,56,56,99,0.4,0,99
"705",10,"warning_0",0,0,57,57,99,0.8,0,99
"706",10,"warning_0",1,1,58,58,99,0.4,0,99
"707",10,"warning_0",0,0,59,59,99,0.6,0,99
"708",10,"warning_0",1,1,60,60,99,0.6,0,99
"709",10,"warning_0",0,0,61,61,99,1,0,99
"710",10,"warning_0",1,1,62,62,99,0.2,0,99
"711",10,"warning_0",0,0,63,63,99,0.6,0,99
"712",10,"warning_0",1,1,64,64,99,0.4,0,99
"713",10,"warning_0",0,0,65,65,99,0.6,0,99
"714",10,"warning_0",1,1,66,66,99,0.6,0,99
"715",10,"warning_0",0,0,67,67,99,0.4,0,99
"716",10,"warning_0",1,1,68,68,99,0.4,0,99
"717",10,"warning_0",0,0,69,69,99,1,0,99
"718",10,"warning_0",1,1,70,70,99,0.6,0,99
"719",10,"warning_0",0,0,71,71,99,0.8,0,99
"720",10,"warning_0",1,1,72,72,99,0.8,0,99
"721",11,"warning_0",0,0,1,1,99,0.2,0,99
"722",11,"warning_0",1,1,2,2,99,0.8,0,99
"723",11,"warning_0",0,0,3,3,99,0.2,0,99
"724",11,"warning_0",1,1,4,4,99,0.2,0,99
"725",11,"warning_0",0,0,5,5,99,0.2,0,99
"726",11,"warning_0",1,1,6,6,99,0.6,0,99
"727",11,"warning_0",0,0,7,7,99,0.2,0,99
"728",11,"warning_0",1,1,8,8,99,0.8,0,99
"729",11,"warning_0",0,0,9,9,99,0.8,0,99
"730",11,"warning_0",1,1,10,10,99,0.8,0,99
"731",11,"warning_0",0,0,11,11,99,0.8,0,99
"732",11,"warning_0",1,1,12,12,99,0.4,0,99
"733",11,"warning_0",0,0,13,13,99,0.8,0,99
"734",11,"warning_0",1,1,14,14,99,0.8,0,99
"735",11,"warning_0",0,0,15,15,99,0.2,0,99
"736",11,"warning_0",1,1,16,16,99,0.2,0,99
"737",11,"warning_0",0,0,17,17,99,0.8,0,99
"738",11,"warning_0",1,1,18,18,99,0.6,0,99
"739",11,"warning_0",0,0,19,19,99,0.4,0,99
"740",11,"warning_0",1,1,20,20,99,1,0,99
"741",11,"warning_0",0,0,21,21,99,0.2,0,99
"742",11,"warning_0",1,1,22,22,99,1,0,99
"743",11,"warning_0",0,0,23,23,99,0.6,0,99
"744",11,"warning_0",1,1,24,24,99,0.4,0,99
"745",11,"warning_0",0,0,25,25,99,0.8,0,99
"746",11,"warning_0",1,1,26,26,99,0.6,0,99
"747",11,"warning_0",0,0,27,27,99,0.8,0,99
"748",11,"warning_0",1,1,28,28,99,0.2,0,99
"749",11,"warning_0",0,0,29,29,99,0.4,0,99
"750",11,"warning_0",1,1,30,30,99,0.4,0,99
"751",11,"warning_0",0,0,31,31,99,0.2,0,99
"752",11,"warning_0",1,1,32,32,99,0.4,0,99
"753",11,"warning_0",0,0,33,33,99,0.4,0,99
"754",11,"warning_0",1,1,34,34,99,0.8,0,99
"755",11,"warning_0",0,0,35,35,99,0.2,0,99
"756",11,"warning_0",1,1,36,36,99,0.8,0,99
"757",11,"warning_0",0,0,37,37,99,0.4,1,99
"758",11,"warning_0",1,1,38,38,99,0.2,1,99
"759",11,"warning_0",0,0,39,39,99,0.8,1,99
"760",11,"warning_0",1,1,40,40,99,0.2,1,99
"761",11,"warning_0",0,0,41,41,99,0.8,1,99
"762",11,"warning_0",1,1,42,42,99,0.2,1,99
"763",11,"warning_0",0,0,43,43,99,0.8,1,99
"764",11,"warning_0",1,1,44,44,99,0.2,1,99
"765",11,"warning_0",0,0,45,45,99,0.2,1,99
"766",11,"warning_0",1,1,46,46,99,0.8,1,99
"767",11,"warning_0",0,0,47,47,99,0.6,1,99
"768",11,"warning_0",1,1,48,48,99,0.2,1,99
"769",11,"warning_0",0,0,49,49,99,0.2,1,99
"770",11,"warning_0",1,1,50,50,99,0.8,1,99
"771",11,"warning_0",0,0,51,51,99,0.2,1,99
"772",11,"warning_0",1,1,52,52,99,0.8,1,99
"773",11,"warning_0",0,0,53,53,99,0.8,1,99
"774",11,"warning_0",1,1,54,54,99,0.8,1,99
"775",11,"warning_0",0,0,55,55,99,0.2,1,99
"776",11,"warning_0",1,1,56,56,99,0.2,1,99
"777",11,"warning_0",0,0,57,57,99,0.8,1,99
"778",11,"warning_0",1,1,58,58,99,0.2,1,99
"779",11,"warning_0",0,0,59,59,99,0.8,1,99
"780",11,"warning_0",1,1,60,60,99,0,1,99
"781",11,"warning_0",0,0,61,61,99,0.2,1,99
"782",11,"warning_0",1,1,62,62,99,0.6,1,99
"783",11,"warning_0",0,0,63,63,99,1,1,99
"784",11,"warning_0",1,1,64,64,99,0.8,1,99
"785",11,"warning_0",0,0,65,65,99,0.8,1,99
"786",11,"warning_0",1,1,66,66,99,0.2,1,99
"787",11,"warning_0",0,0,67,67,99,0.8,1,99
"788",11,"warning_0",1,1,68,68,99,0.8,1,99
"789",11,"warning_0",0,0,69,69,99,0.8,1,99
"790",11,"warning_0",1,1,70,70,99,0.4,1,99
"791",11,"warning_0",0,0,71,71,99,1,1,99
"792",11,"warning_0",1,1,72,72,99,1,1,99
"793",12,"warning_1",0,0,1,1,99,0,1,99
"794",12,"warning_1",1,1,2,2,99,0,1,99
"795",12,"warning_1",0,0,3,3,99,1,1,99
"796",12,"warning_1",1,1,4,4,99,0,1,99
"797",12,"warning_1",0,0,5,5,99,0,1,99
"798",12,"warning_1",1,1,6,6,99,0,1,99
"799",12,"warning_1",0,0,7,7,99,0.8,1,99
"800",12,"warning_1",1,1,8,8,99,0,1,99
"801",12,"warning_1",0,0,9,9,99,0,1,99
"802",12,"warning_1",1,1,10,10,99,1,1,99
"803",12,"warning_1",0,0,11,11,99,0,1,99
"804",12,"warning_1",1,1,12,12,99,0,1,99
"805",12,"warning_1",0,0,13,13,99,0,1,99
"806",12,"warning_1",1,1,14,14,99,1,1,99
"807",12,"warning_1",0,0,15,15,99,0,1,99
"808",12,"warning_1",1,1,16,16,99,0,1,99
"809",12,"warning_1",0,0,17,17,99,1,1,99
"810",12,"warning_1",1,1,18,18,99,1,1,99
"811",12,"warning_1",0,0,19,19,99,0.4,1,99
"812",12,"warning_1",1,1,20,20,99,1,1,99
"813",12,"warning_1",0,0,21,21,99,1,1,99
"814",12,"warning_1",1,1,22,22,99,0,1,99
"815",12,"warning_1",0,0,23,23,99,1,1,99
"816",12,"warning_1",1,1,24,24,99,0,1,99
"817",12,"warning_1",0,0,25,25,99,0.2,1,99
"818",12,"warning_1",1,1,26,26,99,0,1,99
"819",12,"warning_1",0,0,27,27,99,1,1,99
"820",12,"warning_1",1,1,28,28,99,0,1,99
"821",12,"warning_1",0,0,29,29,99,0,1,99
"822",12,"warning_1",1,1,30,30,99,0,1,99
"823",12,"warning_1",0,0,31,31,99,0,1,99
"824",12,"warning_1",1,1,32,32,99,0,1,99
"825",12,"warning_1",0,0,33,33,99,0,1,99
"826",12,"warning_1",1,1,34,34,99,0,1,99
"827",12,"warning_1",0,0,35,35,99,1,1,99
"828",12,"warning_1",1,1,36,36,99,1,1,99
"829",12,"warning_1",0,0,37,37,99,0,0,99
"830",12,"warning_1",1,1,38,38,99,0,0,99
"831",12,"warning_1",0,0,39,39,99,0,0,99
"832",12,"warning_1",1,1,40,40,99,1,0,99
"833",12,"warning_1",0,0,41,41,99,0,0,99
"834",12,"warning_1",1,1,42,42,99,1,0,99
"835",12,"warning_1",0,0,43,43,99,1,0,99
"836",12,"warning_1",1,1,44,44,99,0,0,99
"837",12,"warning_1",0,0,45,45,99,0,0,99
"838",12,"warning_1",1,1,46,46,99,1,0,99
"839",12,"warning_1",0,0,47,47,99,0,0,99
"840",12,"warning_1",1,1,48,48,99,1,0,99
"841",12,"warning_1",0,0,49,49,99,0.4,0,99
"842",12,"warning_1",1,1,50,50,99,1,0,99
"843",12,"warning_1",0,0,51,51,99,0,0,99
"844",12,"warning_1",1,1,52,52,99,1,0,99
"845",12,"warning_1",0,0,53,53,99,1,0,99
"846",12,"warning_1",1,1,54,54,99,0,0,99
"847",12,"warning_1",0,0,55,55,99,1,0,99
"848",12,"warning_1",1,1,56,56,99,0.8,0,99
"849",12,"warning_1",0,0,57,57,99,1,0,99
"850",12,"warning_1",1,1,58,58,99,0,0,99
"851",12,"warning_1",0,0,59,59,99,1,0,99
"852",12,"warning_1",1,1,60,60,99,1,0,99
"853",12,"warning_1",0,0,61,61,99,0,0,99
"854",12,"warning_1",1,1,62,62,99,0,0,99
"855",12,"warning_1",0,0,63,63,99,0,0,99
"856",12,"warning_1",1,1,64,64,99,0,0,99
"857",12,"warning_1",0,0,65,65,99,1,0,99
"858",12,"warning_1",1,1,66,66,99,0,0,99
"859",12,"warning_1",0,0,67,67,99,0,0,99
"860",12,"warning_1",1,1,68,68,99,0,0,99
"861",12,"warning_1",0,0,69,69,99,1,0,99
"862",12,"warning_1",1,1,70,70,99,1,0,99
"863",12,"warning_1",0,0,71,71,99,0,0,99
"864",12,"warning_1",1,1,72,72,99,0,0,99
"865",13,"warning_0",0,0,1,1,99,0,1,99
"866",13,"warning_0",1,1,2,2,99,1,1,99
"867",13,"warning_0",0,0,3,3,99,1,1,99
"868",13,"warning_0",1,1,4,4,99,0,1,99
"869",13,"warning_0",0,0,5,5,99,1,1,99
"870",13,"warning_0",1,1,6,6,99,0,1,99
"871",13,"warning_0",0,0,7,7,99,1,1,99
"872",13,"warning_0",1,1,8,8,99,1,1,99
"873",13,"warning_0",0,0,9,9,99,0,1,99
"874",13,"warning_0",1,1,10,10,99,0,1,99
"875",13,"warning_0",0,0,11,11,99,0.2,1,99
"876",13,"warning_0",1,1,12,12,99,1,1,99
"877",13,"warning_0",0,0,13,13,99,1,1,99
"878",13,"warning_0",1,1,14,14,99,1,1,99
"879",13,"warning_0",0,0,15,15,99,1,1,99
"880",13,"warning_0",1,1,16,16,99,0.8,1,99
"881",13,"warning_0",0,0,17,17,99,0,1,99
"882",13,"warning_0",1,1,18,18,99,0,1,99
"883",13,"warning_0",0,0,19,19,99,1,1,99
"884",13,"warning_0",1,1,20,20,99,1,1,99
"885",13,"warning_0",0,0,21,21,99,0,1,99
"886",13,"warning_0",1,1,22,22,99,0,1,99
"887",13,"warning_0",0,0,23,23,99,0,1,99
"888",13,"warning_0",1,1,24,24,99,0,1,99
"889",13,"warning_0",0,0,25,25,99,0,1,99
"890",13,"warning_0",1,1,26,26,99,1,1,99
"891",13,"warning_0",0,0,27,27,99,1,1,99
"892",13,"warning_0",1,1,28,28,99,0,1,99
"893",13,"warning_0",0,0,29,29,99,1,1,99
"894",13,"warning_0",1,1,30,30,99,0,1,99
"895",13,"warning_0",0,0,31,31,99,1,1,99
"896",13,"warning_0",1,1,32,32,99,1,1,99
"897",13,"warning_0",0,0,33,33,99,1,1,99
"898",13,"warning_0",1,1,34,34,99,1,1,99
"899",13,"warning_0",0,0,35,35,99,1,1,99
"900",13,"warning_0",1,1,36,36,99,1,1,99
"901",13,"warning_0",0,0,37,37,99,0,0,99
"902",13,"warning_0",1,1,38,38,99,0.8,0,99
"903",13,"warning_0",0,0,39,39,99,1,0,99
"904",13,"warning_0",1,1,40,40,99,0,0,99
"905",13,"warning_0",0,0,41,41,99,1,0,99
"906",13,"warning_0",1,1,42,42,99,0,0,99
"907",13,"warning_0",0,0,43,43,99,0,0,99
"908",13,"warning_0",1,1,44,44,99,1,0,99
"909",13,"warning_0",0,0,45,45,99,1,0,99
"910",13,"warning_0",1,1,46,46,99,1,0,99
"911",13,"warning_0",0,0,47,47,99,1,0,99
"912",13,"warning_0",1,1,48,48,99,1,0,99
"913",13,"warning_0",0,0,49,49,99,0,0,99
"914",13,"warning_0",1,1,50,50,99,1,0,99
"915",13,"warning_0",0,0,51,51,99,1,0,99
"916",13,"warning_0",1,1,52,52,99,0.2,0,99
"917",13,"warning_0",0,0,53,53,99,0,0,99
"918",13,"warning_0",1,1,54,54,99,1,0,99
"919",13,"warning_0",0,0,55,55,99,0,0,99
"920",13,"warning_0",1,1,56,56,99,0.2,0,99
"921",13,"warning_0",0,0,57,57,99,1,0,99
"922",13,"warning_0",1,1,58,58,99,1,0,99
"923",13,"warning_0",0,0,59,59,99,1,0,99
"924",13,"warning_0",1,1,60,60,99,0.8,0,99
"925",13,"warning_0",0,0,61,61,99,1,0,99
"926",13,"warning_0",1,1,62,62,99,0,0,99
"927",13,"warning_0",0,0,63,63,99,1,0,99
"928",13,"warning_0",1,1,64,64,99,0.8,0,99
"929",13,"warning_0",0,0,65,65,99,1,0,99
"930",13,"warning_0",1,1,66,66,99,1,0,99
"931",13,"warning_0",0,0,67,67,99,0,0,99
"932",13,"warning_0",1,1,68,68,99,1,0,99
"933",13,"warning_0",0,0,69,69,99,0,0,99
"934",13,"warning_0",1,1,70,70,99,1,0,99
"935",13,"warning_0",0,0,71,71,99,1,0,99
"936",13,"warning_0",1,1,72,72,99,0,0,99
"937",14,"warning_1",0,0,1,1,99,0.6,1,99
"938",14,"warning_1",1,1,2,2,99,0.8,1,99
"939",14,"warning_1",0,0,3,3,99,0.8,1,99
"940",14,"warning_1",1,1,4,4,99,0.6,1,99
"941",14,"warning_1",0,0,5,5,99,0.8,1,99
"942",14,"warning_1",1,1,6,6,99,0,1,99
"943",14,"warning_1",0,0,7,7,99,0.4,1,99
"944",14,"warning_1",1,1,8,8,99,0.6,1,99
"945",14,"warning_1",0,0,9,9,99,0.4,1,99
"946",14,"warning_1",1,1,10,10,99,0.8,1,99
"947",14,"warning_1",0,0,11,11,99,0.8,1,99
"948",14,"warning_1",1,1,12,12,99,0.6,1,99
"949",14,"warning_1",0,0,13,13,99,0.6,1,99
"950",14,"warning_1",1,1,14,14,99,1,1,99
"951",14,"warning_1",0,0,15,15,99,0.8,1,99
"952",14,"warning_1",1,1,16,16,99,0.6,1,99
"953",14,"warning_1",0,0,17,17,99,0.8,1,99
"954",14,"warning_1",1,1,18,18,99,0.2,1,99
"955",14,"warning_1",0,0,19,19,99,0.2,1,99
"956",14,"warning_1",1,1,20,20,99,0.2,1,99
"957",14,"warning_1",0,0,21,21,99,0.6,1,99
"958",14,"warning_1",1,1,22,22,99,0,1,99
"959",14,"warning_1",0,0,23,23,99,0.6,1,99
"960",14,"warning_1",1,1,24,24,99,0.6,1,99
"961",14,"warning_1",0,0,25,25,99,0.6,1,99
"962",14,"warning_1",1,1,26,26,99,0.2,1,99
"963",14,"warning_1",0,0,27,27,99,0.6,1,99
"964",14,"warning_1",1,1,28,28,99,0.8,1,99
"965",14,"warning_1",0,0,29,29,99,0.8,1,99
"966",14,"warning_1",1,1,30,30,99,0.4,1,99
"967",14,"warning_1",0,0,31,31,99,0.8,1,99
"968",14,"warning_1",1,1,32,32,99,0,1,99
"969",14,"warning_1",0,0,33,33,99,0.8,1,99
"970",14,"warning_1",1,1,34,34,99,0.6,1,99
"971",14,"warning_1",0,0,35,35,99,0.8,1,99
"972",14,"warning_1",1,1,36,36,99,0,1,99
"973",14,"warning_1",0,0,37,37,99,0.4,0,99
"974",14,"warning_1",1,1,38,38,99,0.2,0,99
"975",14,"warning_1",0,0,39,39,99,0.6,0,99
"976",14,"warning_1",1,1,40,40,99,0.6,0,99
"977",14,"warning_1",0,0,41,41,99,0,0,99
"978",14,"warning_1",1,1,42,42,99,0.6,0,99
"979",14,"warning_1",0,0,43,43,99,0.8,0,99
"980",14,"warning_1",1,1,44,44,99,0.8,0,99
"981",14,"warning_1",0,0,45,45,99,0,0,99
"982",14,"warning_1",1,1,46,46,99,0.6,0,99
"983",14,"warning_1",0,0,47,47,99,0.8,0,99
"984",14,"warning_1",1,1,48,48,99,0.6,0,99
"985",14,"warning_1",0,0,49,49,99,0.8,0,99
"986",14,"warning_1",1,1,50,50,99,1,0,99
"987",14,"warning_1",0,0,51,51,99,1,0,99
"988",14,"warning_1",1,1,52,52,99,1,0,99
"989",14,"warning_1",0,0,53,53,99,0.6,0,99
"990",14,"warning_1",1,1,54,54,99,0.8,0,99
"991",14,"warning_1",0,0,55,55,99,0,0,99
"992",14,"warning_1",1,1,56,56,99,0.8,0,99
"993",14,"warning_1",0,0,57,57,99,0,0,99
"994",14,"warning_1",1,1,58,58,99,0.8,0,99
"995",14,"warning_1",0,0,59,59,99,0.4,0,99
"996",14,"warning_1",1,1,60,60,99,0.4,0,99
"997",14,"warning_1",0,0,61,61,99,1,0,99
"998",14,"warning_1",1,1,62,62,99,0,0,99
"999",14,"warning_1",0,0,63,63,99,0.6,0,99
"1000",14,"warning_1",1,1,64,64,99,0.6,0,99
"1001",14,"warning_1",0,0,65,65,99,0.8,0,99
"1002",14,"warning_1",1,1,66,66,99,0.8,0,99
"1003",14,"warning_1",0,0,67,67,99,0,0,99
"1004",14,"warning_1",1,1,68,68,99,0.6,0,99
"1005",14,"warning_1",0,0,69,69,99,0,0,99
"1006",14,"warning_1",1,1,70,70,99,1,0,99
"1007",14,"warning_1",0,0,71,71,99,1,0,99
"1008",14,"warning_1",1,1,72,72,99,1,0,99
"1009",15,"warning_0",0,0,1,1,99,0.4,0,99
"1010",15,"warning_0",1,1,2,2,99,0.8,0,99
"1011",15,"warning_0",0,0,3,3,99,0.4,0,99
"1012",15,"warning_0",1,1,4,4,99,0.4,0,99
"1013",15,"warning_0",0,0,5,5,99,0.4,0,99
"1014",15,"warning_0",1,1,6,6,99,0.8,0,99
"1015",15,"warning_0",0,0,7,7,99,0.4,0,99
"1016",15,"warning_0",1,1,8,8,99,0.8,0,99
"1017",15,"warning_0",0,0,9,9,99,0.4,0,99
"1018",15,"warning_0",1,1,10,10,99,0.6,0,99
"1019",15,"warning_0",0,0,11,11,99,0.4,0,99
"1020",15,"warning_0",1,1,12,12,99,0.6,0,99
"1021",15,"warning_0",0,0,13,13,99,0.4,0,99
"1022",15,"warning_0",1,1,14,14,99,0.4,0,99
"1023",15,"warning_0",0,0,15,15,99,0.6,0,99
"1024",15,"warning_0",1,1,16,16,99,0.4,0,99
"1025",15,"warning_0",0,0,17,17,99,0.8,0,99
"1026",15,"warning_0",1,1,18,18,99,0.4,0,99
"1027",15,"warning_0",0,0,19,19,99,0.2,0,99
"1028",15,"warning_0",1,1,20,20,99,0.4,0,99
"1029",15,"warning_0",0,0,21,21,99,0.4,0,99
"1030",15,"warning_0",1,1,22,22,99,0.6,0,99
"1031",15,"warning_0",0,0,23,23,99,0.6,0,99
"1032",15,"warning_0",1,1,24,24,99,0.6,0,99
"1033",15,"warning_0",0,0,25,25,99,0.4,0,99
"1034",15,"warning_0",1,1,26,26,99,0.8,0,99
"1035",15,"warning_0",0,0,27,27,99,0.6,0,99
"1036",15,"warning_0",1,1,28,28,99,0.6,0,99
"1037",15,"warning_0",0,0,29,29,99,0.4,0,99
"1038",15,"warning_0",1,1,30,30,99,0.4,0,99
"1039",15,"warning_0",0,0,31,31,99,0.6,0,99
"1040",15,"warning_0",1,1,32,32,99,0.4,0,99
"1041",15,"warning_0",0,0,33,33,99,0.6,0,99
"1042",15,"warning_0",1,1,34,34,99,0.6,0,99
"1043",15,"warning_0",0,0,35,35,99,0.4,0,99
"1044",15,"warning_0",1,1,36,36,99,0.8,0,99
"1045",15,"warning_0",0,0,37,37,99,0.6,1,99
"1046",15,"warning_0",1,1,38,38,99,1,1,99
"1047",15,"warning_0",0,0,39,39,99,0.4,1,99
"1048",15,"warning_0",1,1,40,40,99,0.4,1,99
"1049",15,"warning_0",0,0,41,41,99,1,1,99
"1050",15,"warning_0",1,1,42,42,99,0.8,1,99
"1051",15,"warning_0",0,0,43,43,99,0.8,1,99
"1052",15,"warning_0",1,1,44,44,99,1,1,99
"1053",15,"warning_0",0,0,45,45,99,0,1,99
"1054",15,"warning_0",1,1,46,46,99,0.8,1,99
"1055",15,"warning_0",0,0,47,47,99,0.8,1,99
"1056",15,"warning_0",1,1,48,48,99,0.6,1,99
"1057",15,"warning_0",0,0,49,49,99,0.4,1,99
"1058",15,"warning_0",1,1,50,50,99,1,1,99
"1059",15,"warning_0",0,0,51,51,99,1,1,99
"1060",15,"warning_0",1,1,52,52,99,0.8,1,99
"1061",15,"warning_0",0,0,53,53,99,1,1,99
"1062",15,"warning_0",1,1,54,54,99,1,1,99
"1063",15,"warning_0",0,0,55,55,99,0.6,1,99
"1064",15,"warning_0",1,1,56,56,99,0.8,1,99
"1065",15,"warning_0",0,0,57,57,99,0.6,1,99
"1066",15,"warning_0",1,1,58,58,99,0.8,1,99
"1067",15,"warning_0",0,0,59,59,99,0.6,1,99
"1068",15,"warning_0",1,1,60,60,99,0.6,1,99
"1069",15,"warning_0",0,0,61,61,99,1,1,99
"1070",15,"warning_0",1,1,62,62,99,0.8,1,99
"1071",15,"warning_0",0,0,63,63,99,0.8,1,99
"1072",15,"warning_0",1,1,64,64,99,0.6,1,99
"1073",15,"warning_0",0,0,65,65,99,0.4,1,99
"1074",15,"warning_0",1,1,66,66,99,1,1,99
"1075",15,"warning_0",0,0,67,67,99,1,1,99
"1076",15,"warning_0",1,1,68,68,99,0.6,1,99
"1077",15,"warning_0",0,0,69,69,99,1,1,99
"1078",15,"warning_0",1,1,70,70,99,0.8,1,99
"1079",15,"warning_0",0,0,71,71,99,1,1,99
"1080",15,"warning_0",1,1,72,72,99,1,1,99
"1081",16,"warning_1",0,0,1,1,99,0.2,0,99
"1082",16,"warning_1",1,1,2,2,99,0.2,0,99
"1083",16,"warning_1",0,0,3,3,99,0.2,0,99
"1084",16,"warning_1",1,1,4,4,99,0.6,0,99
"1085",16,"warning_1",0,0,5,5,99,0.2,0,99
"1086",16,"warning_1",1,1,6,6,99,0.8,0,99
"1087",16,"warning_1",0,0,7,7,99,0.6,0,99
"1088",16,"warning_1",1,1,8,8,99,0.6,0,99
"1089",16,"warning_1",0,0,9,9,99,0.2,0,99
"1090",16,"warning_1",1,1,10,10,99,0.4,0,99
"1091",16,"warning_1",0,0,11,11,99,0.6,0,99
"1092",16,"warning_1",1,1,12,12,99,0.8,0,99
"1093",16,"warning_1",0,0,13,13,99,0.4,0,99
"1094",16,"warning_1",1,1,14,14,99,0.6,0,99
"1095",16,"warning_1",0,0,15,15,99,0.4,0,99
"1096",16,"warning_1",1,1,16,16,99,0.6,0,99
"1097",16,"warning_1",0,0,17,17,99,0.8,0,99
"1098",16,"warning_1",1,1,18,18,99,1,0,99
"1099",16,"warning_1",0,0,19,19,99,0.2,0,99
"1100",16,"warning_1",1,1,20,20,99,0.2,0,99
"1101",16,"warning_1",0,0,21,21,99,0.8,0,99
"1102",16,"warning_1",1,1,22,22,99,0.6,0,99
"1103",16,"warning_1",0,0,23,23,99,0.6,0,99
"1104",16,"warning_1",1,1,24,24,99,0.6,0,99
"1105",16,"warning_1",0,0,25,25,99,0.8,0,99
"1106",16,"warning_1",1,1,26,26,99,0.4,0,99
"1107",16,"warning_1",0,0,27,27,99,0.8,0,99
"1108",16,"warning_1",1,1,28,28,99,0.6,0,99
"1109",16,"warning_1",0,0,29,29,99,0.4,0,99
"1110",16,"warning_1",1,1,30,30,99,0.6,0,99
"1111",16,"warning_1",0,0,31,31,99,0.2,0,99
"1112",16,"warning_1",1,1,32,32,99,0.4,0,99
"1113",16,"warning_1",0,0,33,33,99,0.6,0,99
"1114",16,"warning_1",1,1,34,34,99,0.6,0,99
"1115",16,"warning_1",0,0,35,35,99,0.8,0,99
"1116",16,"warning_1",1,1,36,36,99,0.8,0,99
"1117",16,"warning_1",0,0,37,37,99,0.4,1,99
"1118",16,"warning_1",1,1,38,38,99,0.6,1,99
"1119",16,"warning_1",0,0,39,39,99,0.8,1,99
"1120",16,"warning_1",1,1,40,40,99,0.2,1,99
"1121",16,"warning_1",0,0,41,41,99,0.8,1,99
"1122",16,"warning_1",1,1,42,42,99,0.6,1,99
"1123",16,"warning_1",0,0,43,43,99,0.4,1,99
"1124",16,"warning_1",1,1,44,44,99,0.6,1,99
"1125",16,"warning_1",0,0,45,45,99,0.2,1,99
"1126",16,"warning_1",1,1,46,46,99,0.8,1,99
"1127",16,"warning_1",0,0,47,47,99,1,1,99
"1128",16,"warning_1",1,1,48,48,99,0.2,1,99
"1129",16,"warning_1",0,0,49,49,99,0.6,1,99
"1130",16,"warning_1",1,1,50,50,99,0.2,1,99
"1131",16,"warning_1",0,0,51,51,99,0.8,1,99
"1132",16,"warning_1",1,1,52,52,99,1,1,99
"1133",16,"warning_1",0,0,53,53,99,0.6,1,99
"1134",16,"warning_1",1,1,54,54,99,0.4,1,99
"1135",16,"warning_1",0,0,55,55,99,0,1,99
"1136",16,"warning_1",1,1,56,56,99,0.4,1,99
"1137",16,"warning_1",0,0,57,57,99,0.4,1,99
"1138",16,"warning_1",1,1,58,58,99,0.6,1,99
"1139",16,"warning_1",0,0,59,59,99,0.6,1,99
"1140",16,"warning_1",1,1,60,60,99,0.8,1,99
"1141",16,"warning_1",0,0,61,61,99,0.4,1,99
"1142",16,"warning_1",1,1,62,62,99,0.4,1,99
"1143",16,"warning_1",0,0,63,63,99,0.4,1,99
"1144",16,"warning_1",1,1,64,64,99,0.6,1,99
"1145",16,"warning_1",0,0,65,65,99,0.6,1,99
"1146",16,"warning_1",1,1,66,66,99,0.6,1,99
"1147",16,"warning_1",0,0,67,67,99,0.2,1,99
"1148",16,"warning_1",1,1,68,68,99,0.6,1,99
"1149",16,"warning_1",0,0,69,69,99,0.6,1,99
"1150",16,"warning_1",1,1,70,70,99,0.8,1,99
"1151",16,"warning_1",0,0,71,71,99,0.8,1,99
"1152",16,"warning_1",1,1,72,72,99,0.2,1,99
"1153",17,"warning_1",0,0,1,1,99,0.4,0,99
"1154",17,"warning_1",1,1,2,2,99,0.4,0,99
"1155",17,"warning_1",0,0,3,3,99,0.2,0,99
"1156",17,"warning_1",1,1,4,4,99,0.6,0,99
"1157",17,"warning_1",0,0,5,5,99,0.8,0,99
"1158",17,"warning_1",1,1,6,6,99,0.6,0,99
"1159",17,"warning_1",0,0,7,7,99,0.4,0,99
"1160",17,"warning_1",1,1,8,8,99,0.6,0,99
"1161",17,"warning_1",0,0,9,9,99,0.4,0,99
"1162",17,"warning_1",1,1,10,10,99,0.6,0,99
"1163",17,"warning_1",0,0,11,11,99,0.4,0,99
"1164",17,"warning_1",1,1,12,12,99,0.4,0,99
"1165",17,"warning_1",0,0,13,13,99,0.4,0,99
"1166",17,"warning_1",1,1,14,14,99,0.8,0,99
"1167",17,"warning_1",0,0,15,15,99,0.8,0,99
"1168",17,"warning_1",1,1,16,16,99,0.4,0,99
"1169",17,"warning_1",0,0,17,17,99,0.6,0,99
"1170",17,"warning_1",1,1,18,18,99,0.4,0,99
"1171",17,"warning_1",0,0,19,19,99,0.8,0,99
"1172",17,"warning_1",1,1,20,20,99,0.4,0,99
"1173",17,"warning_1",0,0,21,21,99,0.6,0,99
"1174",17,"warning_1",1,1,22,22,99,0.4,0,99
"1175",17,"warning_1",0,0,23,23,99,0.8,0,99
"1176",17,"warning_1",1,1,24,24,99,0.6,0,99
"1177",17,"warning_1",0,0,25,25,99,0.8,0,99
"1178",17,"warning_1",1,1,26,26,99,0.8,0,99
"1179",17,"warning_1",0,0,27,27,99,0.6,0,99
"1180",17,"warning_1",1,1,28,28,99,0.4,0,99
"1181",17,"warning_1",0,0,29,29,99,0.2,0,99
"1182",17,"warning_1",1,1,30,30,99,0.8,0,99
"1183",17,"warning_1",0,0,31,31,99,0.8,0,99
"1184",17,"warning_1",1,1,32,32,99,0.6,0,99
"1185",17,"warning_1",0,0,33,33,99,0.8,0,99
"1186",17,"warning_1",1,1,34,34,99,0.8,0,99
"1187",17,"warning_1",0,0,35,35,99,0.4,0,99
"1188",17,"warning_1",1,1,36,36,99,0,0,99
"1189",17,"warning_1",0,0,37,37,99,0.4,1,99
"1190",17,"warning_1",1,1,38,38,99,0.2,1,99
"1191",17,"warning_1",0,0,39,39,99,0.4,1,99
"1192",17,"warning_1",1,1,40,40,99,0.8,1,99
"1193",17,"warning_1",0,0,41,41,99,0.4,1,99
"1194",17,"warning_1",1,1,42,42,99,0.4,1,99
"1195",17,"warning_1",0,0,43,43,99,0.6,1,99
"1196",17,"warning_1",1,1,44,44,99,0.8,1,99
"1197",17,"warning_1",0,0,45,45,99,0.8,1,99
"1198",17,"warning_1",1,1,46,46,99,0.6,1,99
"1199",17,"warning_1",0,0,47,47,99,0.6,1,99
"1200",17,"warning_1",1,1,48,48,99,0.8,1,99
"1201",17,"warning_1",0,0,49,49,99,0.6,1,99
"1202",17,"warning_1",1,1,50,50,99,0.8,1,99
"1203",17,"warning_1",0,0,51,51,99,0.4,1,99
"1204",17,"warning_1",1,1,52,52,99,0.2,1,99
"1205",17,"warning_1",0,0,53,53,99,0.6,1,99
"1206",17,"warning_1",1,1,54,54,99,0.8,1,99
"1207",17,"warning_1",0,0,55,55,99,0,1,99
"1208",17,"warning_1",1,1,56,56,99,0.6,1,99
"1209",17,"warning_1",0,0,57,57,99,0.6,1,99
"1210",17,"warning_1",1,1,58,58,99,0.8,1,99
"1211",17,"warning_1",0,0,59,59,99,0.8,1,99
"1212",17,"warning_1",1,1,60,60,99,0.2,1,99
"1213",17,"warning_1",0,0,61,61,99,1,1,99
"1214",17,"warning_1",1,1,62,62,99,0.4,1,99
"1215",17,"warning_1",0,0,63,63,99,0.4,1,99
"1216",17,"warning_1",1,1,64,64,99,0.6,1,99
"1217",17,"warning_1",0,0,65,65,99,0.8,1,99
"1218",17,"warning_1",1,1,66,66,99,0.4,1,99
"1219",17,"warning_1",0,0,67,67,99,0.2,1,99
"1220",17,"warning_1",1,1,68,68,99,0.8,1,99
"1221",17,"warning_1",0,0,69,69,99,0.6,1,99
"1222",17,"warning_1",1,1,70,70,99,0.4,1,99
"1223",17,"warning_1",0,0,71,71,99,1,1,99
"1224",17,"warning_1",1,1,72,72,99,0.2,1,99
"1225",18,"warning_1",0,0,1,1,99,0.6,1,99
"1226",18,"warning_1",1,1,2,2,99,0,1,99
"1227",18,"warning_1",0,0,3,3,99,0.2,1,99
"1228",18,"warning_1",1,1,4,4,99,0.2,1,99
"1229",18,"warning_1",0,0,5,5,99,0,1,99
"1230",18,"warning_1",1,1,6,6,99,0.6,1,99
"1231",18,"warning_1",0,0,7,7,99,0.6,1,99
"1232",18,"warning_1",1,1,8,8,99,0.4,1,99
"1233",18,"warning_1",0,0,9,9,99,0.8,1,99
"1234",18,"warning_1",1,1,10,10,99,0.2,1,99
"1235",18,"warning_1",0,0,11,11,99,0.8,1,99
"1236",18,"warning_1",1,1,12,12,99,0.8,1,99
"1237",18,"warning_1",0,0,13,13,99,0.6,1,99
"1238",18,"warning_1",1,1,14,14,99,1,1,99
"1239",18,"warning_1",0,0,15,15,99,0,1,99
"1240",18,"warning_1",1,1,16,16,99,0,1,99
"1241",18,"warning_1",0,0,17,17,99,1,1,99
"1242",18,"warning_1",1,1,18,18,99,1,1,99
"1243",18,"warning_1",0,0,19,19,99,0,1,99
"1244",18,"warning_1",1,1,20,20,99,0,1,99
"1245",18,"warning_1",0,0,21,21,99,0.6,1,99
"1246",18,"warning_1",1,1,22,22,99,0.4,1,99
"1247",18,"warning_1",0,0,23,23,99,0.4,1,99
"1248",18,"warning_1",1,1,24,24,99,0,1,99
"1249",18,"warning_1",0,0,25,25,99,0.2,1,99
"1250",18,"warning_1",1,1,26,26,99,1,1,99
"1251",18,"warning_1",0,0,27,27,99,0,1,99
"1252",18,"warning_1",1,1,28,28,99,0,1,99
"1253",18,"warning_1",0,0,29,29,99,0.2,1,99
"1254",18,"warning_1",1,1,30,30,99,1,1,99
"1255",18,"warning_1",0,0,31,31,99,0,1,99
"1256",18,"warning_1",1,1,32,32,99,0.2,1,99
"1257",18,"warning_1",0,0,33,33,99,0.4,1,99
"1258",18,"warning_1",1,1,34,34,99,0.2,1,99
"1259",18,"warning_1",0,0,35,35,99,0.2,1,99
"1260",18,"warning_1",1,1,36,36,99,0.2,1,99
"1261",18,"warning_1",0,0,37,37,99,0.4,0,99
"1262",18,"warning_1",1,1,38,38,99,0.4,0,99
"1263",18,"warning_1",0,0,39,39,99,0,0,99
"1264",18,"warning_1",1,1,40,40,99,0.4,0,99
"1265",18,"warning_1",0,0,41,41,99,1,0,99
"1266",18,"warning_1",1,1,42,42,99,0.2,0,99
"1267",18,"warning_1",0,0,43,43,99,0,0,99
"1268",18,"warning_1",1,1,44,44,99,0.8,0,99
"1269",18,"warning_1",0,0,45,45,99,0.6,0,99
"1270",18,"warning_1",1,1,46,46,99,0.8,0,99
"1271",18,"warning_1",0,0,47,47,99,0,0,99
"1272",18,"warning_1",1,1,48,48,99,0.2,0,99
"1273",18,"warning_1",0,0,49,49,99,0.4,0,99
"1274",18,"warning_1",1,1,50,50,99,0.4,0,99
"1275",18,"warning_1",0,0,51,51,99,0.6,0,99
"1276",18,"warning_1",1,1,52,52,99,0.8,0,99
"1277",18,"warning_1",0,0,53,53,99,0.4,0,99
"1278",18,"warning_1",1,1,54,54,99,0.8,0,99
"1279",18,"warning_1",0,0,55,55,99,0,0,99
"1280",18,"warning_1",1,1,56,56,99,0.2,0,99
"1281",18,"warning_1",0,0,57,57,99,1,0,99
"1282",18,"warning_1",1,1,58,58,99,0,0,99
"1283",18,"warning_1",0,0,59,59,99,0.2,0,99
"1284",18,"warning_1",1,1,60,60,99,0.6,0,99
"1285",18,"warning_1",0,0,61,61,99,0,0,99
"1286",18,"warning_1",1,1,62,62,99,0.4,0,99
"1287",18,"warning_1",0,0,63,63,99,0.8,0,99
"1288",18,"warning_1",1,1,64,64,99,0.4,0,99
"1289",18,"warning_1",0,0,65,65,99,0.8,0,99
"1290",18,"warning_1",1,1,66,66,99,0.4,0,99
"1291",18,"warning_1",0,0,67,67,99,0.6,0,99
"1292",18,"warning_1",1,1,68,68,99,0.2,0,99
"1293",18,"warning_1",0,0,69,69,99,1,0,99
"1294",18,"warning_1",1,1,70,70,99,0.6,0,99
"1295",18,"warning_1",0,0,71,71,99,1,0,99
"1296",18,"warning_1",1,1,72,72,99,0.4,0,99
"1297",19,"warning_1",0,0,1,1,99,0.8,1,99
"1298",19,"warning_1",1,1,2,2,99,0.6,1,99
"1299",19,"warning_1",0,0,3,3,99,0.8,1,99
"1300",19,"warning_1",1,1,4,4,99,0.6,1,99
"1301",19,"warning_1",0,0,5,5,99,0.4,1,99
"1302",19,"warning_1",1,1,6,6,99,0.2,1,99
"1303",19,"warning_1",0,0,7,7,99,0.2,1,99
"1304",19,"warning_1",1,1,8,8,99,0.8,1,99
"1305",19,"warning_1",0,0,9,9,99,0.6,1,99
"1306",19,"warning_1",1,1,10,10,99,0.4,1,99
"1307",19,"warning_1",0,0,11,11,99,0.8,1,99
"1308",19,"warning_1",1,1,12,12,99,1,1,99
"1309",19,"warning_1",0,0,13,13,99,0.2,1,99
"1310",19,"warning_1",1,1,14,14,99,0.6,1,99
"1311",19,"warning_1",0,0,15,15,99,0,1,99
"1312",19,"warning_1",1,1,16,16,99,0,1,99
"1313",19,"warning_1",0,0,17,17,99,0.4,1,99
"1314",19,"warning_1",1,1,18,18,99,1,1,99
"1315",19,"warning_1",0,0,19,19,99,0.6,1,99
"1316",19,"warning_1",1,1,20,20,99,0.4,1,99
"1317",19,"warning_1",0,0,21,21,99,0.6,1,99
"1318",19,"warning_1",1,1,22,22,99,0.2,1,99
"1319",19,"warning_1",0,0,23,23,99,0.6,1,99
"1320",19,"warning_1",1,1,24,24,99,0.8,1,99
"1321",19,"warning_1",0,0,25,25,99,0.4,1,99
"1322",19,"warning_1",1,1,26,26,99,0.4,1,99
"1323",19,"warning_1",0,0,27,27,99,0.6,1,99
"1324",19,"warning_1",1,1,28,28,99,1,1,99
"1325",19,"warning_1",0,0,29,29,99,0.6,1,99
"1326",19,"warning_1",1,1,30,30,99,0.4,1,99
"1327",19,"warning_1",0,0,31,31,99,0.4,1,99
"1328",19,"warning_1",1,1,32,32,99,1,1,99
"1329",19,"warning_1",0,0,33,33,99,0.8,1,99
"1330",19,"warning_1",1,1,34,34,99,0.6,1,99
"1331",19,"warning_1",0,0,35,35,99,0.6,1,99
"1332",19,"warning_1",1,1,36,36,99,0,1,99
"1333",19,"warning_1",0,0,37,37,99,0.4,0,99
"1334",19,"warning_1",1,1,38,38,99,0.6,0,99
"1335",19,"warning_1",0,0,39,39,99,0.2,0,99
"1336",19,"warning_1",1,1,40,40,99,0.6,0,99
"1337",19,"warning_1",0,0,41,41,99,0.8,0,99
"1338",19,"warning_1",1,1,42,42,99,0.4,0,99
"1339",19,"warning_1",0,0,43,43,99,0.2,0,99
"1340",19,"warning_1",1,1,44,44,99,0.2,0,99
"1341",19,"warning_1",0,0,45,45,99,0,0,99
"1342",19,"warning_1",1,1,46,46,99,0.4,0,99
"1343",19,"warning_1",0,0,47,47,99,1,0,99
"1344",19,"warning_1",1,1,48,48,99,0.6,0,99
"1345",19,"warning_1",0,0,49,49,99,1,0,99
"1346",19,"warning_1",1,1,50,50,99,0.4,0,99
"1347",19,"warning_1",0,0,51,51,99,0.4,0,99
"1348",19,"warning_1",1,1,52,52,99,1,0,99
"1349",19,"warning_1",0,0,53,53,99,0.4,0,99
"1350",19,"warning_1",1,1,54,54,99,0.6,0,99
"1351",19,"warning_1",0,0,55,55,99,0.6,0,99
"1352",19,"warning_1",1,1,56,56,99,0.4,0,99
"1353",19,"warning_1",0,0,57,57,99,0.4,0,99
"1354",19,"warning_1",1,1,58,58,99,0.8,0,99
"1355",19,"warning_1",0,0,59,59,99,0.2,0,99
"1356",19,"warning_1",1,1,60,60,99,0.6,0,99
"1357",19,"warning_1",0,0,61,61,99,0.4,0,99
"1358",19,"warning_1",1,1,62,62,99,0.4,0,99
"1359",19,"warning_1",0,0,63,63,99,0.4,0,99
"1360",19,"warning_1",1,1,64,64,99,0.4,0,99
"1361",19,"warning_1",0,0,65,65,99,0.2,0,99
"1362",19,"warning_1",1,1,66,66,99,0.4,0,99
"1363",19,"warning_1",0,0,67,67,99,0.2,0,99
"1364",19,"warning_1",1,1,68,68,99,0.4,0,99
"1365",19,"warning_1",0,0,69,69,99,1,0,99
"1366",19,"warning_1",1,1,70,70,99,0.4,0,99
"1367",19,"warning_1",0,0,71,71,99,0.4,0,99
"1368",19,"warning_1",1,1,72,72,99,0.2,0,99
"1369",20,"warning_0",0,0,1,1,99,0.4,0,99
"1370",20,"warning_0",1,1,2,2,99,0.4,0,99
"1371",20,"warning_0",0,0,3,3,99,0.4,0,99
"1372",20,"warning_0",1,1,4,4,99,0.4,0,99
"1373",20,"warning_0",0,0,5,5,99,0.8,0,99
"1374",20,"warning_0",1,1,6,6,99,0.4,0,99
"1375",20,"warning_0",0,0,7,7,99,0.6,0,99
"1376",20,"warning_0",1,1,8,8,99,0.2,0,99
"1377",20,"warning_0",0,0,9,9,99,0.4,0,99
"1378",20,"warning_0",1,1,10,10,99,0.4,0,99
"1379",20,"warning_0",0,0,11,11,99,0.4,0,99
"1380",20,"warning_0",1,1,12,12,99,0.8,0,99
"1381",20,"warning_0",0,0,13,13,99,0.4,0,99
"1382",20,"warning_0",1,1,14,14,99,0.4,0,99
"1383",20,"warning_0",0,0,15,15,99,0.6,0,99
"1384",20,"warning_0",1,1,16,16,99,0.2,0,99
"1385",20,"warning_0",0,0,17,17,99,0.4,0,99
"1386",20,"warning_0",1,1,18,18,99,0.6,0,99
"1387",20,"warning_0",0,0,19,19,99,0.6,0,99
"1388",20,"warning_0",1,1,20,20,99,0.4,0,99
"1389",20,"warning_0",0,0,21,21,99,0.4,0,99
"1390",20,"warning_0",1,1,22,22,99,0.4,0,99
"1391",20,"warning_0",0,0,23,23,99,0.4,0,99
"1392",20,"warning_0",1,1,24,24,99,0.2,0,99
"1393",20,"warning_0",0,0,25,25,99,0.4,0,99
"1394",20,"warning_0",1,1,26,26,99,0.2,0,99
"1395",20,"warning_0",0,0,27,27,99,0.4,0,99
"1396",20,"warning_0",1,1,28,28,99,0.8,0,99
"1397",20,"warning_0",0,0,29,29,99,0.4,0,99
"1398",20,"warning_0",1,1,30,30,99,0.8,0,99
"1399",20,"warning_0",0,0,31,31,99,0.8,0,99
"1400",20,"warning_0",1,1,32,32,99,0.4,0,99
"1401",20,"warning_0",0,0,33,33,99,0.6,0,99
"1402",20,"warning_0",1,1,34,34,99,0.6,0,99
"1403",20,"warning_0",0,0,35,35,99,0.2,0,99
"1404",20,"warning_0",1,1,36,36,99,0,0,99
"1405",20,"warning_0",0,0,37,37,99,0.6,1,99
"1406",20,"warning_0",1,1,38,38,99,1,1,99
"1407",20,"warning_0",0,0,39,39,99,0.4,1,99
"1408",20,"warning_0",1,1,40,40,99,0.4,1,99
"1409",20,"warning_0",0,0,41,41,99,1,1,99
"1410",20,"warning_0",1,1,42,42,99,0.8,1,99
"1411",20,"warning_0",0,0,43,43,99,0.2,1,99
"1412",20,"warning_0",1,1,44,44,99,0.6,1,99
"1413",20,"warning_0",0,0,45,45,99,1,1,99
"1414",20,"warning_0",1,1,46,46,99,0.8,1,99
"1415",20,"warning_0",0,0,47,47,99,0.8,1,99
"1416",20,"warning_0",1,1,48,48,99,0.8,1,99
"1417",20,"warning_0",0,0,49,49,99,1,1,99
"1418",20,"warning_0",1,1,50,50,99,0.8,1,99
"1419",20,"warning_0",0,0,51,51,99,1,1,99
"1420",20,"warning_0",1,1,52,52,99,0.4,1,99
"1421",20,"warning_0",0,0,53,53,99,0.8,1,99
"1422",20,"warning_0",1,1,54,54,99,1,1,99
"1423",20,"warning_0",0,0,55,55,99,0.6,1,99
"1424",20,"warning_0",1,1,56,56,99,0.4,1,99
"1425",20,"warning_0",0,0,57,57,99,0.6,1,99
"1426",20,"warning_0",1,1,58,58,99,0.8,1,99
"1427",20,"warning_0",0,0,59,59,99,0.4,1,99
"1428",20,"warning_0",1,1,60,60,99,0.4,1,99
"1429",20,"warning_0",0,0,61,61,99,0.8,1,99
"1430",20,"warning_0",1,1,62,62,99,1,1,99
"1431",20,"warning_0",0,0,63,63,99,1,1,99
"1432",20,"warning_0",1,1,64,64,99,0.4,1,99
"1433",20,"warning_0",0,0,65,65,99,0.8,1,99
"1434",20,"warning_0",1,1,66,66,99,0.4,1,99
"1435",20,"warning_0",0,0,67,67,99,0.4,1,99
"1436",20,"warning_0",1,1,68,68,99,1,1,99
"1437",20,"warning_0",0,0,69,69,99,1,1,99
"1438",20,"warning_0",1,1,70,70,99,0.4,1,99
"1439",20,"warning_0",0,0,71,71,99,0.8,1,99
"1440",20,"warning_0",1,1,72,72,99,1,1,99
"1441",21,"warning_0",0,0,1,1,99,0.2,0,99
"1442",21,"warning_0",1,1,2,2,99,0.2,0,99
"1443",21,"warning_0",0,0,3,3,99,0.4,0,99
"1444",21,"warning_0",1,1,4,4,99,0.4,0,99
"1445",21,"warning_0",0,0,5,5,99,0,0,99
"1446",21,"warning_0",1,1,6,6,99,0.4,0,99
"1447",21,"warning_0",0,0,7,7,99,0.4,0,99
"1448",21,"warning_0",1,1,8,8,99,0.4,0,99
"1449",21,"warning_0",0,0,9,9,99,0.8,0,99
"1450",21,"warning_0",1,1,10,10,99,0.6,0,99
"1451",21,"warning_0",0,0,11,11,99,1,0,99
"1452",21,"warning_0",1,1,12,12,99,0.8,0,99
"1453",21,"warning_0",0,0,13,13,99,0.8,0,99
"1454",21,"warning_0",1,1,14,14,99,0.8,0,99
"1455",21,"warning_0",0,0,15,15,99,0.4,0,99
"1456",21,"warning_0",1,1,16,16,99,1,0,99
"1457",21,"warning_0",0,0,17,17,99,0,0,99
"1458",21,"warning_0",1,1,18,18,99,1,0,99
"1459",21,"warning_0",0,0,19,19,99,0.4,0,99
"1460",21,"warning_0",1,1,20,20,99,1,0,99
"1461",21,"warning_0",0,0,21,21,99,0.6,0,99
"1462",21,"warning_0",1,1,22,22,99,0.8,0,99
"1463",21,"warning_0",0,0,23,23,99,0,0,99
"1464",21,"warning_0",1,1,24,24,99,0,0,99
"1465",21,"warning_0",0,0,25,25,99,0.6,0,99
"1466",21,"warning_0",1,1,26,26,99,0,0,99
"1467",21,"warning_0",0,0,27,27,99,0.8,0,99
"1468",21,"warning_0",1,1,28,28,99,0,0,99
"1469",21,"warning_0",0,0,29,29,99,0.8,0,99
"1470",21,"warning_0",1,1,30,30,99,0.2,0,99
"1471",21,"warning_0",0,0,31,31,99,0,0,99
"1472",21,"warning_0",1,1,32,32,99,0.6,0,99
"1473",21,"warning_0",0,0,33,33,99,1,0,99
"1474",21,"warning_0",1,1,34,34,99,0.4,0,99
"1475",21,"warning_0",0,0,35,35,99,0,0,99
"1476",21,"warning_0",1,1,36,36,99,0.2,0,99
"1477",21,"warning_0",0,0,37,37,99,0.2,1,99
"1478",21,"warning_0",1,1,38,38,99,0.2,1,99
"1479",21,"warning_0",0,0,39,39,99,0.2,1,99
"1480",21,"warning_0",1,1,40,40,99,0.2,1,99
"1481",21,"warning_0",0,0,41,41,99,1,1,99
"1482",21,"warning_0",1,1,42,42,99,1,1,99
"1483",21,"warning_0",0,0,43,43,99,0.6,1,99
"1484",21,"warning_0",1,1,44,44,99,0.6,1,99
"1485",21,"warning_0",0,0,45,45,99,0.8,1,99
"1486",21,"warning_0",1,1,46,46,99,0.4,1,99
"1487",21,"warning_0",0,0,47,47,99,0.2,1,99
"1488",21,"warning_0",1,1,48,48,99,0.6,1,99
"1489",21,"warning_0",0,0,49,49,99,1,1,99
"1490",21,"warning_0",1,1,50,50,99,1,1,99
"1491",21,"warning_0",0,0,51,51,99,0.2,1,99
"1492",21,"warning_0",1,1,52,52,99,0.4,1,99
"1493",21,"warning_0",0,0,53,53,99,0.6,1,99
"1494",21,"warning_0",1,1,54,54,99,0,1,99
"1495",21,"warning_0",0,0,55,55,99,0,1,99
"1496",21,"warning_0",1,1,56,56,99,0.8,1,99
"1497",21,"warning_0",0,0,57,57,99,0.8,1,99
"1498",21,"warning_0",1,1,58,58,99,0.8,1,99
"1499",21,"warning_0",0,0,59,59,99,0.4,1,99
"1500",21,"warning_0",1,1,60,60,99,0.8,1,99
"1501",21,"warning_0",0,0,61,61,99,0.8,1,99
"1502",21,"warning_0",1,1,62,62,99,0.2,1,99
"1503",21,"warning_0",0,0,63,63,99,1,1,99
"1504",21,"warning_0",1,1,64,64,99,0.4,1,99
"1505",21,"warning_0",0,0,65,65,99,1,1,99
"1506",21,"warning_0",1,1,66,66,99,1,1,99
"1507",21,"warning_0",0,0,67,67,99,0.8,1,99
"1508",21,"warning_0",1,1,68,68,99,0.8,1,99
"1509",21,"warning_0",0,0,69,69,99,0.2,1,99
"1510",21,"warning_0",1,1,70,70,99,0.2,1,99
"1511",21,"warning_0",0,0,71,71,99,1,1,99
"1512",21,"warning_0",1,1,72,72,99,1,1,99
"1513",22,"warning_0",0,0,1,1,99,0.4,0,99
"1514",22,"warning_0",1,1,2,2,99,0.8,0,99
"1515",22,"warning_0",0,0,3,3,99,0.4,0,99
"1516",22,"warning_0",1,1,4,4,99,0.4,0,99
"1517",22,"warning_0",0,0,5,5,99,0.8,0,99
"1518",22,"warning_0",1,1,6,6,99,1,0,99
"1519",22,"warning_0",0,0,7,7,99,0.6,0,99
"1520",22,"warning_0",1,1,8,8,99,0.6,0,99
"1521",22,"warning_0",0,0,9,9,99,0.6,0,99
"1522",22,"warning_0",1,1,10,10,99,0.6,0,99
"1523",22,"warning_0",0,0,11,11,99,0.4,0,99
"1524",22,"warning_0",1,1,12,12,99,0.6,0,99
"1525",22,"warning_0",0,0,13,13,99,0.6,0,99
"1526",22,"warning_0",1,1,14,14,99,0.6,0,99
"1527",22,"warning_0",0,0,15,15,99,0.6,0,99
"1528",22,"warning_0",1,1,16,16,99,0.2,0,99
"1529",22,"warning_0",0,0,17,17,99,1,0,99
"1530",22,"warning_0",1,1,18,18,99,1,0,99
"1531",22,"warning_0",0,0,19,19,99,0.4,0,99
"1532",22,"warning_0",1,1,20,20,99,0.6,0,99
"1533",22,"warning_0",0,0,21,21,99,0.2,0,99
"1534",22,"warning_0",1,1,22,22,99,0.4,0,99
"1535",22,"warning_0",0,0,23,23,99,0.8,0,99
"1536",22,"warning_0",1,1,24,24,99,0.8,0,99
"1537",22,"warning_0",0,0,25,25,99,0.4,0,99
"1538",22,"warning_0",1,1,26,26,99,0.8,0,99
"1539",22,"warning_0",0,0,27,27,99,0.4,0,99
"1540",22,"warning_0",1,1,28,28,99,0.4,0,99
"1541",22,"warning_0",0,0,29,29,99,0.4,0,99
"1542",22,"warning_0",1,1,30,30,99,0.4,0,99
"1543",22,"warning_0",0,0,31,31,99,0.2,0,99
"1544",22,"warning_0",1,1,32,32,99,1,0,99
"1545",22,"warning_0",0,0,33,33,99,0.4,0,99
"1546",22,"warning_0",1,1,34,34,99,0.4,0,99
"1547",22,"warning_0",0,0,35,35,99,0.4,0,99
"1548",22,"warning_0",1,1,36,36,99,1,0,99
"1549",22,"warning_0",0,0,37,37,99,0.4,1,99
"1550",22,"warning_0",1,1,38,38,99,0.4,1,99
"1551",22,"warning_0",0,0,39,39,99,1,1,99
"1552",22,"warning_0",1,1,40,40,99,0.4,1,99
"1553",22,"warning_0",0,0,41,41,99,0.2,1,99
"1554",22,"warning_0",1,1,42,42,99,0.8,1,99
"1555",22,"warning_0",0,0,43,43,99,0.4,1,99
"1556",22,"warning_0",1,1,44,44,99,1,1,99
"1557",22,"warning_0",0,0,45,45,99,1,1,99
"1558",22,"warning_0",1,1,46,46,99,1,1,99
"1559",22,"warning_0",0,0,47,47,99,1,1,99
"1560",22,"warning_0",1,1,48,48,99,0.4,1,99
"1561",22,"warning_0",0,0,49,49,99,1,1,99
"1562",22,"warning_0",1,1,50,50,99,0.4,1,99
"1563",22,"warning_0",0,0,51,51,99,0.6,1,99
"1564",22,"warning_0",1,1,52,52,99,1,1,99
"1565",22,"warning_0",0,0,53,53,99,1,1,99
"1566",22,"warning_0",1,1,54,54,99,0.4,1,99
"1567",22,"warning_0",0,0,55,55,99,0.6,1,99
"1568",22,"warning_0",1,1,56,56,99,0.6,1,99
"1569",22,"warning_0",0,0,57,57,99,0.4,1,99
"1570",22,"warning_0",1,1,58,58,99,0.2,1,99
"1571",22,"warning_0",0,0,59,59,99,0.6,1,99
"1572",22,"warning_0",1,1,60,60,99,0.4,1,99
"1573",22,"warning_0",0,0,61,61,99,1,1,99
"1574",22,"warning_0",1,1,62,62,99,1,1,99
"1575",22,"warning_0",0,0,63,63,99,1,1,99
"1576",22,"warning_0",1,1,64,64,99,0.4,1,99
"1577",22,"warning_0",0,0,65,65,99,0.6,1,99
"1578",22,"warning_0",1,1,66,66,99,1,1,99
"1579",22,"warning_0",0,0,67,67,99,0.4,1,99
"1580",22,"warning_0",1,1,68,68,99,0.2,1,99
"1581",22,"warning_0",0,0,69,69,99,0.4,1,99
"1582",22,"warning_0",1,1,70,70,99,0.4,1,99
"1583",22,"warning_0",0,0,71,71,99,1,1,99
"1584",22,"warning_0",1,1,72,72,99,0.2,1,99
"1585",23,"warning_0",0,0,1,1,99,0.4,0,99
"1586",23,"warning_0",1,1,2,2,99,0.2,0,99
"1587",23,"warning_0",0,0,3,3,99,0.4,0,99
"1588",23,"warning_0",1,1,4,4,99,0.8,0,99
"1589",23,"warning_0",0,0,5,5,99,0.6,0,99
"1590",23,"warning_0",1,1,6,6,99,0.8,0,99
"1591",23,"warning_0",0,0,7,7,99,0.2,0,99
"1592",23,"warning_0",1,1,8,8,99,0.6,0,99
"1593",23,"warning_0",0,0,9,9,99,0.2,0,99
"1594",23,"warning_0",1,1,10,10,99,0.2,0,99
"1595",23,"warning_0",0,0,11,11,99,0.6,0,99
"1596",23,"warning_0",1,1,12,12,99,0.8,0,99
"1597",23,"warning_0",0,0,13,13,99,0.4,0,99
"1598",23,"warning_0",1,1,14,14,99,1,0,99
"1599",23,"warning_0",0,0,15,15,99,0.4,0,99
"1600",23,"warning_0",1,1,16,16,99,0.2,0,99
"1601",23,"warning_0",0,0,17,17,99,0.6,0,99
"1602",23,"warning_0",1,1,18,18,99,0.2,0,99
"1603",23,"warning_0",0,0,19,19,99,0.6,0,99
"1604",23,"warning_0",1,1,20,20,99,0.6,0,99
"1605",23,"warning_0",0,0,21,21,99,0.8,0,99
"1606",23,"warning_0",1,1,22,22,99,0.4,0,99
"1607",23,"warning_0",0,0,23,23,99,0.6,0,99
"1608",23,"warning_0",1,1,24,24,99,0,0,99
"1609",23,"warning_0",0,0,25,25,99,0.8,0,99
"1610",23,"warning_0",1,1,26,26,99,0.6,0,99
"1611",23,"warning_0",0,0,27,27,99,0.6,0,99
"1612",23,"warning_0",1,1,28,28,99,0.4,0,99
"1613",23,"warning_0",0,0,29,29,99,0.6,0,99
"1614",23,"warning_0",1,1,30,30,99,0.4,0,99
"1615",23,"warning_0",0,0,31,31,99,0.2,0,99
"1616",23,"warning_0",1,1,32,32,99,0.4,0,99
"1617",23,"warning_0",0,0,33,33,99,0.4,0,99
"1618",23,"warning_0",1,1,34,34,99,0.4,0,99
"1619",23,"warning_0",0,0,35,35,99,0.6,0,99
"1620",23,"warning_0",1,1,36,36,99,0.8,0,99
"1621",23,"warning_0",0,0,37,37,99,0.6,1,99
"1622",23,"warning_0",1,1,38,38,99,1,1,99
"1623",23,"warning_0",0,0,39,39,99,1,1,99
"1624",23,"warning_0",1,1,40,40,99,0.8,1,99
"1625",23,"warning_0",0,0,41,41,99,1,1,99
"1626",23,"warning_0",1,1,42,42,99,0.8,1,99
"1627",23,"warning_0",0,0,43,43,99,1,1,99
"1628",23,"warning_0",1,1,44,44,99,1,1,99
"1629",23,"warning_0",0,0,45,45,99,0,1,99
"1630",23,"warning_0",1,1,46,46,99,0.4,1,99
"1631",23,"warning_0",0,0,47,47,99,0.4,1,99
"1632",23,"warning_0",1,1,48,48,99,1,1,99
"1633",23,"warning_0",0,0,49,49,99,0.6,1,99
"1634",23,"warning_0",1,1,50,50,99,0.8,1,99
"1635",23,"warning_0",0,0,51,51,99,0.8,1,99
"1636",23,"warning_0",1,1,52,52,99,0.8,1,99
"1637",23,"warning_0",0,0,53,53,99,0.6,1,99
"1638",23,"warning_0",1,1,54,54,99,1,1,99
"1639",23,"warning_0",0,0,55,55,99,0.4,1,99
"1640",23,"warning_0",1,1,56,56,99,0.4,1,99
"1641",23,"warning_0",0,0,57,57,99,0.8,1,99
"1642",23,"warning_0",1,1,58,58,99,0.4,1,99
"1643",23,"warning_0",0,0,59,59,99,0.6,1,99
"1644",23,"warning_0",1,1,60,60,99,0.4,1,99
"1645",23,"warning_0",0,0,61,61,99,0.8,1,99
"1646",23,"warning_0",1,1,62,62,99,1,1,99
"1647",23,"warning_0",0,0,63,63,99,0.8,1,99
"1648",23,"warning_0",1,1,64,64,99,0.6,1,99
"1649",23,"warning_0",0,0,65,65,99,0.6,1,99
"1650",23,"warning_0",1,1,66,66,99,0.4,1,99
"1651",23,"warning_0",0,0,67,67,99,0.4,1,99
"1652",23,"warning_0",1,1,68,68,99,0.2,1,99
"1653",23,"warning_0",0,0,69,69,99,0.2,1,99
"1654",23,"warning_0",1,1,70,70,99,1,1,99
"1655",23,"warning_0",0,0,71,71,99,1,1,99
"1656",23,"warning_0",1,1,72,72,99,0,1,99
"1657",24,"warning_0",0,0,1,1,99,0.4,0,99
"1658",24,"warning_0",1,1,2,2,99,0.2,0,99
"1659",24,"warning_0",0,0,3,3,99,0.8,0,99
"1660",24,"warning_0",1,1,4,4,99,0.2,0,99
"1661",24,"warning_0",0,0,5,5,99,0.2,0,99
"1662",24,"warning_0",1,1,6,6,99,0.8,0,99
"1663",24,"warning_0",0,0,7,7,99,0.4,0,99
"1664",24,"warning_0",1,1,8,8,99,0.8,0,99
"1665",24,"warning_0",0,0,9,9,99,0.2,0,99
"1666",24,"warning_0",1,1,10,10,99,0.6,0,99
"1667",24,"warning_0",0,0,11,11,99,0,0,99
"1668",24,"warning_0",1,1,12,12,99,0.8,0,99
"1669",24,"warning_0",0,0,13,13,99,0.4,0,99
"1670",24,"warning_0",1,1,14,14,99,0.4,0,99
"1671",24,"warning_0",0,0,15,15,99,0,0,99
"1672",24,"warning_0",1,1,16,16,99,0.6,0,99
"1673",24,"warning_0",0,0,17,17,99,0.2,0,99
"1674",24,"warning_0",1,1,18,18,99,0.2,0,99
"1675",24,"warning_0",0,0,19,19,99,0.4,0,99
"1676",24,"warning_0",1,1,20,20,99,0.6,0,99
"1677",24,"warning_0",0,0,21,21,99,0.4,0,99
"1678",24,"warning_0",1,1,22,22,99,0.4,0,99
"1679",24,"warning_0",0,0,23,23,99,0.2,0,99
"1680",24,"warning_0",1,1,24,24,99,0.6,0,99
"1681",24,"warning_0",0,0,25,25,99,0.4,0,99
"1682",24,"warning_0",1,1,26,26,99,0.8,0,99
"1683",24,"warning_0",0,0,27,27,99,0.8,0,99
"1684",24,"warning_0",1,1,28,28,99,0.8,0,99
"1685",24,"warning_0",0,0,29,29,99,0.8,0,99
"1686",24,"warning_0",1,1,30,30,99,0.6,0,99
"1687",24,"warning_0",0,0,31,31,99,0.6,0,99
"1688",24,"warning_0",1,1,32,32,99,0,0,99
"1689",24,"warning_0",0,0,33,33,99,0.2,0,99
"1690",24,"warning_0",1,1,34,34,99,0.8,0,99
"1691",24,"warning_0",0,0,35,35,99,0.8,0,99
"1692",24,"warning_0",1,1,36,36,99,0.4,0,99
"1693",24,"warning_0",0,0,37,37,99,0.4,1,99
"1694",24,"warning_0",1,1,38,38,99,0.2,1,99
"1695",24,"warning_0",0,0,39,39,99,0.2,1,99
"1696",24,"warning_0",1,1,40,40,99,0.4,1,99
"1697",24,"warning_0",0,0,41,41,99,0.8,1,99
"1698",24,"warning_0",1,1,42,42,99,0.4,1,99
"1699",24,"warning_0",0,0,43,43,99,0.6,1,99
"1700",24,"warning_0",1,1,44,44,99,0.4,1,99
"1701",24,"warning_0",0,0,45,45,99,0.4,1,99
"1702",24,"warning_0",1,1,46,46,99,0.6,1,99
"1703",24,"warning_0",0,0,47,47,99,0.6,1,99
"1704",24,"warning_0",1,1,48,48,99,0.4,1,99
"1705",24,"warning_0",0,0,49,49,99,0.8,1,99
"1706",24,"warning_0",1,1,50,50,99,0.2,1,99
"1707",24,"warning_0",0,0,51,51,99,0,1,99
"1708",24,"warning_0",1,1,52,52,99,0.4,1,99
"1709",24,"warning_0",0,0,53,53,99,0.6,1,99
"1710",24,"warning_0",1,1,54,54,99,0.4,1,99
"1711",24,"warning_0",0,0,55,55,99,0,1,99
"1712",24,"warning_0",1,1,56,56,99,0.6,1,99
"1713",24,"warning_0",0,0,57,57,99,0.6,1,99
"1714",24,"warning_0",1,1,58,58,99,0.8,1,99
"1715",24,"warning_0",0,0,59,59,99,0.2,1,99
"1716",24,"warning_0",1,1,60,60,99,0.6,1,99
"1717",24,"warning_0",0,0,61,61,99,0.6,1,99
"1718",24,"warning_0",1,1,62,62,99,0.2,1,99
"1719",24,"warning_0",0,0,63,63,99,0.2,1,99
"1720",24,"warning_0",1,1,64,64,99,0.4,1,99
"1721",24,"warning_0",0,0,65,65,99,0.2,1,99
"1722",24,"warning_0",1,1,66,66,99,0.2,1,99
"1723",24,"warning_0",0,0,67,67,99,0.4,1,99
"1724",24,"warning_0",1,1,68,68,99,0.6,1,99
"1725",24,"warning_0",0,0,69,69,99,0.4,1,99
"1726",24,"warning_0",1,1,70,70,99,0.4,1,99
"1727",24,"warning_0",0,0,71,71,99,0.8,1,99
"1728",24,"warning_0",1,1,72,72,99,0.6,1,99
"1729",25,"warning_1",0,0,1,1,99,0.4,0,99
"1730",25,"warning_1",1,1,2,2,99,0.2,0,99
"1731",25,"warning_1",0,0,3,3,99,0.4,0,99
"1732",25,"warning_1",1,1,4,4,99,0.4,0,99
"1733",25,"warning_1",0,0,5,5,99,0.4,0,99
"1734",25,"warning_1",1,1,6,6,99,0.4,0,99
"1735",25,"warning_1",0,0,7,7,99,0.4,0,99
"1736",25,"warning_1",1,1,8,8,99,0.4,0,99
"1737",25,"warning_1",0,0,9,9,99,0.2,0,99
"1738",25,"warning_1",1,1,10,10,99,0.4,0,99
"1739",25,"warning_1",0,0,11,11,99,0.4,0,99
"1740",25,"warning_1",1,1,12,12,99,0.6,0,99
"1741",25,"warning_1",0,0,13,13,99,0.4,0,99
"1742",25,"warning_1",1,1,14,14,99,0.6,0,99
"1743",25,"warning_1",0,0,15,15,99,0.8,0,99
"1744",25,"warning_1",1,1,16,16,99,0.4,0,99
"1745",25,"warning_1",0,0,17,17,99,0.6,0,99
"1746",25,"warning_1",1,1,18,18,99,1,0,99
"1747",25,"warning_1",0,0,19,19,99,0.4,0,99
"1748",25,"warning_1",1,1,20,20,99,0.8,0,99
"1749",25,"warning_1",0,0,21,21,99,0.8,0,99
"1750",25,"warning_1",1,1,22,22,99,0.4,0,99
"1751",25,"warning_1",0,0,23,23,99,0.6,0,99
"1752",25,"warning_1",1,1,24,24,99,0.6,0,99
"1753",25,"warning_1",0,0,25,25,99,0.4,0,99
"1754",25,"warning_1",1,1,26,26,99,0.4,0,99
"1755",25,"warning_1",0,0,27,27,99,0.6,0,99
"1756",25,"warning_1",1,1,28,28,99,0.6,0,99
"1757",25,"warning_1",0,0,29,29,99,0.4,0,99
"1758",25,"warning_1",1,1,30,30,99,0.4,0,99
"1759",25,"warning_1",0,0,31,31,99,0.8,0,99
"1760",25,"warning_1",1,1,32,32,99,0.6,0,99
"1761",25,"warning_1",0,0,33,33,99,0.6,0,99
"1762",25,"warning_1",1,1,34,34,99,0.6,0,99
"1763",25,"warning_1",0,0,35,35,99,0.4,0,99
"1764",25,"warning_1",1,1,36,36,99,0.8,0,99
"1765",25,"warning_1",0,0,37,37,99,0.4,1,99
"1766",25,"warning_1",1,1,38,38,99,0,1,99
"1767",25,"warning_1",0,0,39,39,99,0.2,1,99
"1768",25,"warning_1",1,1,40,40,99,0.2,1,99
"1769",25,"warning_1",0,0,41,41,99,0.2,1,99
"1770",25,"warning_1",1,1,42,42,99,0.6,1,99
"1771",25,"warning_1",0,0,43,43,99,0,1,99
"1772",25,"warning_1",1,1,44,44,99,0.6,1,99
"1773",25,"warning_1",0,0,45,45,99,0.4,1,99
"1774",25,"warning_1",1,1,46,46,99,0.6,1,99
"1775",25,"warning_1",0,0,47,47,99,0.4,1,99
"1776",25,"warning_1",1,1,48,48,99,0.2,1,99
"1777",25,"warning_1",0,0,49,49,99,0.6,1,99
"1778",25,"warning_1",1,1,50,50,99,0.6,1,99
"1779",25,"warning_1",0,0,51,51,99,0.4,1,99
"1780",25,"warning_1",1,1,52,52,99,0.6,1,99
"1781",25,"warning_1",0,0,53,53,99,0.8,1,99
"1782",25,"warning_1",1,1,54,54,99,0.6,1,99
"1783",25,"warning_1",0,0,55,55,99,0.6,1,99
"1784",25,"warning_1",1,1,56,56,99,0.6,1,99
"1785",25,"warning_1",0,0,57,57,99,0.8,1,99
"1786",25,"warning_1",1,1,58,58,99,0.4,1,99
"1787",25,"warning_1",0,0,59,59,99,0.8,1,99
"1788",25,"warning_1",1,1,60,60,99,0.2,1,99
"1789",25,"warning_1",0,0,61,61,99,0.8,1,99
"1790",25,"warning_1",1,1,62,62,99,0.6,1,99
"1791",25,"warning_1",0,0,63,63,99,0.4,1,99
"1792",25,"warning_1",1,1,64,64,99,0.4,1,99
"1793",25,"warning_1",0,0,65,65,99,0.4,1,99
"1794",25,"warning_1",1,1,66,66,99,0.6,1,99
"1795",25,"warning_1",0,0,67,67,99,0.2,1,99
"1796",25,"warning_1",1,1,68,68,99,0.6,1,99
"1797",25,"warning_1",0,0,69,69,99,1,1,99
"1798",25,"warning_1",1,1,70,70,99,0.6,1,99
"1799",25,"warning_1",0,0,71,71,99,1,1,99
"1800",25,"warning_1",1,1,72,72,99,0.6,1,99
"1801",26,"warning_1",0,0,1,1,99,0.4,0,99
"1802",26,"warning_1",1,1,2,2,99,0,0,99
"1803",26,"warning_1",0,0,3,3,99,0.4,0,99
"1804",26,"warning_1",1,1,4,4,99,0.4,0,99
"1805",26,"warning_1",0,0,5,5,99,0.4,0,99
"1806",26,"warning_1",1,1,6,6,99,0.4,0,99
"1807",26,"warning_1",0,0,7,7,99,0.6,0,99
"1808",26,"warning_1",1,1,8,8,99,0.6,0,99
"1809",26,"warning_1",0,0,9,9,99,0.6,0,99
"1810",26,"warning_1",1,1,10,10,99,0.8,0,99
"1811",26,"warning_1",0,0,11,11,99,0.6,0,99
"1812",26,"warning_1",1,1,12,12,99,0.4,0,99
"1813",26,"warning_1",0,0,13,13,99,0.2,0,99
"1814",26,"warning_1",1,1,14,14,99,0.6,0,99
"1815",26,"warning_1",0,0,15,15,99,0.6,0,99
"1816",26,"warning_1",1,1,16,16,99,0.6,0,99
"1817",26,"warning_1",0,0,17,17,99,0.6,0,99
"1818",26,"warning_1",1,1,18,18,99,0,0,99
"1819",26,"warning_1",0,0,19,19,99,0.4,0,99
"1820",26,"warning_1",1,1,20,20,99,0.4,0,99
"1821",26,"warning_1",0,0,21,21,99,0.6,0,99
"1822",26,"warning_1",1,1,22,22,99,0.4,0,99
"1823",26,"warning_1",0,0,23,23,99,0.4,0,99
"1824",26,"warning_1",1,1,24,24,99,0.2,0,99
"1825",26,"warning_1",0,0,25,25,99,0.6,0,99
"1826",26,"warning_1",1,1,26,26,99,0,0,99
"1827",26,"warning_1",0,0,27,27,99,0.4,0,99
"1828",26,"warning_1",1,1,28,28,99,0,0,99
"1829",26,"warning_1",0,0,29,29,99,0.2,0,99
"1830",26,"warning_1",1,1,30,30,99,0.8,0,99
"1831",26,"warning_1",0,0,31,31,99,0.8,0,99
"1832",26,"warning_1",1,1,32,32,99,0.2,0,99
"1833",26,"warning_1",0,0,33,33,99,0.6,0,99
"1834",26,"warning_1",1,1,34,34,99,0.4,0,99
"1835",26,"warning_1",0,0,35,35,99,0.6,0,99
"1836",26,"warning_1",1,1,36,36,99,0.8,0,99
"1837",26,"warning_1",0,0,37,37,99,0.6,1,99
"1838",26,"warning_1",1,1,38,38,99,0.6,1,99
"1839",26,"warning_1",0,0,39,39,99,0.8,1,99
"1840",26,"warning_1",1,1,40,40,99,0.8,1,99
"1841",26,"warning_1",0,0,41,41,99,0.8,1,99
"1842",26,"warning_1",1,1,42,42,99,0.6,1,99
"1843",26,"warning_1",0,0,43,43,99,0.6,1,99
"1844",26,"warning_1",1,1,44,44,99,0.6,1,99
"1845",26,"warning_1",0,0,45,45,99,0.4,1,99
"1846",26,"warning_1",1,1,46,46,99,0.4,1,99
"1847",26,"warning_1",0,0,47,47,99,0,1,99
"1848",26,"warning_1",1,1,48,48,99,1,1,99
"1849",26,"warning_1",0,0,49,49,99,0.4,1,99
"1850",26,"warning_1",1,1,50,50,99,0.4,1,99
"1851",26,"warning_1",0,0,51,51,99,0.2,1,99
"1852",26,"warning_1",1,1,52,52,99,0.6,1,99
"1853",26,"warning_1",0,0,53,53,99,0.6,1,99
"1854",26,"warning_1",1,1,54,54,99,0.4,1,99
"1855",26,"warning_1",0,0,55,55,99,0.4,1,99
"1856",26,"warning_1",1,1,56,56,99,0.8,1,99
"1857",26,"warning_1",0,0,57,57,99,0.6,1,99
"1858",26,"warning_1",1,1,58,58,99,0.4,1,99
"1859",26,"warning_1",0,0,59,59,99,0.2,1,99
"1860",26,"warning_1",1,1,60,60,99,0.6,1,99
"1861",26,"warning_1",0,0,61,61,99,0,1,99
"1862",26,"warning_1",1,1,62,62,99,0.6,1,99
"1863",26,"warning_1",0,0,63,63,99,0.4,1,99
"1864",26,"warning_1",1,1,64,64,99,0.8,1,99
"1865",26,"warning_1",0,0,65,65,99,0.4,1,99
"1866",26,"warning_1",1,1,66,66,99,0.6,1,99
"1867",26,"warning_1",0,0,67,67,99,0.6,1,99
"1868",26,"warning_1",1,1,68,68,99,0.6,1,99
"1869",26,"warning_1",0,0,69,69,99,0.6,1,99
"1870",26,"warning_1",1,1,70,70,99,0.2,1,99
"1871",26,"warning_1",0,0,71,71,99,1,1,99
"1872",26,"warning_1",1,1,72,72,99,0.4,1,99
"1873",27,"warning_0",0,0,1,1,99,0.8,0,99
"1874",27,"warning_0",1,1,2,2,99,0.8,0,99
"1875",27,"warning_0",0,0,3,3,99,0,0,99
"1876",27,"warning_0",1,1,4,4,99,1,0,99
"1877",27,"warning_0",0,0,5,5,99,1,0,99
"1878",27,"warning_0",1,1,6,6,99,0.2,0,99
"1879",27,"warning_0",0,0,7,7,99,0.6,0,99
"1880",27,"warning_0",1,1,8,8,99,0.8,0,99
"1881",27,"warning_0",0,0,9,9,99,0.4,0,99
"1882",27,"warning_0",1,1,10,10,99,0.2,0,99
"1883",27,"warning_0",0,0,11,11,99,0.2,0,99
"1884",27,"warning_0",1,1,12,12,99,0.2,0,99
"1885",27,"warning_0",0,0,13,13,99,0.2,0,99
"1886",27,"warning_0",1,1,14,14,99,0.2,0,99
"1887",27,"warning_0",0,0,15,15,99,0.6,0,99
"1888",27,"warning_0",1,1,16,16,99,0,0,99
"1889",27,"warning_0",0,0,17,17,99,0.6,0,99
"1890",27,"warning_0",1,1,18,18,99,1,0,99
"1891",27,"warning_0",0,0,19,19,99,0.8,0,99
"1892",27,"warning_0",1,1,20,20,99,0.6,0,99
"1893",27,"warning_0",0,0,21,21,99,0.4,0,99
"1894",27,"warning_0",1,1,22,22,99,0.6,0,99
"1895",27,"warning_0",0,0,23,23,99,0.4,0,99
"1896",27,"warning_0",1,1,24,24,99,0,0,99
"1897",27,"warning_0",0,0,25,25,99,0.8,0,99
"1898",27,"warning_0",1,1,26,26,99,0.8,0,99
"1899",27,"warning_0",0,0,27,27,99,0.8,0,99
"1900",27,"warning_0",1,1,28,28,99,0.8,0,99
"1901",27,"warning_0",0,0,29,29,99,0.6,0,99
"1902",27,"warning_0",1,1,30,30,99,0.4,0,99
"1903",27,"warning_0",0,0,31,31,99,1,0,99
"1904",27,"warning_0",1,1,32,32,99,0.2,0,99
"1905",27,"warning_0",0,0,33,33,99,0.6,0,99
"1906",27,"warning_0",1,1,34,34,99,0.4,0,99
"1907",27,"warning_0",0,0,35,35,99,0.8,0,99
"1908",27,"warning_0",1,1,36,36,99,0,0,99
"1909",27,"warning_0",0,0,37,37,99,0.4,1,99
"1910",27,"warning_0",1,1,38,38,99,1,1,99
"1911",27,"warning_0",0,0,39,39,99,0.8,1,99
"1912",27,"warning_0",1,1,40,40,99,0.8,1,99
"1913",27,"warning_0",0,0,41,41,99,0.2,1,99
"1914",27,"warning_0",1,1,42,42,99,1,1,99
"1915",27,"warning_0",0,0,43,43,99,0.8,1,99
"1916",27,"warning_0",1,1,44,44,99,0.6,1,99
"1917",27,"warning_0",0,0,45,45,99,1,1,99
"1918",27,"warning_0",1,1,46,46,99,1,1,99
"1919",27,"warning_0",0,0,47,47,99,1,1,99
"1920",27,"warning_0",1,1,48,48,99,1,1,99
"1921",27,"warning_0",0,0,49,49,99,1,1,99
"1922",27,"warning_0",1,1,50,50,99,1,1,99
"1923",27,"warning_0",0,0,51,51,99,1,1,99
"1924",27,"warning_0",1,1,52,52,99,1,1,99
"1925",27,"warning_0",0,0,53,53,99,0.8,1,99
"1926",27,"warning_0",1,1,54,54,99,0.8,1,99
"1927",27,"warning_0",0,0,55,55,99,0.2,1,99
"1928",27,"warning_0",1,1,56,56,99,0.6,1,99
"1929",27,"warning_0",0,0,57,57,99,1,1,99
"1930",27,"warning_0",1,1,58,58,99,1,1,99
"1931",27,"warning_0",0,0,59,59,99,0.6,1,99
"1932",27,"warning_0",1,1,60,60,99,1,1,99
"1933",27,"warning_0",0,0,61,61,99,1,1,99
"1934",27,"warning_0",1,1,62,62,99,1,1,99
"1935",27,"warning_0",0,0,63,63,99,0.8,1,99
"1936",27,"warning_0",1,1,64,64,99,0.4,1,99
"1937",27,"warning_0",0,0,65,65,99,0.8,1,99
"1938",27,"warning_0",1,1,66,66,99,0.6,1,99
"1939",27,"warning_0",0,0,67,67,99,1,1,99
"1940",27,"warning_0",1,1,68,68,99,0.8,1,99
"1941",27,"warning_0",0,0,69,69,99,1,1,99
"1942",27,"warning_0",1,1,70,70,99,0.8,1,99
"1943",27,"warning_0",0,0,71,71,99,1,1,99
"1944",27,"warning_0",1,1,72,72,99,0.8,1,99
"1945",28,"warning_1",0,0,1,1,99,0.6,0,99
"1946",28,"warning_1",1,1,2,2,99,0.8,0,99
"1947",28,"warning_1",0,0,3,3,99,1,0,99
"1948",28,"warning_1",1,1,4,4,99,0.8,0,99
"1949",28,"warning_1",0,0,5,5,99,0.8,0,99
"1950",28,"warning_1",1,1,6,6,99,0.6,0,99
"1951",28,"warning_1",0,0,7,7,99,0.4,0,99
"1952",28,"warning_1",1,1,8,8,99,0.4,0,99
"1953",28,"warning_1",0,0,9,9,99,0,0,99
"1954",28,"warning_1",1,1,10,10,99,0.6,0,99
"1955",28,"warning_1",0,0,11,11,99,0.4,0,99
"1956",28,"warning_1",1,1,12,12,99,1,0,99
"1957",28,"warning_1",0,0,13,13,99,0.6,0,99
"1958",28,"warning_1",1,1,14,14,99,0.4,0,99
"1959",28,"warning_1",0,0,15,15,99,0,0,99
"1960",28,"warning_1",1,1,16,16,99,1,0,99
"1961",28,"warning_1",0,0,17,17,99,0.6,0,99
"1962",28,"warning_1",1,1,18,18,99,1,0,99
"1963",28,"warning_1",0,0,19,19,99,1,0,99
"1964",28,"warning_1",1,1,20,20,99,0.2,0,99
"1965",28,"warning_1",0,0,21,21,99,0.2,0,99
"1966",28,"warning_1",1,1,22,22,99,0.4,0,99
"1967",28,"warning_1",0,0,23,23,99,0.4,0,99
"1968",28,"warning_1",1,1,24,24,99,0,0,99
"1969",28,"warning_1",0,0,25,25,99,0,0,99
"1970",28,"warning_1",1,1,26,26,99,0.2,0,99
"1971",28,"warning_1",0,0,27,27,99,0.2,0,99
"1972",28,"warning_1",1,1,28,28,99,0.2,0,99
"1973",28,"warning_1",0,0,29,29,99,1,0,99
"1974",28,"warning_1",1,1,30,30,99,0,0,99
"1975",28,"warning_1",0,0,31,31,99,1,0,99
"1976",28,"warning_1",1,1,32,32,99,0.2,0,99
"1977",28,"warning_1",0,0,33,33,99,0.8,0,99
"1978",28,"warning_1",1,1,34,34,99,0,0,99
"1979",28,"warning_1",0,0,35,35,99,1,0,99
"1980",28,"warning_1",1,1,36,36,99,0,0,99
"1981",28,"warning_1",0,0,37,37,99,0.8,1,99
"1982",28,"warning_1",1,1,38,38,99,0.2,1,99
"1983",28,"warning_1",0,0,39,39,99,0,1,99
"1984",28,"warning_1",1,1,40,40,99,0.2,1,99
"1985",28,"warning_1",0,0,41,41,99,0.8,1,99
"1986",28,"warning_1",1,1,42,42,99,0.8,1,99
"1987",28,"warning_1",0,0,43,43,99,0.6,1,99
"1988",28,"warning_1",1,1,44,44,99,0.2,1,99
"1989",28,"warning_1",0,0,45,45,99,0.4,1,99
"1990",28,"warning_1",1,1,46,46,99,0.8,1,99
"1991",28,"warning_1",0,0,47,47,99,1,1,99
"1992",28,"warning_1",1,1,48,48,99,0.4,1,99
"1993",28,"warning_1",0,0,49,49,99,1,1,99
"1994",28,"warning_1",1,1,50,50,99,0.8,1,99
"1995",28,"warning_1",0,0,51,51,99,1,1,99
"1996",28,"warning_1",1,1,52,52,99,1,1,99
"1997",28,"warning_1",0,0,53,53,99,1,1,99
"1998",28,"warning_1",1,1,54,54,99,0.8,1,99
"1999",28,"warning_1",0,0,55,55,99,1,1,99
"2000",28,"warning_1",1,1,56,56,99,0,1,99
"2001",28,"warning_1",0,0,57,57,99,1,1,99
"2002",28,"warning_1",1,1,58,58,99,0.8,1,99
"2003",28,"warning_1",0,0,59,59,99,0.4,1,99
"2004",28,"warning_1",1,1,60,60,99,0.6,1,99
"2005",28,"warning_1",0,0,61,61,99,0,1,99
"2006",28,"warning_1",1,1,62,62,99,0.2,1,99
"2007",28,"warning_1",0,0,63,63,99,0.4,1,99
"2008",28,"warning_1",1,1,64,64,99,0.8,1,99
"2009",28,"warning_1",0,0,65,65,99,1,1,99
"2010",28,"warning_1",1,1,66,66,99,1,1,99
"2011",28,"warning_1",0,0,67,67,99,0.8,1,99
"2012",28,"warning_1",1,1,68,68,99,0,1,99
"2013",28,"warning_1",0,0,69,69,99,1,1,99
"2014",28,"warning_1",1,1,70,70,99,0.6,1,99
"2015",28,"warning_1",0,0,71,71,99,0.8,1,99
"2016",28,"warning_1",1,1,72,72,99,0.4,1,99
"2017",29,"warning_1",0,0,1,1,99,0.4,1,99
"2018",29,"warning_1",1,1,2,2,99,0.4,1,99
"2019",29,"warning_1",0,0,3,3,99,1,1,99
"2020",29,"warning_1",1,1,4,4,99,0.4,1,99
"2021",29,"warning_1",0,0,5,5,99,0.6,1,99
"2022",29,"warning_1",1,1,6,6,99,0.6,1,99
"2023",29,"warning_1",0,0,7,7,99,0.4,1,99
"2024",29,"warning_1",1,1,8,8,99,0.4,1,99
"2025",29,"warning_1",0,0,9,9,99,0.4,1,99
"2026",29,"warning_1",1,1,10,10,99,0.6,1,99
"2027",29,"warning_1",0,0,11,11,99,0.8,1,99
"2028",29,"warning_1",1,1,12,12,99,0.8,1,99
"2029",29,"warning_1",0,0,13,13,99,0.4,1,99
"2030",29,"warning_1",1,1,14,14,99,0.6,1,99
"2031",29,"warning_1",0,0,15,15,99,0.8,1,99
"2032",29,"warning_1",1,1,16,16,99,0.6,1,99
"2033",29,"warning_1",0,0,17,17,99,0.4,1,99
"2034",29,"warning_1",1,1,18,18,99,0.6,1,99
"2035",29,"warning_1",0,0,19,19,99,0.6,1,99
"2036",29,"warning_1",1,1,20,20,99,0.6,1,99
"2037",29,"warning_1",0,0,21,21,99,0.4,1,99
"2038",29,"warning_1",1,1,22,22,99,0.6,1,99
"2039",29,"warning_1",0,0,23,23,99,0.6,1,99
"2040",29,"warning_1",1,1,24,24,99,0.8,1,99
"2041",29,"warning_1",0,0,25,25,99,0.6,1,99
"2042",29,"warning_1",1,1,26,26,99,0.4,1,99
"2043",29,"warning_1",0,0,27,27,99,0.2,1,99
"2044",29,"warning_1",1,1,28,28,99,0.2,1,99
"2045",29,"warning_1",0,0,29,29,99,0.6,1,99
"2046",29,"warning_1",1,1,30,30,99,0.6,1,99
"2047",29,"warning_1",0,0,31,31,99,0.6,1,99
"2048",29,"warning_1",1,1,32,32,99,0.4,1,99
"2049",29,"warning_1",0,0,33,33,99,0.6,1,99
"2050",29,"warning_1",1,1,34,34,99,0.6,1,99
"2051",29,"warning_1",0,0,35,35,99,0.4,1,99
"2052",29,"warning_1",1,1,36,36,99,0.6,1,99
"2053",29,"warning_1",0,0,37,37,99,0.4,0,99
"2054",29,"warning_1",1,1,38,38,99,0.4,0,99
"2055",29,"warning_1",0,0,39,39,99,0.2,0,99
"2056",29,"warning_1",1,1,40,40,99,0.4,0,99
"2057",29,"warning_1",0,0,41,41,99,0.6,0,99
"2058",29,"warning_1",1,1,42,42,99,0.4,0,99
"2059",29,"warning_1",0,0,43,43,99,0.4,0,99
"2060",29,"warning_1",1,1,44,44,99,0.4,0,99
"2061",29,"warning_1",0,0,45,45,99,0.8,0,99
"2062",29,"warning_1",1,1,46,46,99,0.6,0,99
"2063",29,"warning_1",0,0,47,47,99,1,0,99
"2064",29,"warning_1",1,1,48,48,99,0.4,0,99
"2065",29,"warning_1",0,0,49,49,99,0.8,0,99
"2066",29,"warning_1",1,1,50,50,99,0.4,0,99
"2067",29,"warning_1",0,0,51,51,99,0.8,0,99
"2068",29,"warning_1",1,1,52,52,99,0.6,0,99
"2069",29,"warning_1",0,0,53,53,99,0.8,0,99
"2070",29,"warning_1",1,1,54,54,99,0.6,0,99
"2071",29,"warning_1",0,0,55,55,99,0.4,0,99
"2072",29,"warning_1",1,1,56,56,99,0.4,0,99
"2073",29,"warning_1",0,0,57,57,99,0.4,0,99
"2074",29,"warning_1",1,1,58,58,99,0.4,0,99
"2075",29,"warning_1",0,0,59,59,99,0.6,0,99
"2076",29,"warning_1",1,1,60,60,99,0.4,0,99
"2077",29,"warning_1",0,0,61,61,99,0.6,0,99
"2078",29,"warning_1",1,1,62,62,99,0.4,0,99
"2079",29,"warning_1",0,0,63,63,99,0.6,0,99
"2080",29,"warning_1",1,1,64,64,99,0.4,0,99
"2081",29,"warning_1",0,0,65,65,99,0.6,0,99
"2082",29,"warning_1",1,1,66,66,99,0.6,0,99
"2083",29,"warning_1",0,0,67,67,99,0.6,0,99
"2084",29,"warning_1",1,1,68,68,99,0.6,0,99
"2085",29,"warning_1",0,0,69,69,99,0.6,0,99
"2086",29,"warning_1",1,1,70,70,99,0.4,0,99
"2087",29,"warning_1",0,0,71,71,99,0.8,0,99
"2088",29,"warning_1",1,1,72,72,99,0.6,0,99
"2089",30,"warning_0",0,0,1,1,99,0.4,1,99
"2090",30,"warning_0",1,1,2,2,99,0,1,99
"2091",30,"warning_0",0,0,3,3,99,0,1,99
"2092",30,"warning_0",1,1,4,4,99,0.8,1,99
"2093",30,"warning_0",0,0,5,5,99,0.8,1,99
"2094",30,"warning_0",1,1,6,6,99,0.6,1,99
"2095",30,"warning_0",0,0,7,7,99,0.6,1,99
"2096",30,"warning_0",1,1,8,8,99,1,1,99
"2097",30,"warning_0",0,0,9,9,99,0.4,1,99
"2098",30,"warning_0",1,1,10,10,99,0.6,1,99
"2099",30,"warning_0",0,0,11,11,99,0.6,1,99
"2100",30,"warning_0",1,1,12,12,99,0.4,1,99
"2101",30,"warning_0",0,0,13,13,99,0.4,1,99
"2102",30,"warning_0",1,1,14,14,99,1,1,99
"2103",30,"warning_0",0,0,15,15,99,0.6,1,99
"2104",30,"warning_0",1,1,16,16,99,0,1,99
"2105",30,"warning_0",0,0,17,17,99,0.4,1,99
"2106",30,"warning_0",1,1,18,18,99,0,1,99
"2107",30,"warning_0",0,0,19,19,99,0.4,1,99
"2108",30,"warning_0",1,1,20,20,99,0,1,99
"2109",30,"warning_0",0,0,21,21,99,0.6,1,99
"2110",30,"warning_0",1,1,22,22,99,0.6,1,99
"2111",30,"warning_0",0,0,23,23,99,0.8,1,99
"2112",30,"warning_0",1,1,24,24,99,0.6,1,99
"2113",30,"warning_0",0,0,25,25,99,0.4,1,99
"2114",30,"warning_0",1,1,26,26,99,0.6,1,99
"2115",30,"warning_0",0,0,27,27,99,0.8,1,99
"2116",30,"warning_0",1,1,28,28,99,1,1,99
"2117",30,"warning_0",0,0,29,29,99,0,1,99
"2118",30,"warning_0",1,1,30,30,99,1,1,99
"2119",30,"warning_0",0,0,31,31,99,1,1,99
"2120",30,"warning_0",1,1,32,32,99,0,1,99
"2121",30,"warning_0",0,0,33,33,99,0.6,1,99
"2122",30,"warning_0",1,1,34,34,99,1,1,99
"2123",30,"warning_0",0,0,35,35,99,0,1,99
"2124",30,"warning_0",1,1,36,36,99,1,1,99
"2125",30,"warning_0",0,0,37,37,99,0.2,0,99
"2126",30,"warning_0",1,1,38,38,99,0,0,99
"2127",30,"warning_0",0,0,39,39,99,0.2,0,99
"2128",30,"warning_0",1,1,40,40,99,0.8,0,99
"2129",30,"warning_0",0,0,41,41,99,0.2,0,99
"2130",30,"warning_0",1,1,42,42,99,0.6,0,99
"2131",30,"warning_0",0,0,43,43,99,0.6,0,99
"2132",30,"warning_0",1,1,44,44,99,0.8,0,99
"2133",30,"warning_0",0,0,45,45,99,0,0,99
"2134",30,"warning_0",1,1,46,46,99,0,0,99
"2135",30,"warning_0",0,0,47,47,99,0.6,0,99
"2136",30,"warning_0",1,1,48,48,99,0.2,0,99
"2137",30,"warning_0",0,0,49,49,99,0.6,0,99
"2138",30,"warning_0",1,1,50,50,99,0.6,0,99
"2139",30,"warning_0",0,0,51,51,99,1,0,99
"2140",30,"warning_0",1,1,52,52,99,0.4,0,99
"2141",30,"warning_0",0,0,53,53,99,1,0,99
"2142",30,"warning_0",1,1,54,54,99,0.8,0,99
"2143",30,"warning_0",0,0,55,55,99,0.6,0,99
"2144",30,"warning_0",1,1,56,56,99,0,0,99
"2145",30,"warning_0",0,0,57,57,99,0,0,99
"2146",30,"warning_0",1,1,58,58,99,0,0,99
"2147",30,"warning_0",0,0,59,59,99,0.4,0,99
"2148",30,"warning_0",1,1,60,60,99,1,0,99
"2149",30,"warning_0",0,0,61,61,99,1,0,99
"2150",30,"warning_0",1,1,62,62,99,0.6,0,99
"2151",30,"warning_0",0,0,63,63,99,0.2,0,99
"2152",30,"warning_0",1,1,64,64,99,0.2,0,99
"2153",30,"warning_0",0,0,65,65,99,0.6,0,99
"2154",30,"warning_0",1,1,66,66,99,0.2,0,99
"2155",30,"warning_0",0,0,67,67,99,1,0,99
"2156",30,"warning_0",1,1,68,68,99,0.6,0,99
"2157",30,"warning_0",0,0,69,69,99,0,0,99
"2158",30,"warning_0",1,1,70,70,99,0.4,0,99
"2159",30,"warning_0",0,0,71,71,99,1,0,99
"2160",30,"warning_0",1,1,72,72,99,1,0,99
"2161",31,"warning_1",0,0,1,1,99,0.4,0,99
"2162",31,"warning_1",1,1,2,2,99,0.6,0,99
"2163",31,"warning_1",0,0,3,3,99,0.6,0,99
"2164",31,"warning_1",1,1,4,4,99,0.6,0,99
"2165",31,"warning_1",0,0,5,5,99,0.6,0,99
"2166",31,"warning_1",1,1,6,6,99,0.4,0,99
"2167",31,"warning_1",0,0,7,7,99,0.8,0,99
"2168",31,"warning_1",1,1,8,8,99,0.8,0,99
"2169",31,"warning_1",0,0,9,9,99,0.6,0,99
"2170",31,"warning_1",1,1,10,10,99,0.8,0,99
"2171",31,"warning_1",0,0,11,11,99,0.6,0,99
"2172",31,"warning_1",1,1,12,12,99,0.8,0,99
"2173",31,"warning_1",0,0,13,13,99,0.4,0,99
"2174",31,"warning_1",1,1,14,14,99,0.6,0,99
"2175",31,"warning_1",0,0,15,15,99,0.4,0,99
"2176",31,"warning_1",1,1,16,16,99,0.6,0,99
"2177",31,"warning_1",0,0,17,17,99,0.4,0,99
"2178",31,"warning_1",1,1,18,18,99,0.8,0,99
"2179",31,"warning_1",0,0,19,19,99,0.2,0,99
"2180",31,"warning_1",1,1,20,20,99,0.6,0,99
"2181",31,"warning_1",0,0,21,21,99,0.6,0,99
"2182",31,"warning_1",1,1,22,22,99,0.4,0,99
"2183",31,"warning_1",0,0,23,23,99,0.4,0,99
"2184",31,"warning_1",1,1,24,24,99,0.6,0,99
"2185",31,"warning_1",0,0,25,25,99,0.8,0,99
"2186",31,"warning_1",1,1,26,26,99,0.4,0,99
"2187",31,"warning_1",0,0,27,27,99,0.8,0,99
"2188",31,"warning_1",1,1,28,28,99,0.4,0,99
"2189",31,"warning_1",0,0,29,29,99,0.4,0,99
"2190",31,"warning_1",1,1,30,30,99,0.6,0,99
"2191",31,"warning_1",0,0,31,31,99,0.6,0,99
"2192",31,"warning_1",1,1,32,32,99,0.4,0,99
"2193",31,"warning_1",0,0,33,33,99,0.4,0,99
"2194",31,"warning_1",1,1,34,34,99,0.6,0,99
"2195",31,"warning_1",0,0,35,35,99,0.8,0,99
"2196",31,"warning_1",1,1,36,36,99,0.4,0,99
"2197",31,"warning_1",0,0,37,37,99,0.4,1,99
"2198",31,"warning_1",1,1,38,38,99,0.4,1,99
"2199",31,"warning_1",0,0,39,39,99,0.6,1,99
"2200",31,"warning_1",1,1,40,40,99,0.4,1,99
"2201",31,"warning_1",0,0,41,41,99,0.8,1,99
"2202",31,"warning_1",1,1,42,42,99,0.6,1,99
"2203",31,"warning_1",0,0,43,43,99,0.6,1,99
"2204",31,"warning_1",1,1,44,44,99,0.6,1,99
"2205",31,"warning_1",0,0,45,45,99,0.4,1,99
"2206",31,"warning_1",1,1,46,46,99,0.4,1,99
"2207",31,"warning_1",0,0,47,47,99,0.8,1,99
"2208",31,"warning_1",1,1,48,48,99,0.2,1,99
"2209",31,"warning_1",0,0,49,49,99,0.4,1,99
"2210",31,"warning_1",1,1,50,50,99,0.6,1,99
"2211",31,"warning_1",0,0,51,51,99,0,1,99
"2212",31,"warning_1",1,1,52,52,99,0.6,1,99
"2213",31,"warning_1",0,0,53,53,99,0.8,1,99
"2214",31,"warning_1",1,1,54,54,99,0.4,1,99
"2215",31,"warning_1",0,0,55,55,99,0.6,1,99
"2216",31,"warning_1",1,1,56,56,99,0.6,1,99
"2217",31,"warning_1",0,0,57,57,99,1,1,99
"2218",31,"warning_1",1,1,58,58,99,0.8,1,99
"2219",31,"warning_1",0,0,59,59,99,0.8,1,99
"2220",31,"warning_1",1,1,60,60,99,0.6,1,99
"2221",31,"warning_1",0,0,61,61,99,0.8,1,99
"2222",31,"warning_1",1,1,62,62,99,0.4,1,99
"2223",31,"warning_1",0,0,63,63,99,0.6,1,99
"2224",31,"warning_1",1,1,64,64,99,0.4,1,99
"2225",31,"warning_1",0,0,65,65,99,0.4,1,99
"2226",31,"warning_1",1,1,66,66,99,0.8,1,99
"2227",31,"warning_1",0,0,67,67,99,0.4,1,99
"2228",31,"warning_1",1,1,68,68,99,0.4,1,99
"2229",31,"warning_1",0,0,69,69,99,0.6,1,99
"2230",31,"warning_1",1,1,70,70,99,0.4,1,99
"2231",31,"warning_1",0,0,71,71,99,0.6,1,99
"2232",31,"warning_1",1,1,72,72,99,0.8,1,99
"2233",32,"warning_0",0,0,1,1,99,0.4,0,99
"2234",32,"warning_0",1,1,2,2,99,0.4,0,99
"2235",32,"warning_0",0,0,3,3,99,0.2,0,99
"2236",32,"warning_0",1,1,4,4,99,0.4,0,99
"2237",32,"warning_0",0,0,5,5,99,0.6,0,99
"2238",32,"warning_0",1,1,6,6,99,0.4,0,99
"2239",32,"warning_0",0,0,7,7,99,0.2,0,99
"2240",32,"warning_0",1,1,8,8,99,0.4,0,99
"2241",32,"warning_0",0,0,9,9,99,0.4,0,99
"2242",32,"warning_0",1,1,10,10,99,0.4,0,99
"2243",32,"warning_0",0,0,11,11,99,0.6,0,99
"2244",32,"warning_0",1,1,12,12,99,0.6,0,99
"2245",32,"warning_0",0,0,13,13,99,0.6,0,99
"2246",32,"warning_0",1,1,14,14,99,0.2,0,99
"2247",32,"warning_0",0,0,15,15,99,0.2,0,99
"2248",32,"warning_0",1,1,16,16,99,0.6,0,99
"2249",32,"warning_0",0,0,17,17,99,0.6,0,99
"2250",32,"warning_0",1,1,18,18,99,1,0,99
"2251",32,"warning_0",0,0,19,19,99,0.2,0,99
"2252",32,"warning_0",1,1,20,20,99,0.2,0,99
"2253",32,"warning_0",0,0,21,21,99,0.4,0,99
"2254",32,"warning_0",1,1,22,22,99,0.2,0,99
"2255",32,"warning_0",0,0,23,23,99,0.2,0,99
"2256",32,"warning_0",1,1,24,24,99,0,0,99
"2257",32,"warning_0",0,0,25,25,99,0.6,0,99
"2258",32,"warning_0",1,1,26,26,99,0.6,0,99
"2259",32,"warning_0",0,0,27,27,99,0.2,0,99
"2260",32,"warning_0",1,1,28,28,99,0.2,0,99
"2261",32,"warning_0",0,0,29,29,99,0.2,0,99
"2262",32,"warning_0",1,1,30,30,99,0.6,0,99
"2263",32,"warning_0",0,0,31,31,99,0.6,0,99
"2264",32,"warning_0",1,1,32,32,99,0,0,99
"2265",32,"warning_0",0,0,33,33,99,0.6,0,99
"2266",32,"warning_0",1,1,34,34,99,0.4,0,99
"2267",32,"warning_0",0,0,35,35,99,0.4,0,99
"2268",32,"warning_0",1,1,36,36,99,0,0,99
"2269",32,"warning_0",0,0,37,37,99,0.8,1,99
"2270",32,"warning_0",1,1,38,38,99,0.8,1,99
"2271",32,"warning_0",0,0,39,39,99,0.2,1,99
"2272",32,"warning_0",1,1,40,40,99,1,1,99
"2273",32,"warning_0",0,0,41,41,99,1,1,99
"2274",32,"warning_0",1,1,42,42,99,0.4,1,99
"2275",32,"warning_0",0,0,43,43,99,1,1,99
"2276",32,"warning_0",1,1,44,44,99,1,1,99
"2277",32,"warning_0",0,0,45,45,99,0.6,1,99
"2278",32,"warning_0",1,1,46,46,99,0.8,1,99
"2279",32,"warning_0",0,0,47,47,99,1,1,99
"2280",32,"warning_0",1,1,48,48,99,1,1,99
"2281",32,"warning_0",0,0,49,49,99,1,1,99
"2282",32,"warning_0",1,1,50,50,99,1,1,99
"2283",32,"warning_0",0,0,51,51,99,0.8,1,99
"2284",32,"warning_0",1,1,52,52,99,0.8,1,99
"2285",32,"warning_0",0,0,53,53,99,1,1,99
"2286",32,"warning_0",1,1,54,54,99,1,1,99
"2287",32,"warning_0",0,0,55,55,99,0,1,99
"2288",32,"warning_0",1,1,56,56,99,0.8,1,99
"2289",32,"warning_0",0,0,57,57,99,0.6,1,99
"2290",32,"warning_0",1,1,58,58,99,0.8,1,99
"2291",32,"warning_0",0,0,59,59,99,0.4,1,99
"2292",32,"warning_0",1,1,60,60,99,0.8,1,99
"2293",32,"warning_0",0,0,61,61,99,1,1,99
"2294",32,"warning_0",1,1,62,62,99,1,1,99
"2295",32,"warning_0",0,0,63,63,99,0.6,1,99
"2296",32,"warning_0",1,1,64,64,99,1,1,99
"2297",32,"warning_0",0,0,65,65,99,0.6,1,99
"2298",32,"warning_0",1,1,66,66,99,1,1,99
"2299",32,"warning_0",0,0,67,67,99,0.8,1,99
"2300",32,"warning_0",1,1,68,68,99,0.6,1,99
"2301",32,"warning_0",0,0,69,69,99,1,1,99
"2302",32,"warning_0",1,1,70,70,99,1,1,99
"2303",32,"warning_0",0,0,71,71,99,1,1,99
"2304",32,"warning_0",1,1,72,72,99,1,1,99
"2305",33,"warning_1",0,0,1,1,99,0.8,1,99
"2306",33,"warning_1",1,1,2,2,99,0.8,1,99
"2307",33,"warning_1",0,0,3,3,99,0.2,1,99
"2308",33,"warning_1",1,1,4,4,99,0.8,1,99
"2309",33,"warning_1",0,0,5,5,99,1,1,99
"2310",33,"warning_1",1,1,6,6,99,0.6,1,99
"2311",33,"warning_1",0,0,7,7,99,0.8,1,99
"2312",33,"warning_1",1,1,8,8,99,0.8,1,99
"2313",33,"warning_1",0,0,9,9,99,0.8,1,99
"2314",33,"warning_1",1,1,10,10,99,0.8,1,99
"2315",33,"warning_1",0,0,11,11,99,0.4,1,99
"2316",33,"warning_1",1,1,12,12,99,0.8,1,99
"2317",33,"warning_1",0,0,13,13,99,0.4,1,99
"2318",33,"warning_1",1,1,14,14,99,0.8,1,99
"2319",33,"warning_1",0,0,15,15,99,0.8,1,99
"2320",33,"warning_1",1,1,16,16,99,1,1,99
"2321",33,"warning_1",0,0,17,17,99,0.8,1,99
"2322",33,"warning_1",1,1,18,18,99,1,1,99
"2323",33,"warning_1",0,0,19,19,99,0.2,1,99
"2324",33,"warning_1",1,1,20,20,99,1,1,99
"2325",33,"warning_1",0,0,21,21,99,0.6,1,99
"2326",33,"warning_1",1,1,22,22,99,0.4,1,99
"2327",33,"warning_1",0,0,23,23,99,0.6,1,99
"2328",33,"warning_1",1,1,24,24,99,1,1,99
"2329",33,"warning_1",0,0,25,25,99,0.8,1,99
"2330",33,"warning_1",1,1,26,26,99,0.8,1,99
"2331",33,"warning_1",0,0,27,27,99,0.4,1,99
"2332",33,"warning_1",1,1,28,28,99,1,1,99
"2333",33,"warning_1",0,0,29,29,99,1,1,99
"2334",33,"warning_1",1,1,30,30,99,0.8,1,99
"2335",33,"warning_1",0,0,31,31,99,1,1,99
"2336",33,"warning_1",1,1,32,32,99,0.8,1,99
"2337",33,"warning_1",0,0,33,33,99,0.8,1,99
"2338",33,"warning_1",1,1,34,34,99,0.4,1,99
"2339",33,"warning_1",0,0,35,35,99,0.4,1,99
"2340",33,"warning_1",1,1,36,36,99,0,1,99
"2341",33,"warning_1",0,0,37,37,99,0.6,0,99
"2342",33,"warning_1",1,1,38,38,99,0.6,0,99
"2343",33,"warning_1",0,0,39,39,99,0.8,0,99
"2344",33,"warning_1",1,1,40,40,99,0.2,0,99
"2345",33,"warning_1",0,0,41,41,99,0.6,0,99
"2346",33,"warning_1",1,1,42,42,99,0.4,0,99
"2347",33,"warning_1",0,0,43,43,99,0.6,0,99
"2348",33,"warning_1",1,1,44,44,99,0.8,0,99
"2349",33,"warning_1",0,0,45,45,99,0.8,0,99
"2350",33,"warning_1",1,1,46,46,99,0.6,0,99
