"","subject","trial","session","between_identifier","within_identifier","statement_identifier","rt","response","repeated","certainty"
"1",1,1,"warning_1",0,1,1,99,0.6,0,99
"2",1,2,"warning_1",0,1,2,99,0.4,0,99
"3",1,3,"warning_1",0,1,3,99,0.6,0,99
"4",1,4,"warning_1",0,1,4,99,0.4,0,99
"5",1,5,"warning_1",0,1,5,99,0.2,0,99
"6",1,6,"warning_1",0,1,6,99,0.6,0,99
"7",1,7,"warning_1",0,1,7,99,0.2,0,99
"8",1,8,"warning_1",0,1,8,99,0.4,0,99
"9",1,9,"warning_1",0,1,9,99,0.2,0,99
"10",1,10,"warning_1",0,1,10,99,0.6,0,99
"11",1,11,"warning_1",0,1,11,99,0.4,0,99
"12",1,12,"warning_1",0,1,12,99,0.4,0,99
"13",1,13,"warning_1",0,1,13,99,0.2,0,99
"14",1,14,"warning_1",0,1,14,99,0.2,0,99
"15",1,15,"warning_1",0,1,15,99,0.6,0,99
"16",1,16,"warning_1",0,1,16,99,0.2,0,99
"17",1,17,"warning_1",0,1,17,99,0.4,0,99
"18",1,18,"warning_1",0,1,18,99,0.8,0,99
"19",1,19,"warning_1",0,1,19,99,0.2,0,99
"20",1,20,"warning_1",0,1,20,99,0.6,0,99
"21",1,21,"warning_1",0,1,21,99,0.2,0,99
"22",1,22,"warning_1",0,1,22,99,0.2,0,99
"23",1,23,"warning_1",0,1,23,99,0.2,0,99
"24",1,24,"warning_1",0,1,24,99,0.4,0,99
"25",1,25,"warning_1",0,1,25,99,0.4,0,99
"26",1,26,"warning_1",0,1,26,99,0.6,0,99
"27",1,27,"warning_1",0,1,27,99,0.4,0,99
"28",1,28,"warning_1",0,1,28,99,0.8,0,99
"29",1,29,"warning_1",0,1,29,99,0.4,0,99
"30",1,30,"warning_1",0,1,30,99,0.2,0,99
"31",1,31,"warning_1",0,1,31,99,0.2,0,99
"32",1,32,"warning_1",0,1,32,99,0.6,0,99
"33",1,33,"warning_1",0,1,33,99,0.2,0,99
"34",1,34,"warning_1",0,1,34,99,0.2,0,99
"35",1,35,"warning_1",0,1,35,99,0.2,0,99
"36",1,36,"warning_1",0,1,36,99,0.4,0,99
"37",1,37,"warning_1",0,1,37,99,0.6,1,99
"38",1,38,"warning_1",0,1,38,99,0.2,1,99
"39",1,39,"warning_1",0,1,39,99,0.2,1,99
"40",1,40,"warning_1",0,1,40,99,0.2,1,99
"41",1,41,"warning_1",0,1,41,99,0.2,1,99
"42",1,42,"warning_1",0,1,42,99,0.2,1,99
"43",1,43,"warning_1",0,1,43,99,0.6,1,99
"44",1,44,"warning_1",0,1,44,99,0.6,1,99
"45",1,45,"warning_1",0,1,45,99,0.6,1,99
"46",1,46,"warning_1",0,1,46,99,0.2,1,99
"47",1,47,"warning_1",0,1,47,99,0.2,1,99
"48",1,48,"warning_1",0,1,48,99,0.4,1,99
"49",1,49,"warning_1",0,1,49,99,0.2,1,99
"50",1,50,"warning_1",0,1,50,99,0.4,1,99
"51",1,51,"warning_1",0,1,51,99,0.8,1,99
"52",1,52,"warning_1",0,1,52,99,0.2,1,99
"53",1,53,"warning_1",0,1,53,99,0.8,1,99
"54",1,54,"warning_1",0,1,54,99,0.2,1,99
"55",1,55,"warning_1",0,1,55,99,0.2,1,99
"56",1,56,"warning_1",0,1,56,99,0.2,1,99
"57",1,57,"warning_1",0,1,57,99,0.6,1,99
"58",1,58,"warning_1",0,1,58,99,0.8,1,99
"59",1,59,"warning_1",0,1,59,99,0.4,1,99
"60",1,60,"warning_1",0,1,60,99,0.8,1,99
"61",1,61,"warning_1",0,1,61,99,0.2,1,99
"62",1,62,"warning_1",0,1,62,99,0.4,1,99
"63",1,63,"warning_1",0,1,63,99,0.4,1,99
"64",1,64,"warning_1",0,1,64,99,0.8,1,99
"65",1,65,"warning_1",0,1,65,99,0.4,1,99
"66",1,66,"warning_1",0,1,66,99,0.6,1,99
"67",1,67,"warning_1",0,1,67,99,0.2,1,99
"68",1,68,"warning_1",0,1,68,99,0.4,1,99
"69",1,69,"warning_1",0,1,69,99,0.8,1,99
"70",1,70,"warning_1",0,1,70,99,0.2,1,99
"71",1,71,"warning_1",0,1,71,99,0.8,1,99
"72",1,72,"warning_1",0,1,72,99,0.6,1,99
"73",2,1,"warning_0",0,1,1,99,0.4,0,99
"74",2,2,"warning_0",0,1,2,99,0.8,0,99
"75",2,3,"warning_0",0,1,3,99,1,0,99
"76",2,4,"warning_0",0,1,4,99,1,0,99
"77",2,5,"warning_0",0,1,5,99,0.8,0,99
"78",2,6,"warning_0",0,1,6,99,0.4,0,99
"79",2,7,"warning_0",0,1,7,99,0.6,0,99
"80",2,8,"warning_0",0,1,8,99,0.8,0,99
"81",2,9,"warning_0",0,1,9,99,0.6,0,99
"82",2,10,"warning_0",0,1,10,99,0.6,0,99
"83",2,11,"warning_0",0,1,11,99,0.6,0,99
"84",2,12,"warning_0",0,1,12,99,0.8,0,99
"85",2,13,"warning_0",0,1,13,99,0.8,0,99
"86",2,14,"warning_0",0,1,14,99,0.4,0,99
"87",2,15,"warning_0",0,1,15,99,0.8,0,99
"88",2,16,"warning_0",0,1,16,99,0.8,0,99
"89",2,17,"warning_0",0,1,17,99,0.6,0,99
"90",2,18,"warning_0",0,1,18,99,0.8,0,99
"91",2,19,"warning_0",0,1,19,99,0.6,0,99
"92",2,20,"warning_0",0,1,20,99,0.6,0,99
"93",2,21,"warning_0",0,1,21,99,0.4,0,99
"94",2,22,"warning_0",0,1,22,99,0.6,0,99
"95",2,23,"warning_0",0,1,23,99,0.6,0,99
"96",2,24,"warning_0",0,1,24,99,0.4,0,99
"97",2,25,"warning_0",0,1,25,99,0.4,0,99
"98",2,26,"warning_0",0,1,26,99,0.8,0,99
"99",2,27,"warning_0",0,1,27,99,0,0,99
"100",2,28,"warning_0",0,1,28,99,0.2,0,99
"101",2,29,"warning_0",0,1,29,99,0.2,0,99
"102",2,30,"warning_0",0,1,30,99,0.8,0,99
"103",2,31,"warning_0",0,1,31,99,0,0,99
"104",2,32,"warning_0",0,1,32,99,0.4,0,99
"105",2,33,"warning_0",0,1,33,99,0.6,0,99
"106",2,34,"warning_0",0,1,34,99,0.6,0,99
"107",2,35,"warning_0",0,1,35,99,1,0,99
"108",2,36,"warning_0",0,1,36,99,0.8,0,99
"109",2,37,"warning_0",0,1,37,99,0.8,1,99
"110",2,38,"warning_0",0,1,38,99,1,1,99
"111",2,39,"warning_0",0,1,39,99,1,1,99
"112",2,40,"warning_0",0,1,40,99,0.8,1,99
"113",2,41,"warning_0",0,1,41,99,1,1,99
"114",2,42,"warning_0",0,1,42,99,0.6,1,99
"115",2,43,"warning_0",0,1,43,99,1,1,99
"116",2,44,"warning_0",0,1,44,99,1,1,99
"117",2,45,"warning_0",0,1,45,99,1,1,99
"118",2,46,"warning_0",0,1,46,99,1,1,99
"119",2,47,"warning_0",0,1,47,99,1,1,99
"120",2,48,"warning_0",0,1,48,99,1,1,99
"121",2,49,"warning_0",0,1,49,99,0.8,1,99
"122",2,50,"warning_0",0,1,50,99,1,1,99
"123",2,51,"warning_0",0,1,51,99,1,1,99
"124",2,52,"warning_0",0,1,52,99,0.8,1,99
"125",2,53,"warning_0",0,1,53,99,1,1,99
"126",2,54,"warning_0",0,1,54,99,1,1,99
"127",2,55,"warning_0",0,1,55,99,1,1,99
"128",2,56,"warning_0",0,1,56,99,1,1,99
"129",2,57,"warning_0",0,1,57,99,0.8,1,99
"130",2,58,"warning_0",0,1,58,99,0.8,1,99
"131",2,59,"warning_0",0,1,59,99,1,1,99
"132",2,60,"warning_0",0,1,60,99,0.8,1,99
"133",2,61,"warning_0",0,1,61,99,1,1,99
"134",2,62,"warning_0",0,1,62,99,1,1,99
"135",2,63,"warning_0",0,1,63,99,1,1,99
"136",2,64,"warning_0",0,1,64,99,1,1,99
"137",2,65,"warning_0",0,1,65,99,1,1,99
"138",2,66,"warning_0",0,1,66,99,1,1,99
"139",2,67,"warning_0",0,1,67,99,1,1,99
"140",2,68,"warning_0",0,1,68,99,0,1,99
"141",2,69,"warning_0",0,1,69,99,1,1,99
"142",2,70,"warning_0",0,1,70,99,1,1,99
"143",2,71,"warning_0",0,1,71,99,1,1,99
"144",2,72,"warning_0",0,1,72,99,1,1,99
"145",3,1,"warning_0",0,1,1,99,1,1,99
"146",3,2,"warning_0",0,1,2,99,1,1,99
"147",3,3,"warning_0",0,1,3,99,0,1,99
"148",3,4,"warning_0",0,1,4,99,0.4,1,99
"149",3,5,"warning_0",0,1,5,99,1,1,99
"150",3,6,"warning_0",0,1,6,99,1,1,99
"151",3,7,"warning_0",0,1,7,99,1,1,99
"152",3,8,"warning_0",0,1,8,99,1,1,99
"153",3,9,"warning_0",0,1,9,99,1,1,99
"154",3,10,"warning_0",0,1,10,99,1,1,99
"155",3,11,"warning_0",0,1,11,99,1,1,99
"156",3,12,"warning_0",0,1,12,99,1,1,99
"157",3,13,"warning_0",0,1,13,99,1,1,99
"158",3,14,"warning_0",0,1,14,99,1,1,99
"159",3,15,"warning_0",0,1,15,99,1,1,99
"160",3,16,"warning_0",0,1,16,99,1,1,99
"161",3,17,"warning_0",0,1,17,99,1,1,99
"162",3,18,"warning_0",0,1,18,99,1,1,99
"163",3,19,"warning_0",0,1,19,99,0,1,99
"164",3,20,"warning_0",0,1,20,99,1,1,99
"165",3,21,"warning_0",0,1,21,99,1,1,99
"166",3,22,"warning_0",0,1,22,99,1,1,99
"167",3,23,"warning_0",0,1,23,99,1,1,99
"168",3,24,"warning_0",0,1,24,99,0.6,1,99
"169",3,25,"warning_0",0,1,25,99,0.4,1,99
"170",3,26,"warning_0",0,1,26,99,0.6,1,99
"171",3,27,"warning_0",0,1,27,99,1,1,99
"172",3,28,"warning_0",0,1,28,99,1,1,99
"173",3,29,"warning_0",0,1,29,99,1,1,99
"174",3,30,"warning_0",0,1,30,99,0.6,1,99
"175",3,31,"warning_0",0,1,31,99,0,1,99
"176",3,32,"warning_0",0,1,32,99,1,1,99
"177",3,33,"warning_0",0,1,33,99,0.4,1,99
"178",3,34,"warning_0",0,1,34,99,1,1,99
"179",3,35,"warning_0",0,1,35,99,0.6,1,99
"180",3,36,"warning_0",0,1,36,99,0.8,1,99
"181",3,37,"warning_0",0,1,37,99,0.6,0,99
"182",3,38,"warning_0",0,1,38,99,1,0,99
"183",3,39,"warning_0",0,1,39,99,0.6,0,99
"184",3,40,"warning_0",0,1,40,99,0.6,0,99
"185",3,41,"warning_0",0,1,41,99,0,0,99
"186",3,42,"warning_0",0,1,42,99,0.6,0,99
"187",3,43,"warning_0",0,1,43,99,0.6,0,99
"188",3,44,"warning_0",0,1,44,99,0.8,0,99
"189",3,45,"warning_0",0,1,45,99,0.6,0,99
"190",3,46,"warning_0",0,1,46,99,0.6,0,99
"191",3,47,"warning_0",0,1,47,99,0.4,0,99
"192",3,48,"warning_0",0,1,48,99,1,0,99
"193",3,49,"warning_0",0,1,49,99,1,0,99
"194",3,50,"warning_0",0,1,50,99,1,0,99
"195",3,51,"warning_0",0,1,51,99,1,0,99
"196",3,52,"warning_0",0,1,52,99,0.4,0,99
"197",3,53,"warning_0",0,1,53,99,0,0,99
"198",3,54,"warning_0",0,1,54,99,1,0,99
"199",3,55,"warning_0",0,1,55,99,0.4,0,99
"200",3,56,"warning_0",0,1,56,99,0.6,0,99
"201",3,57,"warning_0",0,1,57,99,0.8,0,99
"202",3,58,"warning_0",0,1,58,99,0.2,0,99
"203",3,59,"warning_0",0,1,59,99,0.4,0,99
"204",3,60,"warning_0",0,1,60,99,0.8,0,99
"205",3,61,"warning_0",0,1,61,99,1,0,99
"206",3,62,"warning_0",0,1,62,99,0.2,0,99
"207",3,63,"warning_0",0,1,63,99,1,0,99
"208",3,64,"warning_0",0,1,64,99,0.6,0,99
"209",3,65,"warning_0",0,1,65,99,0.6,0,99
"210",3,66,"warning_0",0,1,66,99,0.6,0,99
"211",3,67,"warning_0",0,1,67,99,0.4,0,99
"212",3,68,"warning_0",0,1,68,99,0.8,0,99
"213",3,69,"warning_0",0,1,69,99,1,0,99
"214",3,70,"warning_0",0,1,70,99,0.6,0,99
"215",3,71,"warning_0",0,1,71,99,1,0,99
"216",3,72,"warning_0",0,1,72,99,1,0,99
"217",4,1,"warning_0",0,1,1,99,0.8,1,99
"218",4,2,"warning_0",0,1,2,99,1,1,99
"219",4,3,"warning_0",0,1,3,99,0.8,1,99
"220",4,4,"warning_0",0,1,4,99,1,1,99
"221",4,5,"warning_0",0,1,5,99,1,1,99
"222",4,6,"warning_0",0,1,6,99,0.2,1,99
"223",4,7,"warning_0",0,1,7,99,0.4,1,99
"224",4,8,"warning_0",0,1,8,99,0.2,1,99
"225",4,9,"warning_0",0,1,9,99,0.2,1,99
"226",4,10,"warning_0",0,1,10,99,1,1,99
"227",4,11,"warning_0",0,1,11,99,0.8,1,99
"228",4,12,"warning_0",0,1,12,99,0.6,1,99
"229",4,13,"warning_0",0,1,13,99,1,1,99
"230",4,14,"warning_0",0,1,14,99,0.2,1,99
"231",4,15,"warning_0",0,1,15,99,1,1,99
"232",4,16,"warning_0",0,1,16,99,1,1,99
"233",4,17,"warning_0",0,1,17,99,1,1,99
"234",4,18,"warning_0",0,1,18,99,0,1,99
"235",4,19,"warning_0",0,1,19,99,0,1,99
"236",4,20,"warning_0",0,1,20,99,0.6,1,99
"237",4,21,"warning_0",0,1,21,99,1,1,99
"238",4,22,"warning_0",0,1,22,99,0.6,1,99
"239",4,23,"warning_0",0,1,23,99,0.2,1,99
"240",4,24,"warning_0",0,1,24,99,0,1,99
"241",4,25,"warning_0",0,1,25,99,1,1,99
"242",4,26,"warning_0",0,1,26,99,0.6,1,99
"243",4,27,"warning_0",0,1,27,99,0.2,1,99
"244",4,28,"warning_0",0,1,28,99,1,1,99
"245",4,29,"warning_0",0,1,29,99,0.4,1,99
"246",4,30,"warning_0",0,1,30,99,1,1,99
"247",4,31,"warning_0",0,1,31,99,1,1,99
"248",4,32,"warning_0",0,1,32,99,1,1,99
"249",4,33,"warning_0",0,1,33,99,1,1,99
"250",4,34,"warning_0",0,1,34,99,1,1,99
"251",4,35,"warning_0",0,1,35,99,0.8,1,99
"252",4,36,"warning_0",0,1,36,99,0.8,1,99
"253",4,37,"warning_0",0,1,37,99,0.2,0,99
"254",4,38,"warning_0",0,1,38,99,0.8,0,99
"255",4,39,"warning_0",0,1,39,99,1,0,99
"256",4,40,"warning_0",0,1,40,99,0.8,0,99
"257",4,41,"warning_0",0,1,41,99,0.2,0,99
"258",4,42,"warning_0",0,1,42,99,0.4,0,99
"259",4,43,"warning_0",0,1,43,99,0.2,0,99
"260",4,44,"warning_0",0,1,44,99,0.2,0,99
"261",4,45,"warning_0",0,1,45,99,0.4,0,99
"262",4,46,"warning_0",0,1,46,99,0,0,99
"263",4,47,"warning_0",0,1,47,99,0.2,0,99
"264",4,48,"warning_0",0,1,48,99,0,0,99
"265",4,49,"warning_0",0,1,49,99,1,0,99
"266",4,50,"warning_0",0,1,50,99,1,0,99
"267",4,51,"warning_0",0,1,51,99,0.8,0,99
"268",4,52,"warning_0",0,1,52,99,0.2,0,99
"269",4,53,"warning_0",0,1,53,99,0.8,0,99
"270",4,54,"warning_0",0,1,54,99,0.8,0,99
"271",4,55,"warning_0",0,1,55,99,0.8,0,99
"272",4,56,"warning_0",0,1,56,99,0.4,0,99
"273",4,57,"warning_0",0,1,57,99,0,0,99
"274",4,58,"warning_0",0,1,58,99,0,0,99
"275",4,59,"warning_0",0,1,59,99,0,0,99
"276",4,60,"warning_0",0,1,60,99,0.8,0,99
"277",4,61,"warning_0",0,1,61,99,0.6,0,99
"278",4,62,"warning_0",0,1,62,99,0,0,99
"279",4,63,"warning_0",0,1,63,99,0.8,0,99
"280",4,64,"warning_0",0,1,64,99,0.8,0,99
"281",4,65,"warning_0",0,1,65,99,0.4,0,99
"282",4,66,"warning_0",0,1,66,99,1,0,99
"283",4,67,"warning_0",0,1,67,99,0,0,99
"284",4,68,"warning_0",0,1,68,99,0.6,0,99
"285",4,69,"warning_0",0,1,69,99,1,0,99
"286",4,70,"warning_0",0,1,70,99,0.8,0,99
"287",4,71,"warning_0",0,1,71,99,0.8,0,99
"288",4,72,"warning_0",0,1,72,99,0.6,0,99
"289",5,1,"warning_0",0,1,1,99,0.4,0,99
"290",5,2,"warning_0",0,1,2,99,0.4,0,99
"291",5,3,"warning_0",0,1,3,99,1,0,99
"292",5,4,"warning_0",0,1,4,99,0.4,0,99
"293",5,5,"warning_0",0,1,5,99,0,0,99
"294",5,6,"warning_0",0,1,6,99,0.4,0,99
"295",5,7,"warning_0",0,1,7,99,0.4,0,99
"296",5,8,"warning_0",0,1,8,99,0.4,0,99
"297",5,9,"warning_0",0,1,9,99,0.4,0,99
"298",5,10,"warning_0",0,1,10,99,0.4,0,99
"299",5,11,"warning_0",0,1,11,99,0.4,0,99
"300",5,12,"warning_0",0,1,12,99,0.4,0,99
"301",5,13,"warning_0",0,1,13,99,0.2,0,99
"302",5,14,"warning_0",0,1,14,99,0.4,0,99
"303",5,15,"warning_0",0,1,15,99,1,0,99
"304",5,16,"warning_0",0,1,16,99,0.4,0,99
"305",5,17,"warning_0",0,1,17,99,0,0,99
"306",5,18,"warning_0",0,1,18,99,0.4,0,99
"307",5,19,"warning_0",0,1,19,99,0.4,0,99
"308",5,20,"warning_0",0,1,20,99,0.4,0,99
"309",5,21,"warning_0",0,1,21,99,0.4,0,99
"310",5,22,"warning_0",0,1,22,99,0.4,0,99
"311",5,23,"warning_0",0,1,23,99,0.4,0,99
"312",5,24,"warning_0",0,1,24,99,0.2,0,99
"313",5,25,"warning_0",0,1,25,99,0.4,0,99
"314",5,26,"warning_0",0,1,26,99,0.2,0,99
"315",5,27,"warning_0",0,1,27,99,0,0,99
"316",5,28,"warning_0",0,1,28,99,0.4,0,99
"317",5,29,"warning_0",0,1,29,99,0.4,0,99
"318",5,30,"warning_0",0,1,30,99,1,0,99
"319",5,31,"warning_0",0,1,31,99,0.6,0,99
"320",5,32,"warning_0",0,1,32,99,0.4,0,99
"321",5,33,"warning_0",0,1,33,99,0.4,0,99
"322",5,34,"warning_0",0,1,34,99,0.4,0,99
"323",5,35,"warning_0",0,1,35,99,0.4,0,99
"324",5,36,"warning_0",0,1,36,99,0.8,0,99
"325",5,37,"warning_0",0,1,37,99,1,1,99
"326",5,38,"warning_0",0,1,38,99,1,1,99
"327",5,39,"warning_0",0,1,39,99,1,1,99
"328",5,40,"warning_0",0,1,40,99,1,1,99
"329",5,41,"warning_0",0,1,41,99,1,1,99
"330",5,42,"warning_0",0,1,42,99,0.4,1,99
"331",5,43,"warning_0",0,1,43,99,1,1,99
"332",5,44,"warning_0",0,1,44,99,1,1,99
"333",5,45,"warning_0",0,1,45,99,1,1,99
"334",5,46,"warning_0",0,1,46,99,1,1,99
"335",5,47,"warning_0",0,1,47,99,0.4,1,99
"336",5,48,"warning_0",0,1,48,99,1,1,99
"337",5,49,"warning_0",0,1,49,99,1,1,99
"338",5,50,"warning_0",0,1,50,99,1,1,99
"339",5,51,"warning_0",0,1,51,99,1,1,99
"340",5,52,"warning_0",0,1,52,99,1,1,99
"341",5,53,"warning_0",0,1,53,99,0,1,99
"342",5,54,"warning_0",0,1,54,99,1,1,99
"343",5,55,"warning_0",0,1,55,99,1,1,99
"344",5,56,"warning_0",0,1,56,99,1,1,99
"345",5,57,"warning_0",0,1,57,99,0.6,1,99
"346",5,58,"warning_0",0,1,58,99,1,1,99
"347",5,59,"warning_0",0,1,59,99,1,1,99
"348",5,60,"warning_0",0,1,60,99,1,1,99
"349",5,61,"warning_0",0,1,61,99,0.4,1,99
"350",5,62,"warning_0",0,1,62,99,1,1,99
"351",5,63,"warning_0",0,1,63,99,1,1,99
"352",5,64,"warning_0",0,1,64,99,1,1,99
"353",5,65,"warning_0",0,1,65,99,0.2,1,99
"354",5,66,"warning_0",0,1,66,99,1,1,99
"355",5,67,"warning_0",0,1,67,99,1,1,99
"356",5,68,"warning_0",0,1,68,99,1,1,99
"357",5,69,"warning_0",0,1,69,99,1,1,99
"358",5,70,"warning_0",0,1,70,99,0.4,1,99
"359",5,71,"warning_0",0,1,71,99,0.4,1,99
"360",5,72,"warning_0",0,1,72,99,1,1,99
"361",6,1,"warning_1",0,1,1,99,0,1,99
"362",6,2,"warning_1",0,1,2,99,0.2,1,99
"363",6,3,"warning_1",0,1,3,99,0.2,1,99
"364",6,4,"warning_1",0,1,4,99,0.4,1,99
"365",6,5,"warning_1",0,1,5,99,0.2,1,99
"366",6,6,"warning_1",0,1,6,99,1,1,99
"367",6,7,"warning_1",0,1,7,99,0.4,1,99
"368",6,8,"warning_1",0,1,8,99,1,1,99
"369",6,9,"warning_1",0,1,9,99,0.8,1,99
"370",6,10,"warning_1",0,1,10,99,0.6,1,99
"371",6,11,"warning_1",0,1,11,99,0,1,99
"372",6,12,"warning_1",0,1,12,99,0,1,99
"373",6,13,"warning_1",0,1,13,99,0,1,99
"374",6,14,"warning_1",0,1,14,99,0.6,1,99
"375",6,15,"warning_1",0,1,15,99,0.6,1,99
"376",6,16,"warning_1",0,1,16,99,0.6,1,99
"377",6,17,"warning_1",0,1,17,99,0.6,1,99
"378",6,18,"warning_1",0,1,18,99,0.4,1,99
"379",6,19,"warning_1",0,1,19,99,1,1,99
"380",6,20,"warning_1",0,1,20,99,0.8,1,99
"381",6,21,"warning_1",0,1,21,99,0.2,1,99
"382",6,22,"warning_1",0,1,22,99,0,1,99
"383",6,23,"warning_1",0,1,23,99,0.4,1,99
"384",6,24,"warning_1",0,1,24,99,0.4,1,99
"385",6,25,"warning_1",0,1,25,99,0.2,1,99
"386",6,26,"warning_1",0,1,26,99,0.8,1,99
"387",6,27,"warning_1",0,1,27,99,0,1,99
"388",6,28,"warning_1",0,1,28,99,0,1,99
"389",6,29,"warning_1",0,1,29,99,0.6,1,99
"390",6,30,"warning_1",0,1,30,99,0.4,1,99
"391",6,31,"warning_1",0,1,31,99,0.8,1,99
"392",6,32,"warning_1",0,1,32,99,0.2,1,99
"393",6,33,"warning_1",0,1,33,99,0,1,99
"394",6,34,"warning_1",0,1,34,99,0.4,1,99
"395",6,35,"warning_1",0,1,35,99,0.2,1,99
"396",6,36,"warning_1",0,1,36,99,0.8,1,99
"397",6,37,"warning_1",0,1,37,99,0.4,0,99
"398",6,38,"warning_1",0,1,38,99,0.6,0,99
"399",6,39,"warning_1",0,1,39,99,0.8,0,99
"400",6,40,"warning_1",0,1,40,99,0.8,0,99
"401",6,41,"warning_1",0,1,41,99,0.8,0,99
"402",6,42,"warning_1",0,1,42,99,0.6,0,99
"403",6,43,"warning_1",0,1,43,99,0.4,0,99
"404",6,44,"warning_1",0,1,44,99,0.2,0,99
"405",6,45,"warning_1",0,1,45,99,0.6,0,99
"406",6,46,"warning_1",0,1,46,99,0.8,0,99
"407",6,47,"warning_1",0,1,47,99,1,0,99
"408",6,48,"warning_1",0,1,48,99,0.2,0,99
"409",6,49,"warning_1",0,1,49,99,0.8,0,99
"410",6,50,"warning_1",0,1,50,99,0.4,0,99
"411",6,51,"warning_1",0,1,51,99,0.8,0,99
"412",6,52,"warning_1",0,1,52,99,0.2,0,99
"413",6,53,"warning_1",0,1,53,99,0.8,0,99
"414",6,54,"warning_1",0,1,54,99,0.2,0,99
"415",6,55,"warning_1",0,1,55,99,0.4,0,99
"416",6,56,"warning_1",0,1,56,99,0.8,0,99
"417",6,57,"warning_1",0,1,57,99,0.8,0,99
"418",6,58,"warning_1",0,1,58,99,0.4,0,99
"419",6,59,"warning_1",0,1,59,99,1,0,99
"420",6,60,"warning_1",0,1,60,99,0.2,0,99
"421",6,61,"warning_1",0,1,61,99,0.2,0,99
"422",6,62,"warning_1",0,1,62,99,0.2,0,99
"423",6,63,"warning_1",0,1,63,99,1,0,99
"424",6,64,"warning_1",0,1,64,99,0.6,0,99
"425",6,65,"warning_1",0,1,65,99,0.6,0,99
"426",6,66,"warning_1",0,1,66,99,0.6,0,99
"427",6,67,"warning_1",0,1,67,99,0.4,0,99
"428",6,68,"warning_1",0,1,68,99,0.2,0,99
"429",6,69,"warning_1",0,1,69,99,0,0,99
"430",6,70,"warning_1",0,1,70,99,0.6,0,99
"431",6,71,"warning_1",0,1,71,99,0.8,0,99
"432",6,72,"warning_1",0,1,72,99,0.6,0,99
"433",7,1,"warning_1",0,1,1,99,0.4,0,99
"434",7,2,"warning_1",0,1,2,99,0.4,0,99
"435",7,3,"warning_1",0,1,3,99,0.6,0,99
"436",7,4,"warning_1",0,1,4,99,0.6,0,99
"437",7,5,"warning_1",0,1,5,99,0.4,0,99
"438",7,6,"warning_1",0,1,6,99,0.4,0,99
"439",7,7,"warning_1",0,1,7,99,0.6,0,99
"440",7,8,"warning_1",0,1,8,99,0.4,0,99
"441",7,9,"warning_1",0,1,9,99,0.4,0,99
"442",7,10,"warning_1",0,1,10,99,0.4,0,99
"443",7,11,"warning_1",0,1,11,99,0.4,0,99
"444",7,12,"warning_1",0,1,12,99,1,0,99
"445",7,13,"warning_1",0,1,13,99,0.6,0,99
"446",7,14,"warning_1",0,1,14,99,0.4,0,99
"447",7,15,"warning_1",0,1,15,99,0.4,0,99
"448",7,16,"warning_1",0,1,16,99,0.4,0,99
"449",7,17,"warning_1",0,1,17,99,0.6,0,99
"450",7,18,"warning_1",0,1,18,99,0.4,0,99
"451",7,19,"warning_1",0,1,19,99,0.4,0,99
"452",7,20,"warning_1",0,1,20,99,0.4,0,99
"453",7,21,"warning_1",0,1,21,99,0.6,0,99
"454",7,22,"warning_1",0,1,22,99,0.4,0,99
"455",7,23,"warning_1",0,1,23,99,0.4,0,99
"456",7,24,"warning_1",0,1,24,99,0.4,0,99
"457",7,25,"warning_1",0,1,25,99,0.4,0,99
"458",7,26,"warning_1",0,1,26,99,0.4,0,99
"459",7,27,"warning_1",0,1,27,99,0.6,0,99
"460",7,28,"warning_1",0,1,28,99,0.4,0,99
"461",7,29,"warning_1",0,1,29,99,0.8,0,99
"462",7,30,"warning_1",0,1,30,99,0.8,0,99
"463",7,31,"warning_1",0,1,31,99,0.4,0,99
"464",7,32,"warning_1",0,1,32,99,0.2,0,99
"465",7,33,"warning_1",0,1,33,99,0.4,0,99
"466",7,34,"warning_1",0,1,34,99,0.4,0,99
"467",7,35,"warning_1",0,1,35,99,0.4,0,99
"468",7,36,"warning_1",0,1,36,99,0.8,0,99
"469",7,37,"warning_1",0,1,37,99,1,1,99
"470",7,38,"warning_1",0,1,38,99,1,1,99
"471",7,39,"warning_1",0,1,39,99,1,1,99
"472",7,40,"warning_1",0,1,40,99,0.6,1,99
"473",7,41,"warning_1",0,1,41,99,1,1,99
"474",7,42,"warning_1",0,1,42,99,1,1,99
"475",7,43,"warning_1",0,1,43,99,0.4,1,99
"476",7,44,"warning_1",0,1,44,99,0.8,1,99
"477",7,45,"warning_1",0,1,45,99,0.6,1,99
"478",7,46,"warning_1",0,1,46,99,0.4,1,99
"479",7,47,"warning_1",0,1,47,99,1,1,99
"480",7,48,"warning_1",0,1,48,99,1,1,99
"481",7,49,"warning_1",0,1,49,99,0.4,1,99
"482",7,50,"warning_1",0,1,50,99,1,1,99
"483",7,51,"warning_1",0,1,51,99,1,1,99
"484",7,52,"warning_1",0,1,52,99,0.4,1,99
"485",7,53,"warning_1",0,1,53,99,0.6,1,99
"486",7,54,"warning_1",0,1,54,99,0.4,1,99
"487",7,55,"warning_1",0,1,55,99,0.4,1,99
"488",7,56,"warning_1",0,1,56,99,0.6,1,99
"489",7,57,"warning_1",0,1,57,99,1,1,99
"490",7,58,"warning_1",0,1,58,99,1,1,99
"491",7,59,"warning_1",0,1,59,99,1,1,99
"492",7,60,"warning_1",0,1,60,99,0.4,1,99
"493",7,61,"warning_1",0,1,61,99,1,1,99
"494",7,62,"warning_1",0,1,62,99,1,1,99
"495",7,63,"warning_1",0,1,63,99,0.8,1,99
"496",7,64,"warning_1",0,1,64,99,0.6,1,99
"497",7,65,"warning_1",0,1,65,99,1,1,99
"498",7,66,"warning_1",0,1,66,99,0.6,1,99
"499",7,67,"warning_1",0,1,67,99,0.4,1,99
"500",7,68,"warning_1",0,1,68,99,0.6,1,99
"501",7,69,"warning_1",0,1,69,99,0.4,1,99
"502",7,70,"warning_1",0,1,70,99,0.4,1,99
"503",7,71,"warning_1",0,1,71,99,1,1,99
"504",7,72,"warning_1",0,1,72,99,1,1,99
"505",8,1,"warning_1",0,1,1,99,0,1,99
"506",8,2,"warning_1",0,1,2,99,0,1,99
"507",8,3,"warning_1",0,1,3,99,0,1,99
"508",8,4,"warning_1",0,1,4,99,0,1,99
"509",8,5,"warning_1",0,1,5,99,1,1,99
"510",8,6,"warning_1",0,1,6,99,0,1,99
"511",8,7,"warning_1",0,1,7,99,1,1,99
"512",8,8,"warning_1",0,1,8,99,1,1,99
"513",8,9,"warning_1",0,1,9,99,1,1,99
"514",8,10,"warning_1",0,1,10,99,0,1,99
"515",8,11,"warning_1",0,1,11,99,1,1,99
"516",8,12,"warning_1",0,1,12,99,1,1,99
"517",8,13,"warning_1",0,1,13,99,0,1,99
"518",8,14,"warning_1",0,1,14,99,1,1,99
"519",8,15,"warning_1",0,1,15,99,0,1,99
"520",8,16,"warning_1",0,1,16,99,1,1,99
"521",8,17,"warning_1",0,1,17,99,1,1,99
"522",8,18,"warning_1",0,1,18,99,1,1,99
"523",8,19,"warning_1",0,1,19,99,1,1,99
"524",8,20,"warning_1",0,1,20,99,0,1,99
"525",8,21,"warning_1",0,1,21,99,1,1,99
"526",8,22,"warning_1",0,1,22,99,1,1,99
"527",8,23,"warning_1",0,1,23,99,0,1,99
"528",8,24,"warning_1",0,1,24,99,0,1,99
"529",8,25,"warning_1",0,1,25,99,0,1,99
"530",8,26,"warning_1",0,1,26,99,0,1,99
"531",8,27,"warning_1",0,1,27,99,1,1,99
"532",8,28,"warning_1",0,1,28,99,1,1,99
"533",8,29,"warning_1",0,1,29,99,1,1,99
"534",8,30,"warning_1",0,1,30,99,1,1,99
"535",8,31,"warning_1",0,1,31,99,0,1,99
"536",8,32,"warning_1",0,1,32,99,1,1,99
"537",8,33,"warning_1",0,1,33,99,0,1,99
"538",8,34,"warning_1",0,1,34,99,0,1,99
"539",8,35,"warning_1",0,1,35,99,0,1,99
"540",8,36,"warning_1",0,1,36,99,0,1,99
"541",8,37,"warning_1",0,1,37,99,0,0,99
"542",8,38,"warning_1",0,1,38,99,0,0,99
"543",8,39,"warning_1",0,1,39,99,0,0,99
"544",8,40,"warning_1",0,1,40,99,1,0,99
"545",8,41,"warning_1",0,1,41,99,0,0,99
"546",8,42,"warning_1",0,1,42,99,1,0,99
"547",8,43,"warning_1",0,1,43,99,1,0,99
"548",8,44,"warning_1",0,1,44,99,0,0,99
"549",8,45,"warning_1",0,1,45,99,0,0,99
"550",8,46,"warning_1",0,1,46,99,0,0,99
"551",8,47,"warning_1",0,1,47,99,0,0,99
"552",8,48,"warning_1",0,1,48,99,0,0,99
"553",8,49,"warning_1",0,1,49,99,1,0,99
"554",8,50,"warning_1",0,1,50,99,1,0,99
"555",8,51,"warning_1",0,1,51,99,0,0,99
"556",8,52,"warning_1",0,1,52,99,1,0,99
"557",8,53,"warning_1",0,1,53,99,0,0,99
"558",8,54,"warning_1",0,1,54,99,1,0,99
"559",8,55,"warning_1",0,1,55,99,1,0,99
"560",8,56,"warning_1",0,1,56,99,0,0,99
"561",8,57,"warning_1",0,1,57,99,0,0,99
"562",8,58,"warning_1",0,1,58,99,1,0,99
"563",8,59,"warning_1",0,1,59,99,1,0,99
"564",8,60,"warning_1",0,1,60,99,0,0,99
"565",8,61,"warning_1",0,1,61,99,1,0,99
"566",8,62,"warning_1",0,1,62,99,0,0,99
"567",8,63,"warning_1",0,1,63,99,0,0,99
"568",8,64,"warning_1",0,1,64,99,0,0,99
"569",8,65,"warning_1",0,1,65,99,1,0,99
"570",8,66,"warning_1",0,1,66,99,1,0,99
"571",8,67,"warning_1",0,1,67,99,1,0,99
"572",8,68,"warning_1",0,1,68,99,1,0,99
"573",8,69,"warning_1",0,1,69,99,1,0,99
"574",8,70,"warning_1",0,1,70,99,1,0,99
"575",8,71,"warning_1",0,1,71,99,1,0,99
"576",8,72,"warning_1",0,1,72,99,1,0,99
"577",9,1,"warning_0",0,1,1,99,0.6,0,99
"578",9,2,"warning_0",0,1,2,99,0.2,0,99
"579",9,3,"warning_0",0,1,3,99,0.4,0,99
"580",9,4,"warning_0",0,1,4,99,0.2,0,99
"581",9,5,"warning_0",0,1,5,99,0.4,0,99
"582",9,6,"warning_0",0,1,6,99,0.2,0,99
"583",9,7,"warning_0",0,1,7,99,0.4,0,99
"584",9,8,"warning_0",0,1,8,99,0.6,0,99
"585",9,9,"warning_0",0,1,9,99,0.4,0,99
"586",9,10,"warning_0",0,1,10,99,0.4,0,99
"587",9,11,"warning_0",0,1,11,99,0.6,0,99
"588",9,12,"warning_0",0,1,12,99,0.6,0,99
"589",9,13,"warning_0",0,1,13,99,0.6,0,99
"590",9,14,"warning_0",0,1,14,99,0.4,0,99
"591",9,15,"warning_0",0,1,15,99,0.6,0,99
"592",9,16,"warning_0",0,1,16,99,0.4,0,99
"593",9,17,"warning_0",0,1,17,99,0.2,0,99
"594",9,18,"warning_0",0,1,18,99,1,0,99
"595",9,19,"warning_0",0,1,19,99,0.8,0,99
"596",9,20,"warning_0",0,1,20,99,0.6,0,99
"597",9,21,"warning_0",0,1,21,99,0.6,0,99
"598",9,22,"warning_0",0,1,22,99,0.6,0,99
"599",9,23,"warning_0",0,1,23,99,0.6,0,99
"600",9,24,"warning_0",0,1,24,99,0.4,0,99
"601",9,25,"warning_0",0,1,25,99,0.6,0,99
"602",9,26,"warning_0",0,1,26,99,0.6,0,99
"603",9,27,"warning_0",0,1,27,99,0.2,0,99
"604",9,28,"warning_0",0,1,28,99,0.4,0,99
"605",9,29,"warning_0",0,1,29,99,0.6,0,99
"606",9,30,"warning_0",0,1,30,99,0.4,0,99
"607",9,31,"warning_0",0,1,31,99,0.6,0,99
"608",9,32,"warning_0",0,1,32,99,0.2,0,99
"609",9,33,"warning_0",0,1,33,99,0.8,0,99
"610",9,34,"warning_0",0,1,34,99,0.6,0,99
"611",9,35,"warning_0",0,1,35,99,0.4,0,99
"612",9,36,"warning_0",0,1,36,99,0.4,0,99
"613",9,37,"warning_0",0,1,37,99,0.4,1,99
"614",9,38,"warning_0",0,1,38,99,0.4,1,99
"615",9,39,"warning_0",0,1,39,99,0.2,1,99
"616",9,40,"warning_0",0,1,40,99,0.6,1,99
"617",9,41,"warning_0",0,1,41,99,0.6,1,99
"618",9,42,"warning_0",0,1,42,99,0.6,1,99
"619",9,43,"warning_0",0,1,43,99,0.2,1,99
"620",9,44,"warning_0",0,1,44,99,0.6,1,99
"621",9,45,"warning_0",0,1,45,99,0.6,1,99
"622",9,46,"warning_0",0,1,46,99,0.6,1,99
"623",9,47,"warning_0",0,1,47,99,0.4,1,99
"624",9,48,"warning_0",0,1,48,99,0.6,1,99
"625",9,49,"warning_0",0,1,49,99,0.8,1,99
"626",9,50,"warning_0",0,1,50,99,0.8,1,99
"627",9,51,"warning_0",0,1,51,99,0.2,1,99
"628",9,52,"warning_0",0,1,52,99,0.4,1,99
"629",9,53,"warning_0",0,1,53,99,1,1,99
"630",9,54,"warning_0",0,1,54,99,0.4,1,99
"631",9,55,"warning_0",0,1,55,99,0.6,1,99
"632",9,56,"warning_0",0,1,56,99,0.4,1,99
"633",9,57,"warning_0",0,1,57,99,0.8,1,99
"634",9,58,"warning_0",0,1,58,99,0.8,1,99
"635",9,59,"warning_0",0,1,59,99,0.4,1,99
"636",9,60,"warning_0",0,1,60,99,0.6,1,99
"637",9,61,"warning_0",0,1,61,99,0.4,1,99
"638",9,62,"warning_0",0,1,62,99,0.4,1,99
"639",9,63,"warning_0",0,1,63,99,0.2,1,99
"640",9,64,"warning_0",0,1,64,99,0.6,1,99
"641",9,65,"warning_0",0,1,65,99,0.6,1,99
"642",9,66,"warning_0",0,1,66,99,0.6,1,99
"643",9,67,"warning_0",0,1,67,99,0.4,1,99
"644",9,68,"warning_0",0,1,68,99,0.2,1,99
"645",9,69,"warning_0",0,1,69,99,0.8,1,99
"646",9,70,"warning_0",0,1,70,99,0.6,1,99
"647",9,71,"warning_0",0,1,71,99,0.4,1,99
"648",9,72,"warning_0",0,1,72,99,0.8,1,99
"649",10,1,"warning_1",0,1,1,99,0.8,0,99
"650",10,2,"warning_1",0,1,2,99,0.4,0,99
"651",10,3,"warning_1",0,1,3,99,0.4,0,99
"652",10,4,"warning_1",0,1,4,99,1,0,99
"653",10,5,"warning_1",0,1,5,99,0.2,0,99
"654",10,6,"warning_1",0,1,6,99,0.4,0,99
"655",10,7,"warning_1",0,1,7,99,0.6,0,99
"656",10,8,"warning_1",0,1,8,99,0.2,0,99
"657",10,9,"warning_1",0,1,9,99,0.6,0,99
"658",10,10,"warning_1",0,1,10,99,0.6,0,99
"659",10,11,"warning_1",0,1,11,99,0.6,0,99
"660",10,12,"warning_1",0,1,12,99,0.4,0,99
"661",10,13,"warning_1",0,1,13,99,0.2,0,99
"662",10,14,"warning_1",0,1,14,99,0.4,0,99
"663",10,15,"warning_1",0,1,15,99,0.2,0,99
"664",10,16,"warning_1",0,1,16,99,0.8,0,99
"665",10,17,"warning_1",0,1,17,99,0.6,0,99
"666",10,18,"warning_1",0,1,18,99,0,0,99
"667",10,19,"warning_1",0,1,19,99,0.2,0,99
"668",10,20,"warning_1",0,1,20,99,0.4,0,99
"669",10,21,"warning_1",0,1,21,99,0.6,0,99
"670",10,22,"warning_1",0,1,22,99,0.2,0,99
"671",10,23,"warning_1",0,1,23,99,0.8,0,99
"672",10,24,"warning_1",0,1,24,99,1,0,99
"673",10,25,"warning_1",0,1,25,99,1,0,99
"674",10,26,"warning_1",0,1,26,99,0.2,0,99
"675",10,27,"warning_1",0,1,27,99,1,0,99
"676",10,28,"warning_1",0,1,28,99,0.8,0,99
"677",10,29,"warning_1",0,1,29,99,0,0,99
"678",10,30,"warning_1",0,1,30,99,1,0,99
"679",10,31,"warning_1",0,1,31,99,0.6,0,99
"680",10,32,"warning_1",0,1,32,99,0.6,0,99
"681",10,33,"warning_1",0,1,33,99,1,0,99
"682",10,34,"warning_1",0,1,34,99,0.2,0,99
"683",10,35,"warning_1",0,1,35,99,1,0,99
"684",10,36,"warning_1",0,1,36,99,1,0,99
"685",10,37,"warning_1",0,1,37,99,0.8,1,99
"686",10,38,"warning_1",0,1,38,99,0.8,1,99
"687",10,39,"warning_1",0,1,39,99,0.8,1,99
"688",10,40,"warning_1",0,1,40,99,0.8,1,99
"689",10,41,"warning_1",0,1,41,99,0.8,1,99
"690",10,42,"warning_1",0,1,42,99,1,1,99
"691",10,43,"warning_1",0,1,43,99,1,1,99
"692",10,44,"warning_1",0,1,44,99,0.8,1,99
"693",10,45,"warning_1",0,1,45,99,0.2,1,99
"694",10,46,"warning_1",0,1,46,99,0.8,1,99
"695",10,47,"warning_1",0,1,47,99,0.4,1,99
"696",10,48,"warning_1",0,1,48,99,0,1,99
"697",10,49,"warning_1",0,1,49,99,0.8,1,99
"698",10,50,"warning_1",0,1,50,99,0.2,1,99
"699",10,51,"warning_1",0,1,51,99,0.4,1,99
"700",10,52,"warning_1",0,1,52,99,0.4,1,99
"701",10,53,"warning_1",0,1,53,99,0,1,99
"702",10,54,"warning_1",0,1,54,99,0.6,1,99
"703",10,55,"warning_1",0,1,55,99,0.2,1,99
"704",10,56,"warning_1",0,1,56,99,0,1,99
"705",10,57,"warning_1",0,1,57,99,0.4,1,99
"706",10,58,"warning_1",0,1,58,99,0.6,1,99
"707",10,59,"warning_1",0,1,59,99,0.4,1,99
"708",10,60,"warning_1",0,1,60,99,0.8,1,99
"709",10,61,"warning_1",0,1,61,99,0.2,1,99
"710",10,62,"warning_1",0,1,62,99,1,1,99
"711",10,63,"warning_1",0,1,63,99,1,1,99
"712",10,64,"warning_1",0,1,64,99,0.8,1,99
"713",10,65,"warning_1",0,1,65,99,0.2,1,99
"714",10,66,"warning_1",0,1,66,99,0.8,1,99
"715",10,67,"warning_1",0,1,67,99,0.2,1,99
"716",10,68,"warning_1",0,1,68,99,0.8,1,99
"717",10,69,"warning_1",0,1,69,99,0.2,1,99
"718",10,70,"warning_1",0,1,70,99,1,1,99
"719",10,71,"warning_1",0,1,71,99,1,1,99
"720",10,72,"warning_1",0,1,72,99,1,1,99
"721",11,1,"warning_1",0,1,1,99,0,0,99
"722",11,2,"warning_1",0,1,2,99,0,0,99
"723",11,3,"warning_1",0,1,3,99,0,0,99
"724",11,4,"warning_1",0,1,4,99,0,0,99
"725",11,5,"warning_1",0,1,5,99,0,0,99
"726",11,6,"warning_1",0,1,6,99,0,0,99
"727",11,7,"warning_1",0,1,7,99,0,0,99
"728",11,8,"warning_1",0,1,8,99,0.8,0,99
"729",11,9,"warning_1",0,1,9,99,0,0,99
"730",11,10,"warning_1",0,1,10,99,0,0,99
"731",11,11,"warning_1",0,1,11,99,0.4,0,99
"732",11,12,"warning_1",0,1,12,99,0.6,0,99
"733",11,13,"warning_1",0,1,13,99,0.4,0,99
"734",11,14,"warning_1",0,1,14,99,0,0,99
"735",11,15,"warning_1",0,1,15,99,1,0,99
"736",11,16,"warning_1",0,1,16,99,0,0,99
"737",11,17,"warning_1",0,1,17,99,0,0,99
"738",11,18,"warning_1",0,1,18,99,0,0,99
"739",11,19,"warning_1",0,1,19,99,0,0,99
"740",11,20,"warning_1",0,1,20,99,0,0,99
"741",11,21,"warning_1",0,1,21,99,0.6,0,99
"742",11,22,"warning_1",0,1,22,99,0,0,99
"743",11,23,"warning_1",0,1,23,99,0,0,99
"744",11,24,"warning_1",0,1,24,99,0,0,99
"745",11,25,"warning_1",0,1,25,99,0,0,99
"746",11,26,"warning_1",0,1,26,99,0,0,99
"747",11,27,"warning_1",0,1,27,99,0,0,99
"748",11,28,"warning_1",0,1,28,99,0.8,0,99
"749",11,29,"warning_1",0,1,29,99,0,0,99
"750",11,30,"warning_1",0,1,30,99,0,0,99
"751",11,31,"warning_1",0,1,31,99,0,0,99
"752",11,32,"warning_1",0,1,32,99,0,0,99
"753",11,33,"warning_1",0,1,33,99,0,0,99
"754",11,34,"warning_1",0,1,34,99,0,0,99
"755",11,35,"warning_1",0,1,35,99,0,0,99
"756",11,36,"warning_1",0,1,36,99,0,0,99
"757",11,37,"warning_1",0,1,37,99,0,1,99
"758",11,38,"warning_1",0,1,38,99,0,1,99
"759",11,39,"warning_1",0,1,39,99,0,1,99
"760",11,40,"warning_1",0,1,40,99,0,1,99
"761",11,41,"warning_1",0,1,41,99,0,1,99
"762",11,42,"warning_1",0,1,42,99,0,1,99
"763",11,43,"warning_1",0,1,43,99,0.6,1,99
"764",11,44,"warning_1",0,1,44,99,0,1,99
"765",11,45,"warning_1",0,1,45,99,0,1,99
"766",11,46,"warning_1",0,1,46,99,0,1,99
"767",11,47,"warning_1",0,1,47,99,0,1,99
"768",11,48,"warning_1",0,1,48,99,0.6,1,99
"769",11,49,"warning_1",0,1,49,99,0,1,99
"770",11,50,"warning_1",0,1,50,99,0,1,99
"771",11,51,"warning_1",0,1,51,99,0.2,1,99
"772",11,52,"warning_1",0,1,52,99,0,1,99
"773",11,53,"warning_1",0,1,53,99,0,1,99
"774",11,54,"warning_1",0,1,54,99,0,1,99
"775",11,55,"warning_1",0,1,55,99,0,1,99
"776",11,56,"warning_1",0,1,56,99,0,1,99
"777",11,57,"warning_1",0,1,57,99,0,1,99
"778",11,58,"warning_1",0,1,58,99,0,1,99
"779",11,59,"warning_1",0,1,59,99,0,1,99
"780",11,60,"warning_1",0,1,60,99,0.4,1,99
"781",11,61,"warning_1",0,1,61,99,0,1,99
"782",11,62,"warning_1",0,1,62,99,0,1,99
"783",11,63,"warning_1",0,1,63,99,0,1,99
"784",11,64,"warning_1",0,1,64,99,0,1,99
"785",11,65,"warning_1",0,1,65,99,0,1,99
"786",11,66,"warning_1",0,1,66,99,0,1,99
"787",11,67,"warning_1",0,1,67,99,0,1,99
"788",11,68,"warning_1",0,1,68,99,0,1,99
"789",11,69,"warning_1",0,1,69,99,0,1,99
"790",11,70,"warning_1",0,1,70,99,0,1,99
"791",11,71,"warning_1",0,1,71,99,0,1,99
"792",11,72,"warning_1",0,1,72,99,0,1,99
"793",12,1,"warning_0",0,1,1,99,0.4,1,99
"794",12,2,"warning_0",0,1,2,99,0.2,1,99
"795",12,3,"warning_0",0,1,3,99,0.4,1,99
"796",12,4,"warning_0",0,1,4,99,0.2,1,99
"797",12,5,"warning_0",0,1,5,99,0.2,1,99
"798",12,6,"warning_0",0,1,6,99,0.4,1,99
"799",12,7,"warning_0",0,1,7,99,0.6,1,99
"800",12,8,"warning_0",0,1,8,99,0.6,1,99
"801",12,9,"warning_0",0,1,9,99,0.4,1,99
"802",12,10,"warning_0",0,1,10,99,0.6,1,99
"803",12,11,"warning_0",0,1,11,99,0.2,1,99
"804",12,12,"warning_0",0,1,12,99,0.8,1,99
"805",12,13,"warning_0",0,1,13,99,0.4,1,99
"806",12,14,"warning_0",0,1,14,99,0.8,1,99
"807",12,15,"warning_0",0,1,15,99,0.6,1,99
"808",12,16,"warning_0",0,1,16,99,0,1,99
"809",12,17,"warning_0",0,1,17,99,0.2,1,99
"810",12,18,"warning_0",0,1,18,99,1,1,99
"811",12,19,"warning_0",0,1,19,99,0.2,1,99
"812",12,20,"warning_0",0,1,20,99,0.2,1,99
"813",12,21,"warning_0",0,1,21,99,0.6,1,99
"814",12,22,"warning_0",0,1,22,99,0.8,1,99
"815",12,23,"warning_0",0,1,23,99,0.2,1,99
"816",12,24,"warning_0",0,1,24,99,0.2,1,99
"817",12,25,"warning_0",0,1,25,99,0.6,1,99
"818",12,26,"warning_0",0,1,26,99,0.4,1,99
"819",12,27,"warning_0",0,1,27,99,0.4,1,99
"820",12,28,"warning_0",0,1,28,99,0.8,1,99
"821",12,29,"warning_0",0,1,29,99,0,1,99
"822",12,30,"warning_0",0,1,30,99,0.2,1,99
"823",12,31,"warning_0",0,1,31,99,0.6,1,99
"824",12,32,"warning_0",0,1,32,99,0.6,1,99
"825",12,33,"warning_0",0,1,33,99,0.4,1,99
"826",12,34,"warning_0",0,1,34,99,0.6,1,99
"827",12,35,"warning_0",0,1,35,99,0.6,1,99
"828",12,36,"warning_0",0,1,36,99,0.6,1,99
"829",12,37,"warning_0",0,1,37,99,0.6,0,99
"830",12,38,"warning_0",0,1,38,99,0.2,0,99
"831",12,39,"warning_0",0,1,39,99,0.2,0,99
"832",12,40,"warning_0",0,1,40,99,0.4,0,99
"833",12,41,"warning_0",0,1,41,99,0.2,0,99
"834",12,42,"warning_0",0,1,42,99,0.4,0,99
"835",12,43,"warning_0",0,1,43,99,0.8,0,99
"836",12,44,"warning_0",0,1,44,99,0,0,99
"837",12,45,"warning_0",0,1,45,99,0.4,0,99
"838",12,46,"warning_0",0,1,46,99,0.4,0,99
"839",12,47,"warning_0",0,1,47,99,0.2,0,99
"840",12,48,"warning_0",0,1,48,99,0.4,0,99
"841",12,49,"warning_0",0,1,49,99,0.4,0,99
"842",12,50,"warning_0",0,1,50,99,0.4,0,99
"843",12,51,"warning_0",0,1,51,99,0.6,0,99
"844",12,52,"warning_0",0,1,52,99,0.8,0,99
"845",12,53,"warning_0",0,1,53,99,0.6,0,99
"846",12,54,"warning_0",0,1,54,99,0.4,0,99
"847",12,55,"warning_0",0,1,55,99,0.4,0,99
"848",12,56,"warning_0",0,1,56,99,0.6,0,99
"849",12,57,"warning_0",0,1,57,99,0.6,0,99
"850",12,58,"warning_0",0,1,58,99,0.4,0,99
"851",12,59,"warning_0",0,1,59,99,0.6,0,99
"852",12,60,"warning_0",0,1,60,99,0.4,0,99
"853",12,61,"warning_0",0,1,61,99,0.8,0,99
"854",12,62,"warning_0",0,1,62,99,0.4,0,99
"855",12,63,"warning_0",0,1,63,99,0.4,0,99
"856",12,64,"warning_0",0,1,64,99,0.4,0,99
"857",12,65,"warning_0",0,1,65,99,0.6,0,99
"858",12,66,"warning_0",0,1,66,99,0,0,99
"859",12,67,"warning_0",0,1,67,99,0.6,0,99
"860",12,68,"warning_0",0,1,68,99,0.4,0,99
"861",12,69,"warning_0",0,1,69,99,0.4,0,99
"862",12,70,"warning_0",0,1,70,99,0.4,0,99
"863",12,71,"warning_0",0,1,71,99,0.8,0,99
"864",12,72,"warning_0",0,1,72,99,0.6,0,99
"865",13,1,"warning_1",0,1,1,99,0.6,1,99
"866",13,2,"warning_1",0,1,2,99,0.2,1,99
"867",13,3,"warning_1",0,1,3,99,0.6,1,99
"868",13,4,"warning_1",0,1,4,99,0.8,1,99
"869",13,5,"warning_1",0,1,5,99,1,1,99
"870",13,6,"warning_1",0,1,6,99,0.6,1,99
"871",13,7,"warning_1",0,1,7,99,0.8,1,99
"872",13,8,"warning_1",0,1,8,99,0,1,99
"873",13,9,"warning_1",0,1,9,99,0,1,99
"874",13,10,"warning_1",0,1,10,99,0.8,1,99
"875",13,11,"warning_1",0,1,11,99,1,1,99
"876",13,12,"warning_1",0,1,12,99,0.8,1,99
"877",13,13,"warning_1",0,1,13,99,0.8,1,99
"878",13,14,"warning_1",0,1,14,99,0.8,1,99
"879",13,15,"warning_1",0,1,15,99,0.2,1,99
"880",13,16,"warning_1",0,1,16,99,0.2,1,99
"881",13,17,"warning_1",0,1,17,99,0.8,1,99
"882",13,18,"warning_1",0,1,18,99,0.8,1,99
"883",13,19,"warning_1",0,1,19,99,0.6,1,99
"884",13,20,"warning_1",0,1,20,99,1,1,99
"885",13,21,"warning_1",0,1,21,99,0.8,1,99
"886",13,22,"warning_1",0,1,22,99,0.6,1,99
"887",13,23,"warning_1",0,1,23,99,0.8,1,99
"888",13,24,"warning_1",0,1,24,99,1,1,99
"889",13,25,"warning_1",0,1,25,99,0.8,1,99
"890",13,26,"warning_1",0,1,26,99,0.4,1,99
"891",13,27,"warning_1",0,1,27,99,1,1,99
"892",13,28,"warning_1",0,1,28,99,0.8,1,99
"893",13,29,"warning_1",0,1,29,99,0.2,1,99
"894",13,30,"warning_1",0,1,30,99,0,1,99
"895",13,31,"warning_1",0,1,31,99,0.8,1,99
"896",13,32,"warning_1",0,1,32,99,0.8,1,99
"897",13,33,"warning_1",0,1,33,99,0.8,1,99
"898",13,34,"warning_1",0,1,34,99,1,1,99
"899",13,35,"warning_1",0,1,35,99,0.8,1,99
"900",13,36,"warning_1",0,1,36,99,0,1,99
"901",13,37,"warning_1",0,1,37,99,0.4,0,99
"902",13,38,"warning_1",0,1,38,99,0.6,0,99
"903",13,39,"warning_1",0,1,39,99,0.4,0,99
"904",13,40,"warning_1",0,1,40,99,0.2,0,99
"905",13,41,"warning_1",0,1,41,99,0.6,0,99
"906",13,42,"warning_1",0,1,42,99,0.4,0,99
"907",13,43,"warning_1",0,1,43,99,0,0,99
"908",13,44,"warning_1",0,1,44,99,0.4,0,99
"909",13,45,"warning_1",0,1,45,99,0.6,0,99
"910",13,46,"warning_1",0,1,46,99,0.4,0,99
"911",13,47,"warning_1",0,1,47,99,1,0,99
"912",13,48,"warning_1",0,1,48,99,0.8,0,99
"913",13,49,"warning_1",0,1,49,99,0.8,0,99
"914",13,50,"warning_1",0,1,50,99,0.2,0,99
"915",13,51,"warning_1",0,1,51,99,0.6,0,99
"916",13,52,"warning_1",0,1,52,99,0.2,0,99
"917",13,53,"warning_1",0,1,53,99,0.8,0,99
"918",13,54,"warning_1",0,1,54,99,0.6,0,99
"919",13,55,"warning_1",0,1,55,99,0.6,0,99
"920",13,56,"warning_1",0,1,56,99,0.4,0,99
"921",13,57,"warning_1",0,1,57,99,0.6,0,99
"922",13,58,"warning_1",0,1,58,99,0.6,0,99
"923",13,59,"warning_1",0,1,59,99,0.6,0,99
"924",13,60,"warning_1",0,1,60,99,0.8,0,99
"925",13,61,"warning_1",0,1,61,99,0.2,0,99
"926",13,62,"warning_1",0,1,62,99,0.2,0,99
"927",13,63,"warning_1",0,1,63,99,0.8,0,99
"928",13,64,"warning_1",0,1,64,99,0.8,0,99
"929",13,65,"warning_1",0,1,65,99,0.6,0,99
"930",13,66,"warning_1",0,1,66,99,0,0,99
"931",13,67,"warning_1",0,1,67,99,0.8,0,99
"932",13,68,"warning_1",0,1,68,99,0.6,0,99
"933",13,69,"warning_1",0,1,69,99,1,0,99
"934",13,70,"warning_1",0,1,70,99,0.6,0,99
"935",13,71,"warning_1",0,1,71,99,1,0,99
"936",13,72,"warning_1",0,1,72,99,0.2,0,99
"937",14,1,"warning_0",0,1,1,99,0.4,0,99
"938",14,2,"warning_0",0,1,2,99,0.4,0,99
"939",14,3,"warning_0",0,1,3,99,0.6,0,99
"940",14,4,"warning_0",0,1,4,99,0.6,0,99
"941",14,5,"warning_0",0,1,5,99,0.8,0,99
"942",14,6,"warning_0",0,1,6,99,0.6,0,99
"943",14,7,"warning_0",0,1,7,99,0.4,0,99
"944",14,8,"warning_0",0,1,8,99,1,0,99
"945",14,9,"warning_0",0,1,9,99,0.4,0,99
"946",14,10,"warning_0",0,1,10,99,0.4,0,99
"947",14,11,"warning_0",0,1,11,99,0.4,0,99
"948",14,12,"warning_0",0,1,12,99,0,0,99
"949",14,13,"warning_0",0,1,13,99,0.4,0,99
"950",14,14,"warning_0",0,1,14,99,0.4,0,99
"951",14,15,"warning_0",0,1,15,99,0.4,0,99
"952",14,16,"warning_0",0,1,16,99,0.8,0,99
"953",14,17,"warning_0",0,1,17,99,0.2,0,99
"954",14,18,"warning_0",0,1,18,99,0.6,0,99
"955",14,19,"warning_0",0,1,19,99,0.8,0,99
"956",14,20,"warning_0",0,1,20,99,0.6,0,99
"957",14,21,"warning_0",0,1,21,99,0.8,0,99
"958",14,22,"warning_0",0,1,22,99,1,0,99
"959",14,23,"warning_0",0,1,23,99,0.8,0,99
"960",14,24,"warning_0",0,1,24,99,0,0,99
"961",14,25,"warning_0",0,1,25,99,0.2,0,99
"962",14,26,"warning_0",0,1,26,99,0.4,0,99
"963",14,27,"warning_0",0,1,27,99,0.6,0,99
"964",14,28,"warning_0",0,1,28,99,0.2,0,99
"965",14,29,"warning_0",0,1,29,99,0.2,0,99
"966",14,30,"warning_0",0,1,30,99,0.4,0,99
"967",14,31,"warning_0",0,1,31,99,0.8,0,99
"968",14,32,"warning_0",0,1,32,99,0.8,0,99
"969",14,33,"warning_0",0,1,33,99,0.4,0,99
"970",14,34,"warning_0",0,1,34,99,0.2,0,99
"971",14,35,"warning_0",0,1,35,99,0.2,0,99
"972",14,36,"warning_0",0,1,36,99,0.4,0,99
"973",14,37,"warning_0",0,1,37,99,1,1,99
"974",14,38,"warning_0",0,1,38,99,1,1,99
"975",14,39,"warning_0",0,1,39,99,1,1,99
"976",14,40,"warning_0",0,1,40,99,1,1,99
"977",14,41,"warning_0",0,1,41,99,1,1,99
"978",14,42,"warning_0",0,1,42,99,1,1,99
"979",14,43,"warning_0",0,1,43,99,1,1,99
"980",14,44,"warning_0",0,1,44,99,1,1,99
"981",14,45,"warning_0",0,1,45,99,1,1,99
"982",14,46,"warning_0",0,1,46,99,1,1,99
"983",14,47,"warning_0",0,1,47,99,1,1,99
"984",14,48,"warning_0",0,1,48,99,1,1,99
"985",14,49,"warning_0",0,1,49,99,0.6,1,99
"986",14,50,"warning_0",0,1,50,99,1,1,99
"987",14,51,"warning_0",0,1,51,99,1,1,99
"988",14,52,"warning_0",0,1,52,99,1,1,99
"989",14,53,"warning_0",0,1,53,99,1,1,99
"990",14,54,"warning_0",0,1,54,99,0.4,1,99
"991",14,55,"warning_0",0,1,55,99,1,1,99
"992",14,56,"warning_0",0,1,56,99,0.4,1,99
"993",14,57,"warning_0",0,1,57,99,1,1,99
"994",14,58,"warning_0",0,1,58,99,1,1,99
"995",14,59,"warning_0",0,1,59,99,1,1,99
"996",14,60,"warning_0",0,1,60,99,1,1,99
"997",14,61,"warning_0",0,1,61,99,1,1,99
"998",14,62,"warning_0",0,1,62,99,0.8,1,99
"999",14,63,"warning_0",0,1,63,99,1,1,99
"1000",14,64,"warning_0",0,1,64,99,1,1,99
"1001",14,65,"warning_0",0,1,65,99,1,1,99
"1002",14,66,"warning_0",0,1,66,99,1,1,99
"1003",14,67,"warning_0",0,1,67,99,1,1,99
"1004",14,68,"warning_0",0,1,68,99,0.2,1,99
"1005",14,69,"warning_0",0,1,69,99,1,1,99
"1006",14,70,"warning_0",0,1,70,99,1,1,99
"1007",14,71,"warning_0",0,1,71,99,1,1,99
"1008",14,72,"warning_0",0,1,72,99,1,1,99
"1009",15,1,"warning_1",0,1,1,99,0.6,1,99
"1010",15,2,"warning_1",0,1,2,99,0.6,1,99
"1011",15,3,"warning_1",0,1,3,99,0.8,1,99
"1012",15,4,"warning_1",0,1,4,99,0.6,1,99
"1013",15,5,"warning_1",0,1,5,99,0.4,1,99
"1014",15,6,"warning_1",0,1,6,99,0.6,1,99
"1015",15,7,"warning_1",0,1,7,99,0.4,1,99
"1016",15,8,"warning_1",0,1,8,99,0.6,1,99
"1017",15,9,"warning_1",0,1,9,99,0.6,1,99
"1018",15,10,"warning_1",0,1,10,99,0.6,1,99
"1019",15,11,"warning_1",0,1,11,99,0.6,1,99
"1020",15,12,"warning_1",0,1,12,99,0.6,1,99
"1021",15,13,"warning_1",0,1,13,99,0.6,1,99
"1022",15,14,"warning_1",0,1,14,99,0.8,1,99
"1023",15,15,"warning_1",0,1,15,99,0.6,1,99
"1024",15,16,"warning_1",0,1,16,99,0.6,1,99
"1025",15,17,"warning_1",0,1,17,99,0.8,1,99
"1026",15,18,"warning_1",0,1,18,99,0.8,1,99
"1027",15,19,"warning_1",0,1,19,99,0.4,1,99
"1028",15,20,"warning_1",0,1,20,99,0.4,1,99
"1029",15,21,"warning_1",0,1,21,99,0.4,1,99
"1030",15,22,"warning_1",0,1,22,99,0.6,1,99
"1031",15,23,"warning_1",0,1,23,99,0.4,1,99
"1032",15,24,"warning_1",0,1,24,99,0.4,1,99
"1033",15,25,"warning_1",0,1,25,99,0.6,1,99
"1034",15,26,"warning_1",0,1,26,99,0.4,1,99
"1035",15,27,"warning_1",0,1,27,99,0.4,1,99
"1036",15,28,"warning_1",0,1,28,99,0.2,1,99
"1037",15,29,"warning_1",0,1,29,99,0.6,1,99
"1038",15,30,"warning_1",0,1,30,99,0.4,1,99
"1039",15,31,"warning_1",0,1,31,99,0.4,1,99
"1040",15,32,"warning_1",0,1,32,99,0.4,1,99
"1041",15,33,"warning_1",0,1,33,99,0.6,1,99
"1042",15,34,"warning_1",0,1,34,99,0.6,1,99
"1043",15,35,"warning_1",0,1,35,99,0.8,1,99
"1044",15,36,"warning_1",0,1,36,99,0.2,1,99
"1045",15,37,"warning_1",0,1,37,99,0.4,0,99
"1046",15,38,"warning_1",0,1,38,99,0.6,0,99
"1047",15,39,"warning_1",0,1,39,99,0.4,0,99
"1048",15,40,"warning_1",0,1,40,99,0.4,0,99
"1049",15,41,"warning_1",0,1,41,99,0.8,0,99
"1050",15,42,"warning_1",0,1,42,99,0.4,0,99
"1051",15,43,"warning_1",0,1,43,99,0.6,0,99
"1052",15,44,"warning_1",0,1,44,99,0.4,0,99
"1053",15,45,"warning_1",0,1,45,99,0.8,0,99
"1054",15,46,"warning_1",0,1,46,99,0.4,0,99
"1055",15,47,"warning_1",0,1,47,99,0.8,0,99
"1056",15,48,"warning_1",0,1,48,99,1,0,99
"1057",15,49,"warning_1",0,1,49,99,0.8,0,99
"1058",15,50,"warning_1",0,1,50,99,0.6,0,99
"1059",15,51,"warning_1",0,1,51,99,0.8,0,99
"1060",15,52,"warning_1",0,1,52,99,0.6,0,99
"1061",15,53,"warning_1",0,1,53,99,0.4,0,99
"1062",15,54,"warning_1",0,1,54,99,0.2,0,99
"1063",15,55,"warning_1",0,1,55,99,0.4,0,99
"1064",15,56,"warning_1",0,1,56,99,0.6,0,99
"1065",15,57,"warning_1",0,1,57,99,0.4,0,99
"1066",15,58,"warning_1",0,1,58,99,0.6,0,99
"1067",15,59,"warning_1",0,1,59,99,0.6,0,99
"1068",15,60,"warning_1",0,1,60,99,0.6,0,99
"1069",15,61,"warning_1",0,1,61,99,0.6,0,99
"1070",15,62,"warning_1",0,1,62,99,0.4,0,99
"1071",15,63,"warning_1",0,1,63,99,0.6,0,99
"1072",15,64,"warning_1",0,1,64,99,0.6,0,99
"1073",15,65,"warning_1",0,1,65,99,0.8,0,99
"1074",15,66,"warning_1",0,1,66,99,0.6,0,99
"1075",15,67,"warning_1",0,1,67,99,0.4,0,99
"1076",15,68,"warning_1",0,1,68,99,0.6,0,99
"1077",15,69,"warning_1",0,1,69,99,0.8,0,99
"1078",15,70,"warning_1",0,1,70,99,0.6,0,99
"1079",15,71,"warning_1",0,1,71,99,1,0,99
"1080",15,72,"warning_1",0,1,72,99,0.6,0,99
"1081",16,1,"warning_0",0,1,1,99,0.2,0,99
"1082",16,2,"warning_0",0,1,2,99,0.2,0,99
"1083",16,3,"warning_0",0,1,3,99,0,0,99
"1084",16,4,"warning_0",0,1,4,99,0.6,0,99
"1085",16,5,"warning_0",0,1,5,99,0.4,0,99
"1086",16,6,"warning_0",0,1,6,99,0.2,0,99
"1087",16,7,"warning_0",0,1,7,99,0.6,0,99
"1088",16,8,"warning_0",0,1,8,99,0.2,0,99
"1089",16,9,"warning_0",0,1,9,99,0.4,0,99
"1090",16,10,"warning_0",0,1,10,99,0.2,0,99
"1091",16,11,"warning_0",0,1,11,99,0.4,0,99
"1092",16,12,"warning_0",0,1,12,99,0.4,0,99
"1093",16,13,"warning_0",0,1,13,99,0.4,0,99
"1094",16,14,"warning_0",0,1,14,99,0.2,0,99
"1095",16,15,"warning_0",0,1,15,99,0.4,0,99
"1096",16,16,"warning_0",0,1,16,99,0.4,0,99
"1097",16,17,"warning_0",0,1,17,99,0.4,0,99
"1098",16,18,"warning_0",0,1,18,99,0.4,0,99
"1099",16,19,"warning_0",0,1,19,99,0.6,0,99
"1100",16,20,"warning_0",0,1,20,99,0.6,0,99
"1101",16,21,"warning_0",0,1,21,99,0.8,0,99
"1102",16,22,"warning_0",0,1,22,99,0.8,0,99
"1103",16,23,"warning_0",0,1,23,99,0.4,0,99
"1104",16,24,"warning_0",0,1,24,99,0.4,0,99
"1105",16,25,"warning_0",0,1,25,99,0.2,0,99
"1106",16,26,"warning_0",0,1,26,99,0.2,0,99
"1107",16,27,"warning_0",0,1,27,99,0.8,0,99
"1108",16,28,"warning_0",0,1,28,99,0.2,0,99
"1109",16,29,"warning_0",0,1,29,99,0.2,0,99
"1110",16,30,"warning_0",0,1,30,99,0.6,0,99
"1111",16,31,"warning_0",0,1,31,99,0.6,0,99
"1112",16,32,"warning_0",0,1,32,99,0.6,0,99
"1113",16,33,"warning_0",0,1,33,99,0,0,99
"1114",16,34,"warning_0",0,1,34,99,0.4,0,99
"1115",16,35,"warning_0",0,1,35,99,0.2,0,99
"1116",16,36,"warning_0",0,1,36,99,0.2,0,99
"1117",16,37,"warning_0",0,1,37,99,0.2,1,99
"1118",16,38,"warning_0",0,1,38,99,0.4,1,99
"1119",16,39,"warning_0",0,1,39,99,0.4,1,99
"1120",16,40,"warning_0",0,1,40,99,0.6,1,99
"1121",16,41,"warning_0",0,1,41,99,0.2,1,99
"1122",16,42,"warning_0",0,1,42,99,0.2,1,99
"1123",16,43,"warning_0",0,1,43,99,0.4,1,99
"1124",16,44,"warning_0",0,1,44,99,0.4,1,99
"1125",16,45,"warning_0",0,1,45,99,0.8,1,99
"1126",16,46,"warning_0",0,1,46,99,0.4,1,99
"1127",16,47,"warning_0",0,1,47,99,0.2,1,99
"1128",16,48,"warning_0",0,1,48,99,0.6,1,99
"1129",16,49,"warning_0",0,1,49,99,0.2,1,99
"1130",16,50,"warning_0",0,1,50,99,0.6,1,99
"1131",16,51,"warning_0",0,1,51,99,0.6,1,99
"1132",16,52,"warning_0",0,1,52,99,0.4,1,99
"1133",16,53,"warning_0",0,1,53,99,0.4,1,99
"1134",16,54,"warning_0",0,1,54,99,0.4,1,99
"1135",16,55,"warning_0",0,1,55,99,0.8,1,99
"1136",16,56,"warning_0",0,1,56,99,0.4,1,99
"1137",16,57,"warning_0",0,1,57,99,0.2,1,99
"1138",16,58,"warning_0",0,1,58,99,0.4,1,99
"1139",16,59,"warning_0",0,1,59,99,0.4,1,99
"1140",16,60,"warning_0",0,1,60,99,0.2,1,99
"1141",16,61,"warning_0",0,1,61,99,0.4,1,99
"1142",16,62,"warning_0",0,1,62,99,0.4,1,99
"1143",16,63,"warning_0",0,1,63,99,0.6,1,99
"1144",16,64,"warning_0",0,1,64,99,0.2,1,99
"1145",16,65,"warning_0",0,1,65,99,0.2,1,99
"1146",16,66,"warning_0",0,1,66,99,0.4,1,99
"1147",16,67,"warning_0",0,1,67,99,0.4,1,99
"1148",16,68,"warning_0",0,1,68,99,0.6,1,99
"1149",16,69,"warning_0",0,1,69,99,0.2,1,99
"1150",16,70,"warning_0",0,1,70,99,0.4,1,99
"1151",16,71,"warning_0",0,1,71,99,0.4,1,99
"1152",16,72,"warning_0",0,1,72,99,0.4,1,99
"1153",17,1,"warning_0",0,1,1,99,0.8,1,99
"1154",17,2,"warning_0",0,1,2,99,1,1,99
"1155",17,3,"warning_0",0,1,3,99,0.6,1,99
"1156",17,4,"warning_0",0,1,4,99,1,1,99
"1157",17,5,"warning_0",0,1,5,99,1,1,99
"1158",17,6,"warning_0",0,1,6,99,0.8,1,99
"1159",17,7,"warning_0",0,1,7,99,1,1,99
"1160",17,8,"warning_0",0,1,8,99,1,1,99
"1161",17,9,"warning_0",0,1,9,99,0.2,1,99
"1162",17,10,"warning_0",0,1,10,99,1,1,99
"1163",17,11,"warning_0",0,1,11,99,1,1,99
"1164",17,12,"warning_0",0,1,12,99,0.8,1,99
"1165",17,13,"warning_0",0,1,13,99,1,1,99
"1166",17,14,"warning_0",0,1,14,99,1,1,99
"1167",17,15,"warning_0",0,1,15,99,1,1,99
"1168",17,16,"warning_0",0,1,16,99,1,1,99
"1169",17,17,"warning_0",0,1,17,99,1,1,99
"1170",17,18,"warning_0",0,1,18,99,1,1,99
"1171",17,19,"warning_0",0,1,19,99,0.8,1,99
"1172",17,20,"warning_0",0,1,20,99,0.8,1,99
"1173",17,21,"warning_0",0,1,21,99,1,1,99
"1174",17,22,"warning_0",0,1,22,99,0.6,1,99
"1175",17,23,"warning_0",0,1,23,99,0.8,1,99
"1176",17,24,"warning_0",0,1,24,99,1,1,99
"1177",17,25,"warning_0",0,1,25,99,0.8,1,99
"1178",17,26,"warning_0",0,1,26,99,0.6,1,99
"1179",17,27,"warning_0",0,1,27,99,0.8,1,99
"1180",17,28,"warning_0",0,1,28,99,1,1,99
"1181",17,29,"warning_0",0,1,29,99,1,1,99
"1182",17,30,"warning_0",0,1,30,99,1,1,99
"1183",17,31,"warning_0",0,1,31,99,0.8,1,99
"1184",17,32,"warning_0",0,1,32,99,0,1,99
"1185",17,33,"warning_0",0,1,33,99,1,1,99
"1186",17,34,"warning_0",0,1,34,99,1,1,99
"1187",17,35,"warning_0",0,1,35,99,0.2,1,99
"1188",17,36,"warning_0",0,1,36,99,1,1,99
"1189",17,37,"warning_0",0,1,37,99,0.2,0,99
"1190",17,38,"warning_0",0,1,38,99,0.4,0,99
"1191",17,39,"warning_0",0,1,39,99,0,0,99
"1192",17,40,"warning_0",0,1,40,99,0.4,0,99
"1193",17,41,"warning_0",0,1,41,99,0,0,99
"1194",17,42,"warning_0",0,1,42,99,0.2,0,99
"1195",17,43,"warning_0",0,1,43,99,0.2,0,99
"1196",17,44,"warning_0",0,1,44,99,0,0,99
"1197",17,45,"warning_0",0,1,45,99,0.6,0,99
"1198",17,46,"warning_0",0,1,46,99,0.6,0,99
"1199",17,47,"warning_0",0,1,47,99,0.2,0,99
"1200",17,48,"warning_0",0,1,48,99,1,0,99
"1201",17,49,"warning_0",0,1,49,99,0.6,0,99
"1202",17,50,"warning_0",0,1,50,99,0.6,0,99
"1203",17,51,"warning_0",0,1,51,99,1,0,99
"1204",17,52,"warning_0",0,1,52,99,0.8,0,99
"1205",17,53,"warning_0",0,1,53,99,0.8,0,99
"1206",17,54,"warning_0",0,1,54,99,0.4,0,99
"1207",17,55,"warning_0",0,1,55,99,0.2,0,99
"1208",17,56,"warning_0",0,1,56,99,0.2,0,99
"1209",17,57,"warning_0",0,1,57,99,0.8,0,99
"1210",17,58,"warning_0",0,1,58,99,0,0,99
"1211",17,59,"warning_0",0,1,59,99,0.2,0,99
"1212",17,60,"warning_0",0,1,60,99,0.6,0,99
"1213",17,61,"warning_0",0,1,61,99,0.2,0,99
"1214",17,62,"warning_0",0,1,62,99,0.8,0,99
"1215",17,63,"warning_0",0,1,63,99,0.4,0,99
"1216",17,64,"warning_0",0,1,64,99,0.8,0,99
"1217",17,65,"warning_0",0,1,65,99,0.2,0,99
"1218",17,66,"warning_0",0,1,66,99,0.4,0,99
"1219",17,67,"warning_0",0,1,67,99,0.2,0,99
"1220",17,68,"warning_0",0,1,68,99,0.4,0,99
"1221",17,69,"warning_0",0,1,69,99,1,0,99
"1222",17,70,"warning_0",0,1,70,99,0.8,0,99
"1223",17,71,"warning_0",0,1,71,99,0.4,0,99
"1224",17,72,"warning_0",0,1,72,99,0.8,0,99
"1225",18,1,"warning_1",0,1,1,99,0,1,99
"1226",18,2,"warning_1",0,1,2,99,0.2,1,99
"1227",18,3,"warning_1",0,1,3,99,1,1,99
"1228",18,4,"warning_1",0,1,4,99,0.4,1,99
"1229",18,5,"warning_1",0,1,5,99,0,1,99
"1230",18,6,"warning_1",0,1,6,99,0,1,99
"1231",18,7,"warning_1",0,1,7,99,0.6,1,99
"1232",18,8,"warning_1",0,1,8,99,0.6,1,99
"1233",18,9,"warning_1",0,1,9,99,0,1,99
"1234",18,10,"warning_1",0,1,10,99,0.6,1,99
"1235",18,11,"warning_1",0,1,11,99,0.4,1,99
"1236",18,12,"warning_1",0,1,12,99,0.8,1,99
"1237",18,13,"warning_1",0,1,13,99,1,1,99
"1238",18,14,"warning_1",0,1,14,99,1,1,99
"1239",18,15,"warning_1",0,1,15,99,0.6,1,99
"1240",18,16,"warning_1",0,1,16,99,0.8,1,99
"1241",18,17,"warning_1",0,1,17,99,0.8,1,99
"1242",18,18,"warning_1",0,1,18,99,0.4,1,99
"1243",18,19,"warning_1",0,1,19,99,0.8,1,99
"1244",18,20,"warning_1",0,1,20,99,0.2,1,99
"1245",18,21,"warning_1",0,1,21,99,0.6,1,99
"1246",18,22,"warning_1",0,1,22,99,0.6,1,99
"1247",18,23,"warning_1",0,1,23,99,0.2,1,99
"1248",18,24,"warning_1",0,1,24,99,0.6,1,99
"1249",18,25,"warning_1",0,1,25,99,0.2,1,99
"1250",18,26,"warning_1",0,1,26,99,0.8,1,99
"1251",18,27,"warning_1",0,1,27,99,0.8,1,99
"1252",18,28,"warning_1",0,1,28,99,0.8,1,99
"1253",18,29,"warning_1",0,1,29,99,0.8,1,99
"1254",18,30,"warning_1",0,1,30,99,0,1,99
"1255",18,31,"warning_1",0,1,31,99,0.8,1,99
"1256",18,32,"warning_1",0,1,32,99,0,1,99
"1257",18,33,"warning_1",0,1,33,99,0.4,1,99
"1258",18,34,"warning_1",0,1,34,99,0.8,1,99
"1259",18,35,"warning_1",0,1,35,99,0.2,1,99
"1260",18,36,"warning_1",0,1,36,99,1,1,99
"1261",18,37,"warning_1",0,1,37,99,0.8,0,99
"1262",18,38,"warning_1",0,1,38,99,0.2,0,99
"1263",18,39,"warning_1",0,1,39,99,0,0,99
"1264",18,40,"warning_1",0,1,40,99,0.4,0,99
"1265",18,41,"warning_1",0,1,41,99,0.2,0,99
"1266",18,42,"warning_1",0,1,42,99,0.2,0,99
"1267",18,43,"warning_1",0,1,43,99,0.8,0,99
"1268",18,44,"warning_1",0,1,44,99,0.2,0,99
"1269",18,45,"warning_1",0,1,45,99,0.4,0,99
"1270",18,46,"warning_1",0,1,46,99,0.2,0,99
"1271",18,47,"warning_1",0,1,47,99,0.2,0,99
"1272",18,48,"warning_1",0,1,48,99,1,0,99
"1273",18,49,"warning_1",0,1,49,99,0.8,0,99
"1274",18,50,"warning_1",0,1,50,99,0.6,0,99
"1275",18,51,"warning_1",0,1,51,99,1,0,99
"1276",18,52,"warning_1",0,1,52,99,0.4,0,99
"1277",18,53,"warning_1",0,1,53,99,0.8,0,99
"1278",18,54,"warning_1",0,1,54,99,0.8,0,99
"1279",18,55,"warning_1",0,1,55,99,0.2,0,99
"1280",18,56,"warning_1",0,1,56,99,0,0,99
"1281",18,57,"warning_1",0,1,57,99,0.8,0,99
"1282",18,58,"warning_1",0,1,58,99,0.8,0,99
"1283",18,59,"warning_1",0,1,59,99,0.2,0,99
"1284",18,60,"warning_1",0,1,60,99,0,0,99
"1285",18,61,"warning_1",0,1,61,99,0.8,0,99
"1286",18,62,"warning_1",0,1,62,99,0.2,0,99
"1287",18,63,"warning_1",0,1,63,99,1,0,99
"1288",18,64,"warning_1",0,1,64,99,1,0,99
"1289",18,65,"warning_1",0,1,65,99,0.8,0,99
"1290",18,66,"warning_1",0,1,66,99,0.2,0,99
"1291",18,67,"warning_1",0,1,67,99,0.2,0,99
"1292",18,68,"warning_1",0,1,68,99,1,0,99
"1293",18,69,"warning_1",0,1,69,99,0.2,0,99
"1294",18,70,"warning_1",0,1,70,99,0.8,0,99
"1295",18,71,"warning_1",0,1,71,99,1,0,99
"1296",18,72,"warning_1",0,1,72,99,0.8,0,99
"1297",19,1,"warning_1",0,1,1,99,0.4,0,99
"1298",19,2,"warning_1",0,1,2,99,0.6,0,99
"1299",19,3,"warning_1",0,1,3,99,0.6,0,99
"1300",19,4,"warning_1",0,1,4,99,0.8,0,99
"1301",19,5,"warning_1",0,1,5,99,0.6,0,99
"1302",19,6,"warning_1",0,1,6,99,0.6,0,99
"1303",19,7,"warning_1",0,1,7,99,0.8,0,99
"1304",19,8,"warning_1",0,1,8,99,0.8,0,99
"1305",19,9,"warning_1",0,1,9,99,0.2,0,99
"1306",19,10,"warning_1",0,1,10,99,0.6,0,99
"1307",19,11,"warning_1",0,1,11,99,0.6,0,99
"1308",19,12,"warning_1",0,1,12,99,0.6,0,99
"1309",19,13,"warning_1",0,1,13,99,0.6,0,99
"1310",19,14,"warning_1",0,1,14,99,0.2,0,99
"1311",19,15,"warning_1",0,1,15,99,0.8,0,99
"1312",19,16,"warning_1",0,1,16,99,0.4,0,99
"1313",19,17,"warning_1",0,1,17,99,0.6,0,99
"1314",19,18,"warning_1",0,1,18,99,1,0,99
"1315",19,19,"warning_1",0,1,19,99,0.6,0,99
"1316",19,20,"warning_1",0,1,20,99,0.2,0,99
"1317",19,21,"warning_1",0,1,21,99,0.8,0,99
"1318",19,22,"warning_1",0,1,22,99,0.6,0,99
"1319",19,23,"warning_1",0,1,23,99,0.2,0,99
"1320",19,24,"warning_1",0,1,24,99,0.6,0,99
"1321",19,25,"warning_1",0,1,25,99,0.4,0,99
"1322",19,26,"warning_1",0,1,26,99,0.6,0,99
"1323",19,27,"warning_1",0,1,27,99,0,0,99
"1324",19,28,"warning_1",0,1,28,99,0.2,0,99
"1325",19,29,"warning_1",0,1,29,99,0.4,0,99
"1326",19,30,"warning_1",0,1,30,99,0.6,0,99
"1327",19,31,"warning_1",0,1,31,99,0,0,99
"1328",19,32,"warning_1",0,1,32,99,0.8,0,99
"1329",19,33,"warning_1",0,1,33,99,0.8,0,99
"1330",19,34,"warning_1",0,1,34,99,0.8,0,99
"1331",19,35,"warning_1",0,1,35,99,0.6,0,99
"1332",19,36,"warning_1",0,1,36,99,0.6,0,99
"1333",19,37,"warning_1",0,1,37,99,0.6,1,99
"1334",19,38,"warning_1",0,1,38,99,0.2,1,99
"1335",19,39,"warning_1",0,1,39,99,0.6,1,99
"1336",19,40,"warning_1",0,1,40,99,0.6,1,99
"1337",19,41,"warning_1",0,1,41,99,0.2,1,99
"1338",19,42,"warning_1",0,1,42,99,0.6,1,99
"1339",19,43,"warning_1",0,1,43,99,0.8,1,99
"1340",19,44,"warning_1",0,1,44,99,0.6,1,99
"1341",19,45,"warning_1",0,1,45,99,0.6,1,99
"1342",19,46,"warning_1",0,1,46,99,0.6,1,99
"1343",19,47,"warning_1",0,1,47,99,1,1,99
"1344",19,48,"warning_1",0,1,48,99,0.6,1,99
"1345",19,49,"warning_1",0,1,49,99,0.6,1,99
"1346",19,50,"warning_1",0,1,50,99,1,1,99
"1347",19,51,"warning_1",0,1,51,99,1,1,99
"1348",19,52,"warning_1",0,1,52,99,0.6,1,99
"1349",19,53,"warning_1",0,1,53,99,0.8,1,99
"1350",19,54,"warning_1",0,1,54,99,0.8,1,99
"1351",19,55,"warning_1",0,1,55,99,0.8,1,99
"1352",19,56,"warning_1",0,1,56,99,0.2,1,99
"1353",19,57,"warning_1",0,1,57,99,0.6,1,99
"1354",19,58,"warning_1",0,1,58,99,0.6,1,99
"1355",19,59,"warning_1",0,1,59,99,0.6,1,99
"1356",19,60,"warning_1",0,1,60,99,0.8,1,99
"1357",19,61,"warning_1",0,1,61,99,0.6,1,99
"1358",19,62,"warning_1",0,1,62,99,0.4,1,99
"1359",19,63,"warning_1",0,1,63,99,0.6,1,99
"1360",19,64,"warning_1",0,1,64,99,0.8,1,99
"1361",19,65,"warning_1",0,1,65,99,0.2,1,99
"1362",19,66,"warning_1",0,1,66,99,0.6,1,99
"1363",19,67,"warning_1",0,1,67,99,0.6,1,99
"1364",19,68,"warning_1",0,1,68,99,1,1,99
"1365",19,69,"warning_1",0,1,69,99,1,1,99
"1366",19,70,"warning_1",0,1,70,99,0.6,1,99
"1367",19,71,"warning_1",0,1,71,99,0,1,99
"1368",19,72,"warning_1",0,1,72,99,0.4,1,99
"1369",20,1,"warning_0",0,1,1,99,0.8,1,99
"1370",20,2,"warning_0",0,1,2,99,0.8,1,99
"1371",20,3,"warning_0",0,1,3,99,0.2,1,99
"1372",20,4,"warning_0",0,1,4,99,0.6,1,99
"1373",20,5,"warning_0",0,1,5,99,0.2,1,99
"1374",20,6,"warning_0",0,1,6,99,0.8,1,99
"1375",20,7,"warning_0",0,1,7,99,1,1,99
"1376",20,8,"warning_0",0,1,8,99,0.2,1,99
"1377",20,9,"warning_0",0,1,9,99,1,1,99
"1378",20,10,"warning_0",0,1,10,99,0.2,1,99
"1379",20,11,"warning_0",0,1,11,99,0.4,1,99
"1380",20,12,"warning_0",0,1,12,99,1,1,99
"1381",20,13,"warning_0",0,1,13,99,0.6,1,99
"1382",20,14,"warning_0",0,1,14,99,0.8,1,99
"1383",20,15,"warning_0",0,1,15,99,1,1,99
"1384",20,16,"warning_0",0,1,16,99,0.2,1,99
"1385",20,17,"warning_0",0,1,17,99,1,1,99
"1386",20,18,"warning_0",0,1,18,99,0.8,1,99
"1387",20,19,"warning_0",0,1,19,99,1,1,99
"1388",20,20,"warning_0",0,1,20,99,1,1,99
"1389",20,21,"warning_0",0,1,21,99,0.2,1,99
"1390",20,22,"warning_0",0,1,22,99,0.6,1,99
"1391",20,23,"warning_0",0,1,23,99,0.2,1,99
"1392",20,24,"warning_0",0,1,24,99,0.2,1,99
"1393",20,25,"warning_0",0,1,25,99,0.8,1,99
"1394",20,26,"warning_0",0,1,26,99,0.2,1,99
"1395",20,27,"warning_0",0,1,27,99,0.6,1,99
"1396",20,28,"warning_0",0,1,28,99,0.8,1,99
"1397",20,29,"warning_0",0,1,29,99,0.2,1,99
"1398",20,30,"warning_0",0,1,30,99,0.2,1,99
"1399",20,31,"warning_0",0,1,31,99,1,1,99
"1400",20,32,"warning_0",0,1,32,99,0.6,1,99
"1401",20,33,"warning_0",0,1,33,99,0.8,1,99
"1402",20,34,"warning_0",0,1,34,99,0.6,1,99
"1403",20,35,"warning_0",0,1,35,99,0.6,1,99
"1404",20,36,"warning_0",0,1,36,99,0.4,1,99
"1405",20,37,"warning_0",0,1,37,99,0.2,0,99
"1406",20,38,"warning_0",0,1,38,99,0.2,0,99
"1407",20,39,"warning_0",0,1,39,99,0.4,0,99
"1408",20,40,"warning_0",0,1,40,99,0.8,0,99
"1409",20,41,"warning_0",0,1,41,99,0.6,0,99
"1410",20,42,"warning_0",0,1,42,99,1,0,99
"1411",20,43,"warning_0",0,1,43,99,0.4,0,99
"1412",20,44,"warning_0",0,1,44,99,0.8,0,99
"1413",20,45,"warning_0",0,1,45,99,0.2,0,99
"1414",20,46,"warning_0",0,1,46,99,0.4,0,99
"1415",20,47,"warning_0",0,1,47,99,0,0,99
"1416",20,48,"warning_0",0,1,48,99,0.6,0,99
"1417",20,49,"warning_0",0,1,49,99,0.6,0,99
"1418",20,50,"warning_0",0,1,50,99,0.2,0,99
"1419",20,51,"warning_0",0,1,51,99,0.2,0,99
"1420",20,52,"warning_0",0,1,52,99,0.2,0,99
"1421",20,53,"warning_0",0,1,53,99,0.4,0,99
"1422",20,54,"warning_0",0,1,54,99,0.8,0,99
"1423",20,55,"warning_0",0,1,55,99,0.4,0,99
"1424",20,56,"warning_0",0,1,56,99,0.6,0,99
"1425",20,57,"warning_0",0,1,57,99,0.8,0,99
"1426",20,58,"warning_0",0,1,58,99,0.2,0,99
"1427",20,59,"warning_0",0,1,59,99,0.4,0,99
"1428",20,60,"warning_0",0,1,60,99,0.2,0,99
"1429",20,61,"warning_0",0,1,61,99,0.2,0,99
"1430",20,62,"warning_0",0,1,62,99,1,0,99
"1431",20,63,"warning_0",0,1,63,99,0.8,0,99
"1432",20,64,"warning_0",0,1,64,99,0.2,0,99
"1433",20,65,"warning_0",0,1,65,99,0.4,0,99
"1434",20,66,"warning_0",0,1,66,99,0.8,0,99
"1435",20,67,"warning_0",0,1,67,99,0.2,0,99
"1436",20,68,"warning_0",0,1,68,99,0.2,0,99
"1437",20,69,"warning_0",0,1,69,99,0.6,0,99
"1438",20,70,"warning_0",0,1,70,99,0.6,0,99
"1439",20,71,"warning_0",0,1,71,99,0.6,0,99
"1440",20,72,"warning_0",0,1,72,99,0.8,0,99
"1441",21,1,"warning_1",0,1,1,99,1,1,99
"1442",21,2,"warning_1",0,1,2,99,0.4,1,99
"1443",21,3,"warning_1",0,1,3,99,1,1,99
"1444",21,4,"warning_1",0,1,4,99,1,1,99
"1445",21,5,"warning_1",0,1,5,99,1,1,99
"1446",21,6,"warning_1",0,1,6,99,1,1,99
"1447",21,7,"warning_1",0,1,7,99,0.6,1,99
"1448",21,8,"warning_1",0,1,8,99,1,1,99
"1449",21,9,"warning_1",0,1,9,99,1,1,99
"1450",21,10,"warning_1",0,1,10,99,1,1,99
"1451",21,11,"warning_1",0,1,11,99,1,1,99
"1452",21,12,"warning_1",0,1,12,99,1,1,99
"1453",21,13,"warning_1",0,1,13,99,1,1,99
"1454",21,14,"warning_1",0,1,14,99,1,1,99
"1455",21,15,"warning_1",0,1,15,99,0,1,99
"1456",21,16,"warning_1",0,1,16,99,1,1,99
"1457",21,17,"warning_1",0,1,17,99,1,1,99
"1458",21,18,"warning_1",0,1,18,99,0,1,99
"1459",21,19,"warning_1",0,1,19,99,0,1,99
"1460",21,20,"warning_1",0,1,20,99,0,1,99
"1461",21,21,"warning_1",0,1,21,99,1,1,99
"1462",21,22,"warning_1",0,1,22,99,1,1,99
"1463",21,23,"warning_1",0,1,23,99,1,1,99
"1464",21,24,"warning_1",0,1,24,99,0,1,99
"1465",21,25,"warning_1",0,1,25,99,0.4,1,99
"1466",21,26,"warning_1",0,1,26,99,0,1,99
"1467",21,27,"warning_1",0,1,27,99,1,1,99
"1468",21,28,"warning_1",0,1,28,99,0,1,99
"1469",21,29,"warning_1",0,1,29,99,1,1,99
"1470",21,30,"warning_1",0,1,30,99,0.4,1,99
"1471",21,31,"warning_1",0,1,31,99,1,1,99
"1472",21,32,"warning_1",0,1,32,99,1,1,99
"1473",21,33,"warning_1",0,1,33,99,0,1,99
"1474",21,34,"warning_1",0,1,34,99,1,1,99
"1475",21,35,"warning_1",0,1,35,99,1,1,99
"1476",21,36,"warning_1",0,1,36,99,1,1,99
"1477",21,37,"warning_1",0,1,37,99,0.4,0,99
"1478",21,38,"warning_1",0,1,38,99,0,0,99
"1479",21,39,"warning_1",0,1,39,99,0,0,99
"1480",21,40,"warning_1",0,1,40,99,1,0,99
"1481",21,41,"warning_1",0,1,41,99,0,0,99
"1482",21,42,"warning_1",0,1,42,99,0.4,0,99
"1483",21,43,"warning_1",0,1,43,99,0.6,0,99
"1484",21,44,"warning_1",0,1,44,99,0.4,0,99
"1485",21,45,"warning_1",0,1,45,99,1,0,99
"1486",21,46,"warning_1",0,1,46,99,0.4,0,99
"1487",21,47,"warning_1",0,1,47,99,1,0,99
"1488",21,48,"warning_1",0,1,48,99,0,0,99
"1489",21,49,"warning_1",0,1,49,99,0,0,99
"1490",21,50,"warning_1",0,1,50,99,1,0,99
"1491",21,51,"warning_1",0,1,51,99,1,0,99
"1492",21,52,"warning_1",0,1,52,99,0.4,0,99
"1493",21,53,"warning_1",0,1,53,99,1,0,99
"1494",21,54,"warning_1",0,1,54,99,1,0,99
"1495",21,55,"warning_1",0,1,55,99,0.4,0,99
"1496",21,56,"warning_1",0,1,56,99,1,0,99
"1497",21,57,"warning_1",0,1,57,99,0,0,99
"1498",21,58,"warning_1",0,1,58,99,0.6,0,99
"1499",21,59,"warning_1",0,1,59,99,1,0,99
"1500",21,60,"warning_1",0,1,60,99,0.4,0,99
"1501",21,61,"warning_1",0,1,61,99,0,0,99
"1502",21,62,"warning_1",0,1,62,99,0.4,0,99
"1503",21,63,"warning_1",0,1,63,99,1,0,99
"1504",21,64,"warning_1",0,1,64,99,1,0,99
"1505",21,65,"warning_1",0,1,65,99,1,0,99
"1506",21,66,"warning_1",0,1,66,99,1,0,99
"1507",21,67,"warning_1",0,1,67,99,1,0,99
"1508",21,68,"warning_1",0,1,68,99,1,0,99
"1509",21,69,"warning_1",0,1,69,99,1,0,99
"1510",21,70,"warning_1",0,1,70,99,1,0,99
"1511",21,71,"warning_1",0,1,71,99,1,0,99
"1512",21,72,"warning_1",0,1,72,99,1,0,99
"1513",22,1,"warning_0",0,1,1,99,0.6,0,99
"1514",22,2,"warning_0",0,1,2,99,0.4,0,99
"1515",22,3,"warning_0",0,1,3,99,0.6,0,99
"1516",22,4,"warning_0",0,1,4,99,0.6,0,99
"1517",22,5,"warning_0",0,1,5,99,0.6,0,99
"1518",22,6,"warning_0",0,1,6,99,0.6,0,99
"1519",22,7,"warning_0",0,1,7,99,0.4,0,99
"1520",22,8,"warning_0",0,1,8,99,0.8,0,99
"1521",22,9,"warning_0",0,1,9,99,0.6,0,99
"1522",22,10,"warning_0",0,1,10,99,0.6,0,99
"1523",22,11,"warning_0",0,1,11,99,0.6,0,99
"1524",22,12,"warning_0",0,1,12,99,0.6,0,99
"1525",22,13,"warning_0",0,1,13,99,0.4,0,99
"1526",22,14,"warning_0",0,1,14,99,0.6,0,99
"1527",22,15,"warning_0",0,1,15,99,0.6,0,99
"1528",22,16,"warning_0",0,1,16,99,0.8,0,99
"1529",22,17,"warning_0",0,1,17,99,0.8,0,99
"1530",22,18,"warning_0",0,1,18,99,1,0,99
"1531",22,19,"warning_0",0,1,19,99,0.8,0,99
"1532",22,20,"warning_0",0,1,20,99,0.4,0,99
"1533",22,21,"warning_0",0,1,21,99,0.6,0,99
"1534",22,22,"warning_0",0,1,22,99,1,0,99
"1535",22,23,"warning_0",0,1,23,99,0.4,0,99
"1536",22,24,"warning_0",0,1,24,99,0.6,0,99
"1537",22,25,"warning_0",0,1,25,99,0,0,99
"1538",22,26,"warning_0",0,1,26,99,0.6,0,99
"1539",22,27,"warning_0",0,1,27,99,0,0,99
"1540",22,28,"warning_0",0,1,28,99,0.4,0,99
"1541",22,29,"warning_0",0,1,29,99,0.4,0,99
"1542",22,30,"warning_0",0,1,30,99,1,0,99
"1543",22,31,"warning_0",0,1,31,99,0.4,0,99
"1544",22,32,"warning_0",0,1,32,99,0.4,0,99
"1545",22,33,"warning_0",0,1,33,99,0.4,0,99
"1546",22,34,"warning_0",0,1,34,99,0.6,0,99
"1547",22,35,"warning_0",0,1,35,99,0.6,0,99
"1548",22,36,"warning_0",0,1,36,99,0.8,0,99
"1549",22,37,"warning_0",0,1,37,99,1,1,99
"1550",22,38,"warning_0",0,1,38,99,1,1,99
"1551",22,39,"warning_0",0,1,39,99,1,1,99
"1552",22,40,"warning_0",0,1,40,99,1,1,99
"1553",22,41,"warning_0",0,1,41,99,1,1,99
"1554",22,42,"warning_0",0,1,42,99,0.6,1,99
"1555",22,43,"warning_0",0,1,43,99,1,1,99
"1556",22,44,"warning_0",0,1,44,99,1,1,99
"1557",22,45,"warning_0",0,1,45,99,1,1,99
"1558",22,46,"warning_0",0,1,46,99,1,1,99
"1559",22,47,"warning_0",0,1,47,99,1,1,99
"1560",22,48,"warning_0",0,1,48,99,1,1,99
"1561",22,49,"warning_0",0,1,49,99,1,1,99
"1562",22,50,"warning_0",0,1,50,99,1,1,99
"1563",22,51,"warning_0",0,1,51,99,1,1,99
"1564",22,52,"warning_0",0,1,52,99,1,1,99
"1565",22,53,"warning_0",0,1,53,99,1,1,99
"1566",22,54,"warning_0",0,1,54,99,1,1,99
"1567",22,55,"warning_0",0,1,55,99,1,1,99
"1568",22,56,"warning_0",0,1,56,99,1,1,99
"1569",22,57,"warning_0",0,1,57,99,1,1,99
"1570",22,58,"warning_0",0,1,58,99,1,1,99
"1571",22,59,"warning_0",0,1,59,99,1,1,99
"1572",22,60,"warning_0",0,1,60,99,1,1,99
"1573",22,61,"warning_0",0,1,61,99,1,1,99
"1574",22,62,"warning_0",0,1,62,99,1,1,99
"1575",22,63,"warning_0",0,1,63,99,1,1,99
"1576",22,64,"warning_0",0,1,64,99,1,1,99
"1577",22,65,"warning_0",0,1,65,99,1,1,99
"1578",22,66,"warning_0",0,1,66,99,1,1,99
"1579",22,67,"warning_0",0,1,67,99,1,1,99
"1580",22,68,"warning_0",0,1,68,99,1,1,99
"1581",22,69,"warning_0",0,1,69,99,1,1,99
"1582",22,70,"warning_0",0,1,70,99,1,1,99
"1583",22,71,"warning_0",0,1,71,99,1,1,99
"1584",22,72,"warning_0",0,1,72,99,1,1,99
"1585",23,1,"warning_1",0,1,1,99,0.8,0,99
"1586",23,2,"warning_1",0,1,2,99,0.4,0,99
"1587",23,3,"warning_1",0,1,3,99,0.6,0,99
"1588",23,4,"warning_1",0,1,4,99,0.6,0,99
"1589",23,5,"warning_1",0,1,5,99,0.2,0,99
"1590",23,6,"warning_1",0,1,6,99,0.2,0,99
"1591",23,7,"warning_1",0,1,7,99,0.8,0,99
"1592",23,8,"warning_1",0,1,8,99,0.4,0,99
"1593",23,9,"warning_1",0,1,9,99,0.2,0,99
"1594",23,10,"warning_1",0,1,10,99,0.6,0,99
"1595",23,11,"warning_1",0,1,11,99,0.6,0,99
"1596",23,12,"warning_1",0,1,12,99,0.2,0,99
"1597",23,13,"warning_1",0,1,13,99,0.4,0,99
"1598",23,14,"warning_1",0,1,14,99,0.6,0,99
"1599",23,15,"warning_1",0,1,15,99,0.4,0,99
"1600",23,16,"warning_1",0,1,16,99,0.4,0,99
"1601",23,17,"warning_1",0,1,17,99,0.4,0,99
"1602",23,18,"warning_1",0,1,18,99,0.6,0,99
"1603",23,19,"warning_1",0,1,19,99,0.2,0,99
"1604",23,20,"warning_1",0,1,20,99,0.6,0,99
"1605",23,21,"warning_1",0,1,21,99,0.4,0,99
"1606",23,22,"warning_1",0,1,22,99,0.4,0,99
"1607",23,23,"warning_1",0,1,23,99,0.4,0,99
"1608",23,24,"warning_1",0,1,24,99,0.6,0,99
"1609",23,25,"warning_1",0,1,25,99,0.6,0,99
"1610",23,26,"warning_1",0,1,26,99,0.6,0,99
"1611",23,27,"warning_1",0,1,27,99,0.4,0,99
"1612",23,28,"warning_1",0,1,28,99,0.2,0,99
"1613",23,29,"warning_1",0,1,29,99,0.2,0,99
"1614",23,30,"warning_1",0,1,30,99,0.2,0,99
"1615",23,31,"warning_1",0,1,31,99,0.8,0,99
"1616",23,32,"warning_1",0,1,32,99,0.4,0,99
"1617",23,33,"warning_1",0,1,33,99,0.8,0,99
"1618",23,34,"warning_1",0,1,34,99,0.4,0,99
"1619",23,35,"warning_1",0,1,35,99,0.8,0,99
"1620",23,36,"warning_1",0,1,36,99,0.8,0,99
"1621",23,37,"warning_1",0,1,37,99,0.8,1,99
"1622",23,38,"warning_1",0,1,38,99,0.6,1,99
"1623",23,39,"warning_1",0,1,39,99,0.2,1,99
"1624",23,40,"warning_1",0,1,40,99,0.6,1,99
"1625",23,41,"warning_1",0,1,41,99,0.6,1,99
"1626",23,42,"warning_1",0,1,42,99,0.6,1,99
"1627",23,43,"warning_1",0,1,43,99,0.6,1,99
"1628",23,44,"warning_1",0,1,44,99,0.8,1,99
"1629",23,45,"warning_1",0,1,45,99,0.4,1,99
"1630",23,46,"warning_1",0,1,46,99,0.6,1,99
"1631",23,47,"warning_1",0,1,47,99,0.8,1,99
"1632",23,48,"warning_1",0,1,48,99,0.8,1,99
"1633",23,49,"warning_1",0,1,49,99,0.4,1,99
"1634",23,50,"warning_1",0,1,50,99,0.6,1,99
"1635",23,51,"warning_1",0,1,51,99,0.4,1,99
"1636",23,52,"warning_1",0,1,52,99,0.2,1,99
"1637",23,53,"warning_1",0,1,53,99,0.4,1,99
"1638",23,54,"warning_1",0,1,54,99,0.8,1,99
"1639",23,55,"warning_1",0,1,55,99,0.4,1,99
"1640",23,56,"warning_1",0,1,56,99,0.2,1,99
"1641",23,57,"warning_1",0,1,57,99,0.2,1,99
"1642",23,58,"warning_1",0,1,58,99,0.2,1,99
"1643",23,59,"warning_1",0,1,59,99,0.2,1,99
"1644",23,60,"warning_1",0,1,60,99,0.6,1,99
"1645",23,61,"warning_1",0,1,61,99,0.6,1,99
"1646",23,62,"warning_1",0,1,62,99,0.2,1,99
"1647",23,63,"warning_1",0,1,63,99,0.8,1,99
"1648",23,64,"warning_1",0,1,64,99,0.6,1,99
"1649",23,65,"warning_1",0,1,65,99,0.4,1,99
"1650",23,66,"warning_1",0,1,66,99,0.4,1,99
"1651",23,67,"warning_1",0,1,67,99,0.8,1,99
"1652",23,68,"warning_1",0,1,68,99,0.2,1,99
"1653",23,69,"warning_1",0,1,69,99,0.4,1,99
"1654",23,70,"warning_1",0,1,70,99,0.6,1,99
"1655",23,71,"warning_1",0,1,71,99,0.6,1,99
"1656",23,72,"warning_1",0,1,72,99,0.2,1,99
"1657",24,1,"warning_1",0,1,1,99,0.2,0,99
"1658",24,2,"warning_1",0,1,2,99,0,0,99
"1659",24,3,"warning_1",0,1,3,99,0.6,0,99
"1660",24,4,"warning_1",0,1,4,99,1,0,99
"1661",24,5,"warning_1",0,1,5,99,0.6,0,99
"1662",24,6,"warning_1",0,1,6,99,0.8,0,99
"1663",24,7,"warning_1",0,1,7,99,0,0,99
"1664",24,8,"warning_1",0,1,8,99,0.2,0,99
"1665",24,9,"warning_1",0,1,9,99,0,0,99
"1666",24,10,"warning_1",0,1,10,99,0.8,0,99
"1667",24,11,"warning_1",0,1,11,99,0.2,0,99
"1668",24,12,"warning_1",0,1,12,99,1,0,99
"1669",24,13,"warning_1",0,1,13,99,0.4,0,99
"1670",24,14,"warning_1",0,1,14,99,1,0,99
"1671",24,15,"warning_1",0,1,15,99,0,0,99
"1672",24,16,"warning_1",0,1,16,99,0,0,99
"1673",24,17,"warning_1",0,1,17,99,0,0,99
"1674",24,18,"warning_1",0,1,18,99,1,0,99
"1675",24,19,"warning_1",0,1,19,99,1,0,99
"1676",24,20,"warning_1",0,1,20,99,1,0,99
"1677",24,21,"warning_1",0,1,21,99,0.2,0,99
"1678",24,22,"warning_1",0,1,22,99,0.6,0,99
"1679",24,23,"warning_1",0,1,23,99,0.8,0,99
"1680",24,24,"warning_1",0,1,24,99,1,0,99
"1681",24,25,"warning_1",0,1,25,99,1,0,99
"1682",24,26,"warning_1",0,1,26,99,0.6,0,99
"1683",24,27,"warning_1",0,1,27,99,1,0,99
"1684",24,28,"warning_1",0,1,28,99,1,0,99
"1685",24,29,"warning_1",0,1,29,99,0,0,99
"1686",24,30,"warning_1",0,1,30,99,0.6,0,99
"1687",24,31,"warning_1",0,1,31,99,0,0,99
"1688",24,32,"warning_1",0,1,32,99,1,0,99
"1689",24,33,"warning_1",0,1,33,99,1,0,99
"1690",24,34,"warning_1",0,1,34,99,0.8,0,99
"1691",24,35,"warning_1",0,1,35,99,0.6,0,99
"1692",24,36,"warning_1",0,1,36,99,0,0,99
"1693",24,37,"warning_1",0,1,37,99,0.2,1,99
"1694",24,38,"warning_1",0,1,38,99,1,1,99
"1695",24,39,"warning_1",0,1,39,99,1,1,99
"1696",24,40,"warning_1",0,1,40,99,0.2,1,99
"1697",24,41,"warning_1",0,1,41,99,0.6,1,99
"1698",24,42,"warning_1",0,1,42,99,0.6,1,99
"1699",24,43,"warning_1",0,1,43,99,0.8,1,99
"1700",24,44,"warning_1",0,1,44,99,0.4,1,99
"1701",24,45,"warning_1",0,1,45,99,1,1,99
"1702",24,46,"warning_1",0,1,46,99,1,1,99
"1703",24,47,"warning_1",0,1,47,99,1,1,99
"1704",24,48,"warning_1",0,1,48,99,1,1,99
"1705",24,49,"warning_1",0,1,49,99,0.6,1,99
"1706",24,50,"warning_1",0,1,50,99,1,1,99
"1707",24,51,"warning_1",0,1,51,99,1,1,99
"1708",24,52,"warning_1",0,1,52,99,0.4,1,99
"1709",24,53,"warning_1",0,1,53,99,0,1,99
"1710",24,54,"warning_1",0,1,54,99,0.4,1,99
"1711",24,55,"warning_1",0,1,55,99,0,1,99
"1712",24,56,"warning_1",0,1,56,99,1,1,99
"1713",24,57,"warning_1",0,1,57,99,0.6,1,99
"1714",24,58,"warning_1",0,1,58,99,1,1,99
"1715",24,59,"warning_1",0,1,59,99,0.4,1,99
"1716",24,60,"warning_1",0,1,60,99,0,1,99
"1717",24,61,"warning_1",0,1,61,99,1,1,99
"1718",24,62,"warning_1",0,1,62,99,0,1,99
"1719",24,63,"warning_1",0,1,63,99,1,1,99
"1720",24,64,"warning_1",0,1,64,99,1,1,99
"1721",24,65,"warning_1",0,1,65,99,0.2,1,99
"1722",24,66,"warning_1",0,1,66,99,1,1,99
"1723",24,67,"warning_1",0,1,67,99,0.2,1,99
"1724",24,68,"warning_1",0,1,68,99,0.8,1,99
"1725",24,69,"warning_1",0,1,69,99,0.8,1,99
"1726",24,70,"warning_1",0,1,70,99,0,1,99
"1727",24,71,"warning_1",0,1,71,99,1,1,99
"1728",24,72,"warning_1",0,1,72,99,1,1,99
"1729",25,1,"warning_0",0,1,1,99,0.6,0,99
"1730",25,2,"warning_0",0,1,2,99,0.2,0,99
"1731",25,3,"warning_0",0,1,3,99,0.4,0,99
"1732",25,4,"warning_0",0,1,4,99,0.2,0,99
"1733",25,5,"warning_0",0,1,5,99,0.2,0,99
"1734",25,6,"warning_0",0,1,6,99,0.4,0,99
"1735",25,7,"warning_0",0,1,7,99,0.4,0,99
"1736",25,8,"warning_0",0,1,8,99,0.6,0,99
"1737",25,9,"warning_0",0,1,9,99,0.4,0,99
"1738",25,10,"warning_0",0,1,10,99,0.8,0,99
"1739",25,11,"warning_0",0,1,11,99,0.8,0,99
"1740",25,12,"warning_0",0,1,12,99,0.6,0,99
"1741",25,13,"warning_0",0,1,13,99,0.6,0,99
"1742",25,14,"warning_0",0,1,14,99,0.2,0,99
"1743",25,15,"warning_0",0,1,15,99,0.8,0,99
"1744",25,16,"warning_0",0,1,16,99,0.6,0,99
"1745",25,17,"warning_0",0,1,17,99,0.4,0,99
"1746",25,18,"warning_0",0,1,18,99,0.4,0,99
"1747",25,19,"warning_0",0,1,19,99,0.6,0,99
"1748",25,20,"warning_0",0,1,20,99,0.4,0,99
"1749",25,21,"warning_0",0,1,21,99,0.4,0,99
"1750",25,22,"warning_0",0,1,22,99,0.4,0,99
"1751",25,23,"warning_0",0,1,23,99,0.4,0,99
"1752",25,24,"warning_0",0,1,24,99,0.4,0,99
"1753",25,25,"warning_0",0,1,25,99,0.6,0,99
"1754",25,26,"warning_0",0,1,26,99,0.4,0,99
"1755",25,27,"warning_0",0,1,27,99,0.4,0,99
"1756",25,28,"warning_0",0,1,28,99,0.4,0,99
"1757",25,29,"warning_0",0,1,29,99,0.2,0,99
"1758",25,30,"warning_0",0,1,30,99,0.4,0,99
"1759",25,31,"warning_0",0,1,31,99,1,0,99
"1760",25,32,"warning_0",0,1,32,99,0.6,0,99
"1761",25,33,"warning_0",0,1,33,99,0.4,0,99
"1762",25,34,"warning_0",0,1,34,99,0.4,0,99
"1763",25,35,"warning_0",0,1,35,99,0.6,0,99
"1764",25,36,"warning_0",0,1,36,99,0.6,0,99
"1765",25,37,"warning_0",0,1,37,99,1,1,99
"1766",25,38,"warning_0",0,1,38,99,1,1,99
"1767",25,39,"warning_0",0,1,39,99,1,1,99
"1768",25,40,"warning_0",0,1,40,99,1,1,99
"1769",25,41,"warning_0",0,1,41,99,1,1,99
"1770",25,42,"warning_0",0,1,42,99,1,1,99
"1771",25,43,"warning_0",0,1,43,99,1,1,99
"1772",25,44,"warning_0",0,1,44,99,1,1,99
"1773",25,45,"warning_0",0,1,45,99,1,1,99
"1774",25,46,"warning_0",0,1,46,99,1,1,99
"1775",25,47,"warning_0",0,1,47,99,1,1,99
"1776",25,48,"warning_0",0,1,48,99,1,1,99
"1777",25,49,"warning_0",0,1,49,99,0.8,1,99
"1778",25,50,"warning_0",0,1,50,99,1,1,99
"1779",25,51,"warning_0",0,1,51,99,1,1,99
"1780",25,52,"warning_0",0,1,52,99,0.6,1,99
"1781",25,53,"warning_0",0,1,53,99,1,1,99
"1782",25,54,"warning_0",0,1,54,99,1,1,99
"1783",25,55,"warning_0",0,1,55,99,1,1,99
"1784",25,56,"warning_0",0,1,56,99,1,1,99
"1785",25,57,"warning_0",0,1,57,99,1,1,99
"1786",25,58,"warning_0",0,1,58,99,1,1,99
"1787",25,59,"warning_0",0,1,59,99,1,1,99
"1788",25,60,"warning_0",0,1,60,99,0.6,1,99
"1789",25,61,"warning_0",0,1,61,99,1,1,99
"1790",25,62,"warning_0",0,1,62,99,1,1,99
"1791",25,63,"warning_0",0,1,63,99,1,1,99
"1792",25,64,"warning_0",0,1,64,99,0.8,1,99
"1793",25,65,"warning_0",0,1,65,99,1,1,99
"1794",25,66,"warning_0",0,1,66,99,1,1,99
"1795",25,67,"warning_0",0,1,67,99,1,1,99
"1796",25,68,"warning_0",0,1,68,99,1,1,99
"1797",25,69,"warning_0",0,1,69,99,1,1,99
"1798",25,70,"warning_0",0,1,70,99,1,1,99
"1799",25,71,"warning_0",0,1,71,99,1,1,99
"1800",25,72,"warning_0",0,1,72,99,1,1,99
"1801",26,1,"warning_0",0,1,1,99,0,0,99
"1802",26,2,"warning_0",0,1,2,99,0,0,99
"1803",26,3,"warning_0",0,1,3,99,0,0,99
"1804",26,4,"warning_0",0,1,4,99,0,0,99
"1805",26,5,"warning_0",0,1,5,99,0,0,99
"1806",26,6,"warning_0",0,1,6,99,0,0,99
"1807",26,7,"warning_0",0,1,7,99,0,0,99
"1808",26,8,"warning_0",0,1,8,99,0,0,99
"1809",26,9,"warning_0",0,1,9,99,0,0,99
"1810",26,10,"warning_0",0,1,10,99,0,0,99
"1811",26,11,"warning_0",0,1,11,99,0,0,99
"1812",26,12,"warning_0",0,1,12,99,0,0,99
"1813",26,13,"warning_0",0,1,13,99,0,0,99
"1814",26,14,"warning_0",0,1,14,99,0,0,99
"1815",26,15,"warning_0",0,1,15,99,0,0,99
"1816",26,16,"warning_0",0,1,16,99,0,0,99
"1817",26,17,"warning_0",0,1,17,99,0,0,99
"1818",26,18,"warning_0",0,1,18,99,0,0,99
"1819",26,19,"warning_0",0,1,19,99,0,0,99
"1820",26,20,"warning_0",0,1,20,99,0,0,99
"1821",26,21,"warning_0",0,1,21,99,0,0,99
"1822",26,22,"warning_0",0,1,22,99,0,0,99
"1823",26,23,"warning_0",0,1,23,99,0,0,99
"1824",26,24,"warning_0",0,1,24,99,0,0,99
"1825",26,25,"warning_0",0,1,25,99,0,0,99
"1826",26,26,"warning_0",0,1,26,99,0,0,99
"1827",26,27,"warning_0",0,1,27,99,0,0,99
"1828",26,28,"warning_0",0,1,28,99,0,0,99
"1829",26,29,"warning_0",0,1,29,99,0,0,99
"1830",26,30,"warning_0",0,1,30,99,0,0,99
"1831",26,31,"warning_0",0,1,31,99,0,0,99
"1832",26,32,"warning_0",0,1,32,99,0,0,99
"1833",26,33,"warning_0",0,1,33,99,0,0,99
"1834",26,34,"warning_0",0,1,34,99,0,0,99
"1835",26,35,"warning_0",0,1,35,99,0,0,99
"1836",26,36,"warning_0",0,1,36,99,1,0,99
"1837",26,37,"warning_0",0,1,37,99,1,1,99
"1838",26,38,"warning_0",0,1,38,99,1,1,99
"1839",26,39,"warning_0",0,1,39,99,1,1,99
"1840",26,40,"warning_0",0,1,40,99,1,1,99
"1841",26,41,"warning_0",0,1,41,99,1,1,99
"1842",26,42,"warning_0",0,1,42,99,1,1,99
"1843",26,43,"warning_0",0,1,43,99,1,1,99
"1844",26,44,"warning_0",0,1,44,99,1,1,99
"1845",26,45,"warning_0",0,1,45,99,1,1,99
"1846",26,46,"warning_0",0,1,46,99,1,1,99
"1847",26,47,"warning_0",0,1,47,99,1,1,99
"1848",26,48,"warning_0",0,1,48,99,1,1,99
"1849",26,49,"warning_0",0,1,49,99,1,1,99
"1850",26,50,"warning_0",0,1,50,99,1,1,99
"1851",26,51,"warning_0",0,1,51,99,1,1,99
"1852",26,52,"warning_0",0,1,52,99,0,1,99
"1853",26,53,"warning_0",0,1,53,99,1,1,99
"1854",26,54,"warning_0",0,1,54,99,1,1,99
"1855",26,55,"warning_0",0,1,55,99,0,1,99
"1856",26,56,"warning_0",0,1,56,99,1,1,99
"1857",26,57,"warning_0",0,1,57,99,1,1,99
"1858",26,58,"warning_0",0,1,58,99,1,1,99
"1859",26,59,"warning_0",0,1,59,99,1,1,99
"1860",26,60,"warning_0",0,1,60,99,1,1,99
"1861",26,61,"warning_0",0,1,61,99,1,1,99
"1862",26,62,"warning_0",0,1,62,99,1,1,99
"1863",26,63,"warning_0",0,1,63,99,1,1,99
"1864",26,64,"warning_0",0,1,64,99,1,1,99
"1865",26,65,"warning_0",0,1,65,99,1,1,99
"1866",26,66,"warning_0",0,1,66,99,1,1,99
"1867",26,67,"warning_0",0,1,67,99,1,1,99
"1868",26,68,"warning_0",0,1,68,99,1,1,99
"1869",26,69,"warning_0",0,1,69,99,0,1,99
"1870",26,70,"warning_0",0,1,70,99,1,1,99
"1871",26,71,"warning_0",0,1,71,99,1,1,99
"1872",26,72,"warning_0",0,1,72,99,1,1,99
"1873",27,1,"warning_1",0,1,1,99,1,1,99
"1874",27,2,"warning_1",0,1,2,99,1,1,99
"1875",27,3,"warning_1",0,1,3,99,1,1,99
"1876",27,4,"warning_1",0,1,4,99,1,1,99
"1877",27,5,"warning_1",0,1,5,99,1,1,99
"1878",27,6,"warning_1",0,1,6,99,1,1,99
"1879",27,7,"warning_1",0,1,7,99,1,1,99
"1880",27,8,"warning_1",0,1,8,99,1,1,99
"1881",27,9,"warning_1",0,1,9,99,1,1,99
"1882",27,10,"warning_1",0,1,10,99,0.4,1,99
"1883",27,11,"warning_1",0,1,11,99,1,1,99
"1884",27,12,"warning_1",0,1,12,99,1,1,99
"1885",27,13,"warning_1",0,1,13,99,0.4,1,99
"1886",27,14,"warning_1",0,1,14,99,0.2,1,99
"1887",27,15,"warning_1",0,1,15,99,1,1,99
"1888",27,16,"warning_1",0,1,16,99,1,1,99
"1889",27,17,"warning_1",0,1,17,99,1,1,99
"1890",27,18,"warning_1",0,1,18,99,1,1,99
"1891",27,19,"warning_1",0,1,19,99,1,1,99
"1892",27,20,"warning_1",0,1,20,99,1,1,99
"1893",27,21,"warning_1",0,1,21,99,0.4,1,99
"1894",27,22,"warning_1",0,1,22,99,1,1,99
"1895",27,23,"warning_1",0,1,23,99,1,1,99
"1896",27,24,"warning_1",0,1,24,99,1,1,99
"1897",27,25,"warning_1",0,1,25,99,1,1,99
"1898",27,26,"warning_1",0,1,26,99,1,1,99
"1899",27,27,"warning_1",0,1,27,99,1,1,99
"1900",27,28,"warning_1",0,1,28,99,1,1,99
"1901",27,29,"warning_1",0,1,29,99,1,1,99
"1902",27,30,"warning_1",0,1,30,99,1,1,99
"1903",27,31,"warning_1",0,1,31,99,1,1,99
"1904",27,32,"warning_1",0,1,32,99,1,1,99
"1905",27,33,"warning_1",0,1,33,99,1,1,99
"1906",27,34,"warning_1",0,1,34,99,0.4,1,99
"1907",27,35,"warning_1",0,1,35,99,1,1,99
"1908",27,36,"warning_1",0,1,36,99,0,1,99
"1909",27,37,"warning_1",0,1,37,99,0.8,0,99
"1910",27,38,"warning_1",0,1,38,99,0.6,0,99
"1911",27,39,"warning_1",0,1,39,99,0,0,99
"1912",27,40,"warning_1",0,1,40,99,0.4,0,99
"1913",27,41,"warning_1",0,1,41,99,0.6,0,99
"1914",27,42,"warning_1",0,1,42,99,0.4,0,99
"1915",27,43,"warning_1",0,1,43,99,1,0,99
"1916",27,44,"warning_1",0,1,44,99,1,0,99
"1917",27,45,"warning_1",0,1,45,99,0.4,0,99
"1918",27,46,"warning_1",0,1,46,99,1,0,99
"1919",27,47,"warning_1",0,1,47,99,1,0,99
"1920",27,48,"warning_1",0,1,48,99,0.4,0,99
"1921",27,49,"warning_1",0,1,49,99,1,0,99
"1922",27,50,"warning_1",0,1,50,99,1,0,99
"1923",27,51,"warning_1",0,1,51,99,1,0,99
"1924",27,52,"warning_1",0,1,52,99,1,0,99
"1925",27,53,"warning_1",0,1,53,99,0.6,0,99
"1926",27,54,"warning_1",0,1,54,99,1,0,99
"1927",27,55,"warning_1",0,1,55,99,0.4,0,99
"1928",27,56,"warning_1",0,1,56,99,1,0,99
"1929",27,57,"warning_1",0,1,57,99,0.2,0,99
"1930",27,58,"warning_1",0,1,58,99,0.2,0,99
"1931",27,59,"warning_1",0,1,59,99,0.2,0,99
"1932",27,60,"warning_1",0,1,60,99,0.4,0,99
"1933",27,61,"warning_1",0,1,61,99,0.2,0,99
"1934",27,62,"warning_1",0,1,62,99,0,0,99
"1935",27,63,"warning_1",0,1,63,99,0.8,0,99
"1936",27,64,"warning_1",0,1,64,99,0.8,0,99
"1937",27,65,"warning_1",0,1,65,99,0.8,0,99
"1938",27,66,"warning_1",0,1,66,99,0.6,0,99
"1939",27,67,"warning_1",0,1,67,99,0,0,99
"1940",27,68,"warning_1",0,1,68,99,1,0,99
"1941",27,69,"warning_1",0,1,69,99,0.8,0,99
"1942",27,70,"warning_1",0,1,70,99,0.4,0,99
"1943",27,71,"warning_1",0,1,71,99,1,0,99
"1944",27,72,"warning_1",0,1,72,99,1,0,99
"1945",28,1,"warning_1",0,1,1,99,0.6,1,99
"1946",28,2,"warning_1",0,1,2,99,0.2,1,99
"1947",28,3,"warning_1",0,1,3,99,0.8,1,99
"1948",28,4,"warning_1",0,1,4,99,0.8,1,99
"1949",28,5,"warning_1",0,1,5,99,0.6,1,99
"1950",28,6,"warning_1",0,1,6,99,0.6,1,99
"1951",28,7,"warning_1",0,1,7,99,0.8,1,99
"1952",28,8,"warning_1",0,1,8,99,0.8,1,99
"1953",28,9,"warning_1",0,1,9,99,0.8,1,99
"1954",28,10,"warning_1",0,1,10,99,0.8,1,99
"1955",28,11,"warning_1",0,1,11,99,0.8,1,99
"1956",28,12,"warning_1",0,1,12,99,0.8,1,99
"1957",28,13,"warning_1",0,1,13,99,0.2,1,99
"1958",28,14,"warning_1",0,1,14,99,0.8,1,99
"1959",28,15,"warning_1",0,1,15,99,0.8,1,99
"1960",28,16,"warning_1",0,1,16,99,0.8,1,99
"1961",28,17,"warning_1",0,1,17,99,0.4,1,99
"1962",28,18,"warning_1",0,1,18,99,1,1,99
"1963",28,19,"warning_1",0,1,19,99,0.4,1,99
"1964",28,20,"warning_1",0,1,20,99,0.2,1,99
"1965",28,21,"warning_1",0,1,21,99,0.8,1,99
"1966",28,22,"warning_1",0,1,22,99,0.8,1,99
"1967",28,23,"warning_1",0,1,23,99,0.8,1,99
"1968",28,24,"warning_1",0,1,24,99,0.8,1,99
"1969",28,25,"warning_1",0,1,25,99,0.8,1,99
"1970",28,26,"warning_1",0,1,26,99,0.2,1,99
"1971",28,27,"warning_1",0,1,27,99,0.8,1,99
"1972",28,28,"warning_1",0,1,28,99,0.4,1,99
"1973",28,29,"warning_1",0,1,29,99,0.2,1,99
"1974",28,30,"warning_1",0,1,30,99,0.8,1,99
"1975",28,31,"warning_1",0,1,31,99,0,1,99
"1976",28,32,"warning_1",0,1,32,99,0.4,1,99
"1977",28,33,"warning_1",0,1,33,99,0.8,1,99
"1978",28,34,"warning_1",0,1,34,99,0.2,1,99
"1979",28,35,"warning_1",0,1,35,99,0.2,1,99
"1980",28,36,"warning_1",0,1,36,99,0.2,1,99
"1981",28,37,"warning_1",0,1,37,99,0.4,0,99
"1982",28,38,"warning_1",0,1,38,99,0.8,0,99
"1983",28,39,"warning_1",0,1,39,99,0.2,0,99
"1984",28,40,"warning_1",0,1,40,99,0.4,0,99
"1985",28,41,"warning_1",0,1,41,99,0.2,0,99
"1986",28,42,"warning_1",0,1,42,99,0.4,0,99
"1987",28,43,"warning_1",0,1,43,99,0.6,0,99
"1988",28,44,"warning_1",0,1,44,99,0.2,0,99
"1989",28,45,"warning_1",0,1,45,99,0.4,0,99
"1990",28,46,"warning_1",0,1,46,99,0.8,0,99
"1991",28,47,"warning_1",0,1,47,99,1,0,99
"1992",28,48,"warning_1",0,1,48,99,0.8,0,99
"1993",28,49,"warning_1",0,1,49,99,0.8,0,99
"1994",28,50,"warning_1",0,1,50,99,0.4,0,99
"1995",28,51,"warning_1",0,1,51,99,0.2,0,99
"1996",28,52,"warning_1",0,1,52,99,0.8,0,99
"1997",28,53,"warning_1",0,1,53,99,0.8,0,99
"1998",28,54,"warning_1",0,1,54,99,0.4,0,99
"1999",28,55,"warning_1",0,1,55,99,0,0,99
"2000",28,56,"warning_1",0,1,56,99,0.2,0,99
"2001",28,57,"warning_1",0,1,57,99,0.4,0,99
"2002",28,58,"warning_1",0,1,58,99,0.2,0,99
"2003",28,59,"warning_1",0,1,59,99,0.2,0,99
"2004",28,60,"warning_1",0,1,60,99,0.2,0,99
"2005",28,61,"warning_1",0,1,61,99,0,0,99
"2006",28,62,"warning_1",0,1,62,99,0.2,0,99
"2007",28,63,"warning_1",0,1,63,99,0.4,0,99
"2008",28,64,"warning_1",0,1,64,99,0.2,0,99
"2009",28,65,"warning_1",0,1,65,99,0.4,0,99
"2010",28,66,"warning_1",0,1,66,99,0.6,0,99
"2011",28,67,"warning_1",0,1,67,99,0,0,99
"2012",28,68,"warning_1",0,1,68,99,0,0,99
"2013",28,69,"warning_1",0,1,69,99,0.2,0,99
"2014",28,70,"warning_1",0,1,70,99,0.2,0,99
"2015",28,71,"warning_1",0,1,71,99,0.2,0,99
"2016",28,72,"warning_1",0,1,72,99,0.4,0,99
"2017",29,1,"warning_0",0,1,1,99,1,1,99
"2018",29,2,"warning_0",0,1,2,99,0.8,1,99
"2019",29,3,"warning_0",0,1,3,99,1,1,99
"2020",29,4,"warning_0",0,1,4,99,0.8,1,99
"2021",29,5,"warning_0",0,1,5,99,1,1,99
"2022",29,6,"warning_0",0,1,6,99,0.6,1,99
"2023",29,7,"warning_0",0,1,7,99,1,1,99
"2024",29,8,"warning_0",0,1,8,99,0.6,1,99
"2025",29,9,"warning_0",0,1,9,99,1,1,99
"2026",29,10,"warning_0",0,1,10,99,1,1,99
"2027",29,11,"warning_0",0,1,11,99,0.4,1,99
"2028",29,12,"warning_0",0,1,12,99,1,1,99
"2029",29,13,"warning_0",0,1,13,99,1,1,99
"2030",29,14,"warning_0",0,1,14,99,1,1,99
"2031",29,15,"warning_0",0,1,15,99,0.6,1,99
"2032",29,16,"warning_0",0,1,16,99,1,1,99
"2033",29,17,"warning_0",0,1,17,99,1,1,99
"2034",29,18,"warning_0",0,1,18,99,0.6,1,99
"2035",29,19,"warning_0",0,1,19,99,1,1,99
"2036",29,20,"warning_0",0,1,20,99,0.8,1,99
"2037",29,21,"warning_0",0,1,21,99,1,1,99
"2038",29,22,"warning_0",0,1,22,99,1,1,99
"2039",29,23,"warning_0",0,1,23,99,0.6,1,99
"2040",29,24,"warning_0",0,1,24,99,1,1,99
"2041",29,25,"warning_0",0,1,25,99,1,1,99
"2042",29,26,"warning_0",0,1,26,99,0.4,1,99
"2043",29,27,"warning_0",0,1,27,99,0.8,1,99
"2044",29,28,"warning_0",0,1,28,99,1,1,99
"2045",29,29,"warning_0",0,1,29,99,1,1,99
"2046",29,30,"warning_0",0,1,30,99,1,1,99
"2047",29,31,"warning_0",0,1,31,99,1,1,99
"2048",29,32,"warning_0",0,1,32,99,1,1,99
"2049",29,33,"warning_0",0,1,33,99,1,1,99
"2050",29,34,"warning_0",0,1,34,99,0.6,1,99
"2051",29,35,"warning_0",0,1,35,99,1,1,99
"2052",29,36,"warning_0",0,1,36,99,0.8,1,99
"2053",29,37,"warning_0",0,1,37,99,0,0,99
"2054",29,38,"warning_0",0,1,38,99,0.8,0,99
"2055",29,39,"warning_0",0,1,39,99,0.2,0,99
"2056",29,40,"warning_0",0,1,40,99,0.8,0,99
"2057",29,41,"warning_0",0,1,41,99,0.2,0,99
"2058",29,42,"warning_0",0,1,42,99,0.4,0,99
"2059",29,43,"warning_0",0,1,43,99,0,0,99
"2060",29,44,"warning_0",0,1,44,99,0.4,0,99
"2061",29,45,"warning_0",0,1,45,99,0,0,99
"2062",29,46,"warning_0",0,1,46,99,0.4,0,99
"2063",29,47,"warning_0",0,1,47,99,0.4,0,99
"2064",29,48,"warning_0",0,1,48,99,1,0,99
"2065",29,49,"warning_0",0,1,49,99,0.4,0,99
"2066",29,50,"warning_0",0,1,50,99,0.6,0,99
"2067",29,51,"warning_0",0,1,51,99,0.6,0,99
"2068",29,52,"warning_0",0,1,52,99,0.6,0,99
"2069",29,53,"warning_0",0,1,53,99,0.8,0,99
"2070",29,54,"warning_0",0,1,54,99,0.6,0,99
"2071",29,55,"warning_0",0,1,55,99,0.6,0,99
"2072",29,56,"warning_0",0,1,56,99,0.6,0,99
"2073",29,57,"warning_0",0,1,57,99,0.8,0,99
"2074",29,58,"warning_0",0,1,58,99,0.4,0,99
"2075",29,59,"warning_0",0,1,59,99,0.6,0,99
"2076",29,60,"warning_0",0,1,60,99,0.2,0,99
"2077",29,61,"warning_0",0,1,61,99,0.8,0,99
"2078",29,62,"warning_0",0,1,62,99,0.4,0,99
"2079",29,63,"warning_0",0,1,63,99,0.2,0,99
"2080",29,64,"warning_0",0,1,64,99,0.6,0,99
"2081",29,65,"warning_0",0,1,65,99,0.2,0,99
"2082",29,66,"warning_0",0,1,66,99,0.8,0,99
"2083",29,67,"warning_0",0,1,67,99,0.6,0,99
"2084",29,68,"warning_0",0,1,68,99,0.2,0,99
"2085",29,69,"warning_0",0,1,69,99,0.6,0,99
"2086",29,70,"warning_0",0,1,70,99,0.4,0,99
"2087",29,71,"warning_0",0,1,71,99,0.6,0,99
"2088",29,72,"warning_0",0,1,72,99,0.8,0,99
"2089",30,1,"warning_1",0,1,1,99,0.2,0,99
"2090",30,2,"warning_1",0,1,2,99,0.4,0,99
"2091",30,3,"warning_1",0,1,3,99,0.2,0,99
"2092",30,4,"warning_1",0,1,4,99,0.4,0,99
"2093",30,5,"warning_1",0,1,5,99,0.4,0,99
"2094",30,6,"warning_1",0,1,6,99,0.4,0,99
"2095",30,7,"warning_1",0,1,7,99,0.8,0,99
"2096",30,8,"warning_1",0,1,8,99,0.4,0,99
"2097",30,9,"warning_1",0,1,9,99,0.4,0,99
"2098",30,10,"warning_1",0,1,10,99,0.6,0,99
"2099",30,11,"warning_1",0,1,11,99,0.8,0,99
"2100",30,12,"warning_1",0,1,12,99,0.6,0,99
"2101",30,13,"warning_1",0,1,13,99,0.6,0,99
"2102",30,14,"warning_1",0,1,14,99,0.4,0,99
"2103",30,15,"warning_1",0,1,15,99,0.8,0,99
"2104",30,16,"warning_1",0,1,16,99,0.6,0,99
"2105",30,17,"warning_1",0,1,17,99,0.2,0,99
"2106",30,18,"warning_1",0,1,18,99,0.2,0,99
"2107",30,19,"warning_1",0,1,19,99,0.4,0,99
"2108",30,20,"warning_1",0,1,20,99,0.6,0,99
"2109",30,21,"warning_1",0,1,21,99,0.8,0,99
"2110",30,22,"warning_1",0,1,22,99,0.4,0,99
"2111",30,23,"warning_1",0,1,23,99,0.2,0,99
"2112",30,24,"warning_1",0,1,24,99,0.4,0,99
"2113",30,25,"warning_1",0,1,25,99,0.8,0,99
"2114",30,26,"warning_1",0,1,26,99,0.4,0,99
"2115",30,27,"warning_1",0,1,27,99,0.6,0,99
"2116",30,28,"warning_1",0,1,28,99,0.8,0,99
"2117",30,29,"warning_1",0,1,29,99,0.8,0,99
"2118",30,30,"warning_1",0,1,30,99,0.8,0,99
"2119",30,31,"warning_1",0,1,31,99,0.2,0,99
"2120",30,32,"warning_1",0,1,32,99,0.4,0,99
"2121",30,33,"warning_1",0,1,33,99,0.6,0,99
"2122",30,34,"warning_1",0,1,34,99,0.4,0,99
"2123",30,35,"warning_1",0,1,35,99,0.6,0,99
"2124",30,36,"warning_1",0,1,36,99,0.8,0,99
"2125",30,37,"warning_1",0,1,37,99,0.4,1,99
"2126",30,38,"warning_1",0,1,38,99,0.6,1,99
"2127",30,39,"warning_1",0,1,39,99,0.4,1,99
"2128",30,40,"warning_1",0,1,40,99,0.4,1,99
"2129",30,41,"warning_1",0,1,41,99,0.4,1,99
"2130",30,42,"warning_1",0,1,42,99,0.6,1,99
"2131",30,43,"warning_1",0,1,43,99,0.6,1,99
"2132",30,44,"warning_1",0,1,44,99,0.4,1,99
"2133",30,45,"warning_1",0,1,45,99,0.4,1,99
"2134",30,46,"warning_1",0,1,46,99,0.6,1,99
"2135",30,47,"warning_1",0,1,47,99,0.6,1,99
"2136",30,48,"warning_1",0,1,48,99,0.4,1,99
"2137",30,49,"warning_1",0,1,49,99,0.4,1,99
"2138",30,50,"warning_1",0,1,50,99,0.8,1,99
"2139",30,51,"warning_1",0,1,51,99,0.6,1,99
"2140",30,52,"warning_1",0,1,52,99,0.4,1,99
"2141",30,53,"warning_1",0,1,53,99,0.6,1,99
"2142",30,54,"warning_1",0,1,54,99,0.8,1,99
"2143",30,55,"warning_1",0,1,55,99,0.8,1,99
"2144",30,56,"warning_1",0,1,56,99,0.4,1,99
"2145",30,57,"warning_1",0,1,57,99,0.6,1,99
"2146",30,58,"warning_1",0,1,58,99,0.6,1,99
"2147",30,59,"warning_1",0,1,59,99,0.6,1,99
"2148",30,60,"warning_1",0,1,60,99,0.6,1,99
"2149",30,61,"warning_1",0,1,61,99,0.6,1,99
"2150",30,62,"warning_1",0,1,62,99,0.4,1,99
"2151",30,63,"warning_1",0,1,63,99,0.6,1,99
"2152",30,64,"warning_1",0,1,64,99,0.6,1,99
"2153",30,65,"warning_1",0,1,65,99,0.4,1,99
"2154",30,66,"warning_1",0,1,66,99,0.4,1,99
"2155",30,67,"warning_1",0,1,67,99,0.6,1,99
"2156",30,68,"warning_1",0,1,68,99,1,1,99
"2157",30,69,"warning_1",0,1,69,99,0.8,1,99
"2158",30,70,"warning_1",0,1,70,99,0.6,1,99
"2159",30,71,"warning_1",0,1,71,99,1,1,99
"2160",30,72,"warning_1",0,1,72,99,0.6,1,99
"2161",31,1,"warning_0",0,1,1,99,1,1,99
"2162",31,2,"warning_0",0,1,2,99,1,1,99
"2163",31,3,"warning_0",0,1,3,99,1,1,99
"2164",31,4,"warning_0",0,1,4,99,1,1,99
"2165",31,5,"warning_0",0,1,5,99,0.8,1,99
"2166",31,6,"warning_0",0,1,6,99,0.4,1,99
"2167",31,7,"warning_0",0,1,7,99,1,1,99
"2168",31,8,"warning_0",0,1,8,99,0.6,1,99
"2169",31,9,"warning_0",0,1,9,99,1,1,99
"2170",31,10,"warning_0",0,1,10,99,1,1,99
"2171",31,11,"warning_0",0,1,11,99,1,1,99
"2172",31,12,"warning_0",0,1,12,99,1,1,99
"2173",31,13,"warning_0",0,1,13,99,1,1,99
"2174",31,14,"warning_0",0,1,14,99,1,1,99
"2175",31,15,"warning_0",0,1,15,99,1,1,99
"2176",31,16,"warning_0",0,1,16,99,1,1,99
"2177",31,17,"warning_0",0,1,17,99,0.8,1,99
"2178",31,18,"warning_0",0,1,18,99,1,1,99
"2179",31,19,"warning_0",0,1,19,99,1,1,99
"2180",31,20,"warning_0",0,1,20,99,1,1,99
"2181",31,21,"warning_0",0,1,21,99,1,1,99
"2182",31,22,"warning_0",0,1,22,99,1,1,99
"2183",31,23,"warning_0",0,1,23,99,0.6,1,99
"2184",31,24,"warning_0",0,1,24,99,1,1,99
"2185",31,25,"warning_0",0,1,25,99,1,1,99
"2186",31,26,"warning_0",0,1,26,99,1,1,99
"2187",31,27,"warning_0",0,1,27,99,1,1,99
"2188",31,28,"warning_0",0,1,28,99,0.8,1,99
"2189",31,29,"warning_0",0,1,29,99,1,1,99
"2190",31,30,"warning_0",0,1,30,99,1,1,99
"2191",31,31,"warning_0",0,1,31,99,1,1,99
"2192",31,32,"warning_0",0,1,32,99,1,1,99
"2193",31,33,"warning_0",0,1,33,99,1,1,99
"2194",31,34,"warning_0",0,1,34,99,1,1,99
"2195",31,35,"warning_0",0,1,35,99,1,1,99
"2196",31,36,"warning_0",0,1,36,99,0.6,1,99
"2197",31,37,"warning_0",0,1,37,99,0.8,0,99
"2198",31,38,"warning_0",0,1,38,99,0,0,99
"2199",31,39,"warning_0",0,1,39,99,0.4,0,99
"2200",31,40,"warning_0",0,1,40,99,1,0,99
"2201",31,41,"warning_0",0,1,41,99,0.6,0,99
"2202",31,42,"warning_0",0,1,42,99,0.6,0,99
"2203",31,43,"warning_0",0,1,43,99,0.8,0,99
"2204",31,44,"warning_0",0,1,44,99,0.8,0,99
"2205",31,45,"warning_0",0,1,45,99,1,0,99
"2206",31,46,"warning_0",0,1,46,99,0.8,0,99
"2207",31,47,"warning_0",0,1,47,99,0.8,0,99
"2208",31,48,"warning_0",0,1,48,99,1,0,99
"2209",31,49,"warning_0",0,1,49,99,0.4,0,99
"2210",31,50,"warning_0",0,1,50,99,0.6,0,99
"2211",31,51,"warning_0",0,1,51,99,1,0,99
"2212",31,52,"warning_0",0,1,52,99,1,0,99
"2213",31,53,"warning_0",0,1,53,99,0.6,0,99
"2214",31,54,"warning_0",0,1,54,99,1,0,99
"2215",31,55,"warning_0",0,1,55,99,0.8,0,99
"2216",31,56,"warning_0",0,1,56,99,1,0,99
"2217",31,57,"warning_0",0,1,57,99,1,0,99
"2218",31,58,"warning_0",0,1,58,99,0.8,0,99
"2219",31,59,"warning_0",0,1,59,99,1,0,99
"2220",31,60,"warning_0",0,1,60,99,1,0,99
"2221",31,61,"warning_0",0,1,61,99,1,0,99
"2222",31,62,"warning_0",0,1,62,99,0.4,0,99
"2223",31,63,"warning_0",0,1,63,99,0.4,0,99
"2224",31,64,"warning_0",0,1,64,99,0.8,0,99
"2225",31,65,"warning_0",0,1,65,99,0.4,0,99
"2226",31,66,"warning_0",0,1,66,99,0.8,0,99
"2227",31,67,"warning_0",0,1,67,99,0.6,0,99
"2228",31,68,"warning_0",0,1,68,99,0.6,0,99
"2229",31,69,"warning_0",0,1,69,99,0.8,0,99
"2230",31,70,"warning_0",0,1,70,99,0.8,0,99
"2231",31,71,"warning_0",0,1,71,99,1,0,99
"2232",31,72,"warning_0",0,1,72,99,1,0,99
"2233",32,1,"warning_1",0,1,1,99,0.2,1,99
"2234",32,2,"warning_1",0,1,2,99,0.2,1,99
"2235",32,3,"warning_1",0,1,3,99,0.4,1,99
"2236",32,4,"warning_1",0,1,4,99,0.2,1,99
"2237",32,5,"warning_1",0,1,5,99,0.4,1,99
"2238",32,6,"warning_1",0,1,6,99,0.6,1,99
"2239",32,7,"warning_1",0,1,7,99,0.2,1,99
"2240",32,8,"warning_1",0,1,8,99,0.2,1,99
"2241",32,9,"warning_1",0,1,9,99,0.6,1,99
"2242",32,10,"warning_1",0,1,10,99,0.6,1,99
"2243",32,11,"warning_1",0,1,11,99,0.2,1,99
"2244",32,12,"warning_1",0,1,12,99,0.4,1,99
"2245",32,13,"warning_1",0,1,13,99,0.2,1,99
"2246",32,14,"warning_1",0,1,14,99,0.8,1,99
"2247",32,15,"warning_1",0,1,15,99,0.2,1,99
"2248",32,16,"warning_1",0,1,16,99,0.4,1,99
"2249",32,17,"warning_1",0,1,17,99,0.6,1,99
"2250",32,18,"warning_1",0,1,18,99,0.2,1,99
"2251",32,19,"warning_1",0,1,19,99,0.2,1,99
"2252",32,20,"warning_1",0,1,20,99,0.4,1,99
"2253",32,21,"warning_1",0,1,21,99,0.2,1,99
"2254",32,22,"warning_1",0,1,22,99,0.4,1,99
"2255",32,23,"warning_1",0,1,23,99,0.4,1,99
"2256",32,24,"warning_1",0,1,24,99,0.2,1,99
"2257",32,25,"warning_1",0,1,25,99,0.6,1,99
"2258",32,26,"warning_1",0,1,26,99,0.8,1,99
"2259",32,27,"warning_1",0,1,27,99,0.2,1,99
"2260",32,28,"warning_1",0,1,28,99,0,1,99
"2261",32,29,"warning_1",0,1,29,99,0,1,99
"2262",32,30,"warning_1",0,1,30,99,0.4,1,99
"2263",32,31,"warning_1",0,1,31,99,0,1,99
"2264",32,32,"warning_1",0,1,32,99,0.8,1,99
"2265",32,33,"warning_1",0,1,33,99,0.6,1,99
"2266",32,34,"warning_1",0,1,34,99,0.2,1,99
"2267",32,35,"warning_1",0,1,35,99,0.4,1,99
"2268",32,36,"warning_1",0,1,36,99,0.4,1,99
"2269",32,37,"warning_1",0,1,37,99,0.4,0,99
"2270",32,38,"warning_1",0,1,38,99,0.4,0,99
"2271",32,39,"warning_1",0,1,39,99,0.4,0,99
"2272",32,40,"warning_1",0,1,40,99,0.2,0,99
"2273",32,41,"warning_1",0,1,41,99,0.2,0,99
"2274",32,42,"warning_1",0,1,42,99,0.4,0,99
"2275",32,43,"warning_1",0,1,43,99,0.6,0,99
"2276",32,44,"warning_1",0,1,44,99,0.2,0,99
"2277",32,45,"warning_1",0,1,45,99,0.6,0,99
"2278",32,46,"warning_1",0,1,46,99,0.2,0,99
"2279",32,47,"warning_1",0,1,47,99,0.2,0,99
"2280",32,48,"warning_1",0,1,48,99,0.4,0,99
"2281",32,49,"warning_1",0,1,49,99,0.4,0,99
"2282",32,50,"warning_1",0,1,50,99,0.4,0,99
"2283",32,51,"warning_1",0,1,51,99,0.4,0,99
"2284",32,52,"warning_1",0,1,52,99,0.2,0,99
"2285",32,53,"warning_1",0,1,53,99,0.4,0,99
"2286",32,54,"warning_1",0,1,54,99,0.4,0,99
"2287",32,55,"warning_1",0,1,55,99,0.2,0,99
"2288",32,56,"warning_1",0,1,56,99,0.2,0,99
"2289",32,57,"warning_1",0,1,57,99,0.4,0,99
"2290",32,58,"warning_1",0,1,58,99,0.2,0,99
"2291",32,59,"warning_1",0,1,59,99,0.2,0,99
"2292",32,60,"warning_1",0,1,60,99,0,0,99
"2293",32,61,"warning_1",0,1,61,99,0.4,0,99
"2294",32,62,"warning_1",0,1,62,99,0.4,0,99
"2295",32,63,"warning_1",0,1,63,99,0.8,0,99
"2296",32,64,"warning_1",0,1,64,99,0.2,0,99
"2297",32,65,"warning_1",0,1,65,99,0.2,0,99
"2298",32,66,"warning_1",0,1,66,99,0.2,0,99
"2299",32,67,"warning_1",0,1,67,99,0,0,99
"2300",32,68,"warning_1",0,1,68,99,0.4,0,99
"2301",32,69,"warning_1",0,1,69,99,0.8,0,99
"2302",32,70,"warning_1",0,1,70,99,0.4,0,99
"2303",32,71,"warning_1",0,1,71,99,0.4,0,99
"2304",32,72,"warning_1",0,1,72,99,0.8,0,99
"2305",33,1,"warning_1",0,1,1,99,0.6,1,99
"2306",33,2,"warning_1",0,1,2,99,0.6,1,99
"2307",33,3,"warning_1",0,1,3,99,0.6,1,99
"2308",33,4,"warning_1",0,1,4,99,0.6,1,99
"2309",33,5,"warning_1",0,1,5,99,0.8,1,99
"2310",33,6,"warning_1",0,1,6,99,0.6,1,99
"2311",33,7,"warning_1",0,1,7,99,0.4,1,99
"2312",33,8,"warning_1",0,1,8,99,0.6,1,99
"2313",33,9,"warning_1",0,1,9,99,0.2,1,99
"2314",33,10,"warning_1",0,1,10,99,0.6,1,99
"2315",33,11,"warning_1",0,1,11,99,0.6,1,99
"2316",33,12,"warning_1",0,1,12,99,0.6,1,99
"2317",33,13,"warning_1",0,1,13,99,0.4,1,99
"2318",33,14,"warning_1",0,1,14,99,0.8,1,99
"2319",33,15,"warning_1",0,1,15,99,0.2,1,99
"2320",33,16,"warning_1",0,1,16,99,0.6,1,99
"2321",33,17,"warning_1",0,1,17,99,0.6,1,99
"2322",33,18,"warning_1",0,1,18,99,0.6,1,99
"2323",33,19,"warning_1",0,1,19,99,0.4,1,99
"2324",33,20,"warning_1",0,1,20,99,0.8,1,99
"2325",33,21,"warning_1",0,1,21,99,0.4,1,99
"2326",33,22,"warning_1",0,1,22,99,0.4,1,99
"2327",33,23,"warning_1",0,1,23,99,0.6,1,99
"2328",33,24,"warning_1",0,1,24,99,0.4,1,99
"2329",33,25,"warning_1",0,1,25,99,0.8,1,99
"2330",33,26,"warning_1",0,1,26,99,0.6,1,99
"2331",33,27,"warning_1",0,1,27,99,0.6,1,99
"2332",33,28,"warning_1",0,1,28,99,0.8,1,99
"2333",33,29,"warning_1",0,1,29,99,1,1,99
"2334",33,30,"warning_1",0,1,30,99,0.8,1,99
"2335",33,31,"warning_1",0,1,31,99,0.8,1,99
"2336",33,32,"warning_1",0,1,32,99,0.6,1,99
"2337",33,33,"warning_1",0,1,33,99,0.8,1,99
"2338",33,34,"warning_1",0,1,34,99,0.6,1,99
"2339",33,35,"warning_1",0,1,35,99,0.2,1,99
"2340",33,36,"warning_1",0,1,36,99,0.8,1,99
"2341",33,37,"warning_1",0,1,37,99,0.4,0,99
"2342",33,38,"warning_1",0,1,38,99,0.6,0,99
"2343",33,39,"warning_1",0,1,39,99,0.4,0,99
"2344",33,40,"warning_1",0,1,40,99,0.6,0,99
"2345",33,41,"warning_1",0,1,41,99,0.6,0,99
"2346",33,42,"warning_1",0,1,42,99,0.6,0,99
"2347",33,43,"warning_1",0,1,43,99,0.8,0,99
"2348",33,44,"warning_1",0,1,44,99,0.4,0,99
"2349",33,45,"warning_1",0,1,45,99,0.2,0,99
"2350",33,46,"warning_1",0,1,46,99,0.2,0,99
"2351",33,47,"warning_1",0,1,47,99,0.6,0,99
"2352",33,48,"warning_1",0,1,48,99,0.6,0,99
"2353",33,49,"warning_1",0,1,49,99,0.6,0,99
"2354",33,50,"warning_1",0,1,50,99,0.8,0,99
"2355",33,51,"warning_1",0,1,51,99,0.4,0,99
"2356",33,52,"warning_1",0,1,52,99,1,0,99
"2357",33,53,"warning_1",0,1,53,99,0.8,0,99
"2358",33,54,"warning_1",0,1,54,99,0.8,0,99
"2359",33,55,"warning_1",0,1,55,99,0.8,0,99
"2360",33,56,"warning_1",0,1,56,99,0.6,0,99
