"expname","subject","code","age","sex","majorstudies","nativelanguage","condition","setcondition","session","phase","trial","statement","set","difficulty","status","repetition","catrating","catrating.rt","truthjudgment","truthjudgment.rt","lexstimulus","lextype","lex.acc","lex.rt","filter"
"ForeignLanguageExp2",1,"EIWH03",24,"female","psychology","German","English","2","1","Categorization",1,"The first German skyscraper was built in 1950.","SetB2","difficult","false",NA,4,13052,NA,NA,NA,NA,NA,NA,NA
"ForeignLanguageExp2",1,"EIWH03",24,"female","psychology","German","English","2","1","Categorization",2,"From 1769 to 1772, Wolfang Amadeus Mozart took his Italian journey.","SetB2","easy","true",NA,4,5943,NA,NA,NA,NA,NA,NA,NA
"ForeignLanguageExp2",1,"EIWH03",24,"female","psychology","German","English","2","1","Categorization",3,"Hinduism is the religion with the highest number of followers.","SetB1","difficult","false",NA,6,7601,NA,NA,NA,NA,NA,NA,NA
"ForeignLanguageExp2",1,"EIWH03",24,"female","psychology","German","English","2","1","Categorization",4,"Mount Everest is the highest mountain in Asia. ","SetB2","easy","true",NA,2,3389,NA,NA,NA,NA,NA,NA,NA
"ForeignLanguageExp2",1,"EIWH03",24,"female","psychology","German","English","2","1","Categorization",5,"According to the book Genesis, Methuselah was grandfather to Noah.","SetB2","difficult","true",NA,4,6857,NA,NA,NA,NA,NA,NA,NA
"ForeignLanguageExp2",1,"EIWH03",24,"female","psychology","German","English","2","1","Categorization",6,"A famous bay in Cuba is called the Bay of Cows.","SetB1","difficult","false",NA,2,3987,NA,NA,NA,NA,NA,NA,NA
"ForeignLanguageExp2",1,"EIWH03",24,"female","psychology","German","English","2","1","Categorization",7,"Joschka Fischer is a member of the SPD.","SetB1","easy","false",NA,6,6448,NA,NA,NA,NA,NA,NA,NA
"ForeignLanguageExp2",1,"EIWH03",24,"female","psychology","German","English","2","1","Categorization",8,"The movie ""Avatar"" is the most successful movie of all times. ","SetB2","difficult","true",NA,5,4286,NA,NA,NA,NA,NA,NA,NA
"ForeignLanguageExp2",1,"EIWH03",24,"female","psychology","German","English","2","1","Categorization",9,"Italian is no official language of Switzerland. ","SetB2","easy","false",NA,6,5815,NA,NA,NA,NA,NA,NA,NA
"ForeignLanguageExp2",1,"EIWH03",24,"female","psychology","German","English","2","1","Categorization",10,"The planet Mercury is closest to the sun. ","SetB2","easy","true",NA,2,5810,NA,NA,NA,NA,NA,NA,NA
"ForeignLanguageExp2",1,"EIWH03",24,"female","psychology","German","English","2","1","Categorization",11,"The Russian word for ""mountaintop"" is ""pik"".","SetB1","difficult","true",NA,6,8149,NA,NA,NA,NA,NA,NA,NA
"ForeignLanguageExp2",1,"EIWH03",24,"female","psychology","German","English","2","1","Categorization",12,"The ""Grande Arche"" is a monument in Toulouse.","SetB1","difficult","false",NA,2,6394,NA,NA,NA,NA,NA,NA,NA
"ForeignLanguageExp2",1,"EIWH03",24,"female","psychology","German","English","2","1","Categorization",13,"The highest IQ score that has ever been achieved is 228.","SetB2","difficult","true",NA,6,4818,NA,NA,NA,NA,NA,NA,NA
"ForeignLanguageExp2",1,"EIWH03",24,"female","psychology","German","English","2","1","Categorization",14,"The central file of German traffic offenders is located in Freiburg. ","SetB2","easy","false",NA,6,8118,NA,NA,NA,NA,NA,NA,NA
"ForeignLanguageExp2",1,"EIWH03",24,"female","psychology","German","English","2","1","Categorization",15,"Pumpkin is good for vision.","SetB1","easy","false",NA,1,3526,NA,NA,NA,NA,NA,NA,NA
"ForeignLanguageExp2",1,"EIWH03",24,"female","psychology","German","English","2","1","Categorization",16,"The speed of a sound is unaffected by temperature.","SetB1","difficult","false",NA,3,5186,NA,NA,NA,NA,NA,NA,NA
"ForeignLanguageExp2",1,"EIWH03",24,"female","psychology","German","English","2","1","Categorization",17,"Pearls are usually found in scallops. ","SetB1","easy","false",NA,1,3023,NA,NA,NA,NA,NA,NA,NA
"ForeignLanguageExp2",1,"EIWH03",24,"female","psychology","German","English","2","1","Categorization",18,"Artur Rubinstein is a famous pianist. ","SetB1","difficult","true",NA,4,2011,NA,NA,NA,NA,NA,NA,NA
"ForeignLanguageExp2",1,"EIWH03",24,"female","psychology","German","English","2","1","Categorization",19,"The ""Bridge of Sighs"" is located in Venice.","SetB1","easy","true",NA,2,2691,NA,NA,NA,NA,NA,NA,NA
"ForeignLanguageExp2",1,"EIWH03",24,"female","psychology","German","English","2","1","Categorization",20,"The Colossus of Rhodes is one of the ancient seven wonders of the world. ","SetB2","easy","true",NA,4,3139,NA,NA,NA,NA,NA,NA,NA
"ForeignLanguageExp2",1,"EIWH03",24,"female","psychology","German","English","2","1","Categorization",21,"The first propellant-free refrigerator was built in the US.","SetB2","difficult","false",NA,4,3825,NA,NA,NA,NA,NA,NA,NA
"ForeignLanguageExp2",1,"EIWH03",24,"female","psychology","German","English","2","1","Categorization",22,"Iron is the only metal that rusts. ","SetB2","easy","false",NA,1,5309,NA,NA,NA,NA,NA,NA,NA
"ForeignLanguageExp2",1,"EIWH03",24,"female","psychology","German","English","2","1","Categorization",23,"James Connolly was the first Olympic champion of the modern age.","SetB1","difficult","true",NA,5,8667,NA,NA,NA,NA,NA,NA,NA
"ForeignLanguageExp2",1,"EIWH03",24,"female","psychology","German","English","2","1","Categorization",24,"A ripe banana contains about 18% sugar. ","SetB1","easy","true",NA,1,2805,NA,NA,NA,NA,NA,NA,NA
"ForeignLanguageExp2",1,"EIWH03",24,"female","psychology","German","English","2","1","Categorization",25,"The coffee bean is known in Europe since the mid-20th century.","SetB2","difficult","false",NA,4,2338,NA,NA,NA,NA,NA,NA,NA
"ForeignLanguageExp2",1,"EIWH03",24,"female","psychology","German","English","2","1","Categorization",26,"For four years, Cologne cathedral was the world's highest building.","SetB1","easy","true",NA,4,3401,NA,NA,NA,NA,NA,NA,NA
"ForeignLanguageExp2",1,"EIWH03",24,"female","psychology","German","English","2","1","Categorization",27,"Mount Etna is the highest vulcano in Europe.","SetB1","easy","true",NA,2,1853,NA,NA,NA,NA,NA,NA,NA
"ForeignLanguageExp2",1,"EIWH03",24,"female","psychology","German","English","2","1","Categorization",28,"There are no wild living polar bears in Greenland.","SetB1","difficult","false",NA,1,4312,NA,NA,NA,NA,NA,NA,NA
"ForeignLanguageExp2",1,"EIWH03",24,"female","psychology","German","English","2","1","Categorization",29,"Besides Italian, Latin is an official language in Vatican City. ","SetB2","easy","true",NA,4,5368,NA,NA,NA,NA,NA,NA,NA
"ForeignLanguageExp2",1,"EIWH03",24,"female","psychology","German","English","2","1","Categorization",30,"Salts have a crystal structure consisting of ions.","SetB1","easy","true",NA,1,6060,NA,NA,NA,NA,NA,NA,NA
"ForeignLanguageExp2",1,"EIWH03",24,"female","psychology","German","English","2","1","Categorization",31,"The salt content in the Baltic Sea is higher than in the North Sea.","SetB1","difficult","false",NA,2,7914,NA,NA,NA,NA,NA,NA,NA
"ForeignLanguageExp2",1,"EIWH03",24,"female","psychology","German","English","2","1","Categorization",32,"20% of all 85 year-olds suffer from Alzheimer's.","SetB2","difficult","true",NA,1,3440,NA,NA,NA,NA,NA,NA,NA
"ForeignLanguageExp2",1,"EIWH03",24,"female","psychology","German","English","2","1","Categorization",33,"The northernmost point of Norway is called Nordkap.","SetB2","difficult","true",NA,2,3579,NA,NA,NA,NA,NA,NA,NA
"ForeignLanguageExp2",1,"EIWH03",24,"female","psychology","German","English","2","1","Categorization",34,"One litre of apple juice contains about 50 grams of protein.","SetB1","easy","false",NA,6,9729,NA,NA,NA,NA,NA,NA,NA
"ForeignLanguageExp2",1,"EIWH03",24,"female","psychology","German","English","2","1","Categorization",35,"Benjamin Blümchen was created by the author Elfie Donnelly. ","SetB1","difficult","true",NA,5,4145,NA,NA,NA,NA,NA,NA,NA
"ForeignLanguageExp2",1,"EIWH03",24,"female","psychology","German","English","2","1","Categorization",36,"Nolan Bushnell is founder of the company Atari.","SetB1","difficult","true",NA,3,4192,NA,NA,NA,NA,NA,NA,NA
"ForeignLanguageExp2",1,"EIWH03",24,"female","psychology","German","English","2","1","Categorization",37,"3.5% of the water on Earth is freshwater. ","SetB1","easy","true",NA,1,2827,NA,NA,NA,NA,NA,NA,NA
"ForeignLanguageExp2",1,"EIWH03",24,"female","psychology","German","English","2","1","Categorization",38,"The hair of intelligent people contains more iron.","SetB2","easy","false",NA,1,4856,NA,NA,NA,NA,NA,NA,NA
"ForeignLanguageExp2",1,"EIWH03",24,"female","psychology","German","English","2","1","Categorization",39,"The four horsemen of the Apocalypse represent war, hunger, pest, and death. ","SetB2","easy","true",NA,4,3018,NA,NA,NA,NA,NA,NA,NA
"ForeignLanguageExp2",1,"EIWH03",24,"female","psychology","German","English","2","1","Categorization",40,"60% of the Earth's surface is covered with water. ","SetB2","difficult","false",NA,2,4741,NA,NA,NA,NA,NA,NA,NA
"ForeignLanguageExp2",1,"EIWH03",24,"female","psychology","German","English","2","1","Categorization",41,"The United Nations were founded in 1848.","SetB1","easy","false",NA,4,9420,NA,NA,NA,NA,NA,NA,NA
"ForeignLanguageExp2",1,"EIWH03",24,"female","psychology","German","English","2","1","Categorization",42,"The first atomic bomb was dropped on Tokyo. ","SetB1","easy","false",NA,4,1704,NA,NA,NA,NA,NA,NA,NA
"ForeignLanguageExp2",1,"EIWH03",24,"female","psychology","German","English","2","1","Categorization",43,"Berlin is the biggest city in the European Union.","SetB2","easy","false",NA,2,6864,NA,NA,NA,NA,NA,NA,NA
"ForeignLanguageExp2",1,"EIWH03",24,"female","psychology","German","English","2","1","Categorization",44,"Albert Einstein was born in 1792.","SetB1","easy","false",NA,4,2730,NA,NA,NA,NA,NA,NA,NA
"ForeignLanguageExp2",1,"EIWH03",24,"female","psychology","German","English","2","1","Categorization",45,"The planet Earth largely consists of iron.","SetB1","difficult","true",NA,2,1788,NA,NA,NA,NA,NA,NA,NA
"ForeignLanguageExp2",1,"EIWH03",24,"female","psychology","German","English","2","1","Categorization",46,"The language Mandarin is spoken by almost one billion people.","SetB1","easy","true",NA,6,5624,NA,NA,NA,NA,NA,NA,NA
"ForeignLanguageExp2",1,"EIWH03",24,"female","psychology","German","English","2","1","Categorization",47,"The longest side of a triangle is called ""cathetus"". ","SetB2","easy","false",NA,3,6170,NA,NA,NA,NA,NA,NA,NA
"ForeignLanguageExp2",1,"EIWH03",24,"female","psychology","German","English","2","1","Categorization",48,"The blood sugar level in diabetics can be lowered by administering cinnamon. ","SetB2","difficult","true",NA,1,3784,NA,NA,NA,NA,NA,NA,NA
"ForeignLanguageExp2",1,"EIWH03",24,"female","psychology","German","English","2","1","Categorization",49,"The children's book character ""Bibi Blocksberg"" celebrated its 60th anniversary in 2010. ","SetB2","difficult","false",NA,5,4229,NA,NA,NA,NA,NA,NA,NA
"ForeignLanguageExp2",1,"EIWH03",24,"female","psychology","German","English","2","1","Categorization",50,"1% of all births are twin births.","SetB2","difficult","true",NA,1,3304,NA,NA,NA,NA,NA,NA,NA
"ForeignLanguageExp2",1,"EIWH03",24,"female","psychology","German","English","2","1","Categorization",51,"Galileo discovered gravity.","SetB2","easy","false",NA,4,2560,NA,NA,NA,NA,NA,NA,NA
"ForeignLanguageExp2",1,"EIWH03",24,"female","psychology","German","English","2","1","Categorization",52,"The Greek gods of creation were Gaia, Erebus and Creon. ","SetB1","difficult","false",NA,4,1926,NA,NA,NA,NA,NA,NA,NA
"ForeignLanguageExp2",1,"EIWH03",24,"female","psychology","German","English","2","1","Categorization",53,"Pentameter is the classical meter of epic poetry. ","SetB2","difficult","false",NA,4,6302,NA,NA,NA,NA,NA,NA,NA
"ForeignLanguageExp2",1,"EIWH03",24,"female","psychology","German","English","2","1","Categorization",54,"An oxymoron is a phrase that contains an internal contradiction.","SetB2","easy","true",NA,6,4238,NA,NA,NA,NA,NA,NA,NA
"ForeignLanguageExp2",1,"EIWH03",24,"female","psychology","German","English","2","1","Categorization",55,"The first artificial nuclear reaction was induced in 1919.","SetB1","difficult","true",NA,4,8504,NA,NA,NA,NA,NA,NA,NA
"ForeignLanguageExp2",1,"EIWH03",24,"female","psychology","German","English","2","1","Categorization",56,"There are four noble gases: helium, neon, argon and ragon.","SetB2","difficult","false",NA,1,3274,NA,NA,NA,NA,NA,NA,NA
"ForeignLanguageExp2",1,"EIWH03",24,"female","psychology","German","English","2","1","TruthJudgment1",57,"The catastrophe of the nuclear power plant Tschernobyl happened in 1986.","SetA1","easy","true","no",NA,NA,"true",9467,NA,NA,NA,NA,"selected"
"ForeignLanguageExp2",1,"EIWH03",24,"female","psychology","German","English","2","1","TruthJudgment1",58,"The ""Grande Arche"" is a monument in Toulouse.","SetB1","difficult","false","yes",NA,NA,"true",3630,NA,NA,NA,NA,"selected"
"ForeignLanguageExp2",1,"EIWH03",24,"female","psychology","German","English","2","1","TruthJudgment1",59,"Most speed cameras for traffic offenders are in Great Britain.","SetA1","difficult","true","no",NA,NA,"true",3682,NA,NA,NA,NA,"selected"
"ForeignLanguageExp2",1,"EIWH03",24,"female","psychology","German","English","2","1","TruthJudgment1",60,"The United Nations were founded in 1848.","SetB1","easy","false","yes",NA,NA,"false",2522,NA,NA,NA,NA,"selected"
"ForeignLanguageExp2",1,"EIWH03",24,"female","psychology","German","English","2","1","TruthJudgment1",61,"Pluto is the largest planet in the solar system. ","SetA1","easy","false","no",NA,NA,"false",5402,NA,NA,NA,NA,"selected"
"ForeignLanguageExp2",1,"EIWH03",24,"female","psychology","German","English","2","1","TruthJudgment1",62,"On average, every German drinks 25 liters of tea per year.","SetA1","difficult","true","no",NA,NA,"true",6772,NA,NA,NA,NA,"selected"
"ForeignLanguageExp2",1,"EIWH03",24,"female","psychology","German","English","2","1","TruthJudgment1",63,"The Grand Canyon evolved from the water course of the Colorado River. ","SetA1","difficult","true","no",NA,NA,"true",2971,NA,NA,NA,NA,"selected"
"ForeignLanguageExp2",1,"EIWH03",24,"female","psychology","German","English","2","1","TruthJudgment1",64,"An Ironman must run 42 km, swim 3.8 km and cycle 180 km. ","SetA1","easy","true","no",NA,NA,"true",7304,NA,NA,NA,NA,"selected"
"ForeignLanguageExp2",1,"EIWH03",24,"female","psychology","German","English","2","1","TruthJudgment1",65,"The Red Cross has been awarded the Nobel Peace Prize three times.","SetA1","difficult","true","no",NA,NA,"true",3858,NA,NA,NA,NA,"selected"
"ForeignLanguageExp2",1,"EIWH03",24,"female","psychology","German","English","2","1","TruthJudgment1",66,"The ""Bridge of Sighs"" is located in Venice.","SetB1","easy","true","yes",NA,NA,"true",733,NA,NA,NA,NA,"selected"
"ForeignLanguageExp2",1,"EIWH03",24,"female","psychology","German","English","2","1","TruthJudgment1",67,"The match kick-off in hockey is called ""Bully"".","SetA1","difficult","true","no",NA,NA,"true",2781,NA,NA,NA,NA,"selected"
"ForeignLanguageExp2",1,"EIWH03",24,"female","psychology","German","English","2","1","TruthJudgment1",68,"A wasp can fly approximately 3 km/h.","SetA1","difficult","false","no",NA,NA,"true",3889,NA,NA,NA,NA,"selected"
"ForeignLanguageExp2",1,"EIWH03",24,"female","psychology","German","English","2","1","TruthJudgment1",69,"The language Mandarin is spoken by almost one billion people.","SetB1","easy","true","yes",NA,NA,"true",3154,NA,NA,NA,NA,"selected"
"ForeignLanguageExp2",1,"EIWH03",24,"female","psychology","German","English","2","1","TruthJudgment1",70,"For four years, Cologne cathedral was the world's highest building.","SetB1","easy","true","yes",NA,NA,"true",8863,NA,NA,NA,NA,"selected"
"ForeignLanguageExp2",1,"EIWH03",24,"female","psychology","German","English","2","1","TruthJudgment1",71,"The USA are the world's largest country in terms of area. ","SetA1","easy","false","no",NA,NA,"false",4474,NA,NA,NA,NA,"selected"
"ForeignLanguageExp2",1,"EIWH03",24,"female","psychology","German","English","2","1","TruthJudgment1",72,"James Connolly was the first Olympic champion of the modern age.","SetB1","difficult","true","yes",NA,NA,"false",3305,NA,NA,NA,NA,"selected"
"ForeignLanguageExp2",1,"EIWH03",24,"female","psychology","German","English","2","1","TruthJudgment1",73,"There are no wild living polar bears in Greenland.","SetB1","difficult","false","yes",NA,NA,"true",3936,NA,NA,NA,NA,"selected"
"ForeignLanguageExp2",1,"EIWH03",24,"female","psychology","German","English","2","1","TruthJudgment1",74,"Salts have a crystal structure consisting of ions.","SetB1","easy","true","yes",NA,NA,"true",1833,NA,NA,NA,NA,"selected"
"ForeignLanguageExp2",1,"EIWH03",24,"female","psychology","German","English","2","1","TruthJudgment1",75,"Isaac Newton discovered that the colour of light is composed of spectral colours.","SetA1","difficult","true","no",NA,NA,"true",3788,NA,NA,NA,NA,"selected"
"ForeignLanguageExp2",1,"EIWH03",24,"female","psychology","German","English","2","1","TruthJudgment1",76,"Martin Luther's grave is located in the town church of Jena.","SetA1","difficult","false","no",NA,NA,"false",6402,NA,NA,NA,NA,"selected"
"ForeignLanguageExp2",1,"EIWH03",24,"female","psychology","German","English","2","1","TruthJudgment1",77,"The Greek gods of creation were Gaia, Erebus and Creon. ","SetB1","difficult","false","yes",NA,NA,"true",3367,NA,NA,NA,NA,"selected"
"ForeignLanguageExp2",1,"EIWH03",24,"female","psychology","German","English","2","1","TruthJudgment1",78,"Olive oil is the only food that never goes bad. ","SetA1","easy","false","no",NA,NA,"true",6071,NA,NA,NA,NA,"selected"
"ForeignLanguageExp2",1,"EIWH03",24,"female","psychology","German","English","2","1","TruthJudgment1",79,"3.5% of the water on Earth is freshwater. ","SetB1","easy","true","yes",NA,NA,"true",1960,NA,NA,NA,NA,"selected"
"ForeignLanguageExp2",1,"EIWH03",24,"female","psychology","German","English","2","1","TruthJudgment1",80,"Nolan Bushnell is founder of the company Atari.","SetB1","difficult","true","yes",NA,NA,"true",3014,NA,NA,NA,NA,"selected"
"ForeignLanguageExp2",1,"EIWH03",24,"female","psychology","German","English","2","1","TruthJudgment1",81,"Pearls are usually found in scallops. ","SetB1","easy","false","yes",NA,NA,"true",2050,NA,NA,NA,NA,"selected"
"ForeignLanguageExp2",1,"EIWH03",24,"female","psychology","German","English","2","1","TruthJudgment1",82,"Pumpkin is good for vision.","SetB1","easy","false","yes",NA,NA,"true",1381,NA,NA,NA,NA,"selected"
"ForeignLanguageExp2",1,"EIWH03",24,"female","psychology","German","English","2","1","TruthJudgment1",83,"France is a permanent member of the UN security council. ","SetA1","easy","true","no",NA,NA,"false",4314,NA,NA,NA,NA,"selected"
"ForeignLanguageExp2",1,"EIWH03",24,"female","psychology","German","English","2","1","TruthJudgment1",84,"Hoffmann von Fallersleben wrote the lyrics of the German national anthem.","SetA1","easy","true","no",NA,NA,"true",4003,NA,NA,NA,NA,"selected"
"ForeignLanguageExp2",1,"EIWH03",24,"female","psychology","German","English","2","1","TruthJudgment1",85,"The first artificial nuclear reaction was induced in 1919.","SetB1","difficult","true","yes",NA,NA,"true",5247,NA,NA,NA,NA,"selected"
"ForeignLanguageExp2",1,"EIWH03",24,"female","psychology","German","English","2","1","TruthJudgment1",86,"The colours of the German flag are black, red and gold.","Controlitem",NA,"true",NA,NA,NA,"true",2849,NA,NA,NA,NA,"selected"
"ForeignLanguageExp2",1,"EIWH03",24,"female","psychology","German","English","2","1","TruthJudgment1",87,"The name ""Google"" is based on the founder's nickname. ","SetA1","easy","false","no",NA,NA,"false",3940,NA,NA,NA,NA,"selected"
"ForeignLanguageExp2",1,"EIWH03",24,"female","psychology","German","English","2","1","TruthJudgment1",88,"Joschka Fischer is a member of the SPD.","SetB1","easy","false","yes",NA,NA,"true",2753,NA,NA,NA,NA,"selected"
"ForeignLanguageExp2",1,"EIWH03",24,"female","psychology","German","English","2","1","TruthJudgment1",89,"Hinduism is the religion with the highest number of followers.","SetB1","difficult","false","yes",NA,NA,"false",1951,NA,NA,NA,NA,"selected"
"ForeignLanguageExp2",1,"EIWH03",24,"female","psychology","German","English","2","1","TruthJudgment1",90,"The Russian word for ""mountaintop"" is ""pik"".","SetB1","difficult","true","yes",NA,NA,"true",1581,NA,NA,NA,NA,"selected"
"ForeignLanguageExp2",1,"EIWH03",24,"female","psychology","German","English","2","1","TruthJudgment1",91,"The speed of a sound is unaffected by temperature.","SetB1","difficult","false","yes",NA,NA,"true",3899,NA,NA,NA,NA,"selected"
"ForeignLanguageExp2",1,"EIWH03",24,"female","psychology","German","English","2","1","TruthJudgment1",92," The Eiffel Tower is in Paris.","Controlitem",NA,"true",NA,NA,NA,"true",2669,NA,NA,NA,NA,"selected"
"ForeignLanguageExp2",1,"EIWH03",24,"female","psychology","German","English","2","1","TruthJudgment1",93,"Angela Merkel is a member of the party ""Bündnis 90/ Die Grünen"".","Controlitem",NA,"false",NA,NA,NA,"false",2398,NA,NA,NA,NA,"selected"
"ForeignLanguageExp2",1,"EIWH03",24,"female","psychology","German","English","2","1","TruthJudgment1",94,"Cactuses can reproduce by parthenogenesis.","SetA1","difficult","false","no",NA,NA,"false",4896,NA,NA,NA,NA,"selected"
"ForeignLanguageExp2",1,"EIWH03",24,"female","psychology","German","English","2","1","TruthJudgment1",95,"A woman suffering from arachnophobia is afraid of aliens.","SetA1","easy","false","no",NA,NA,"false",3200,NA,NA,NA,NA,"selected"
"ForeignLanguageExp2",1,"EIWH03",24,"female","psychology","German","English","2","1","TruthJudgment1",96,"A ripe banana contains about 18% sugar. ","SetB1","easy","true","yes",NA,NA,"true",1950,NA,NA,NA,NA,"selected"
"ForeignLanguageExp2",1,"EIWH03",24,"female","psychology","German","English","2","1","TruthJudgment1",97,"Benjamin Blümchen was created by the author Elfie Donnelly. ","SetB1","difficult","true","yes",NA,NA,"true",2023,NA,NA,NA,NA,"selected"
"ForeignLanguageExp2",1,"EIWH03",24,"female","psychology","German","English","2","1","TruthJudgment1",98,"Mount Etna is the highest vulcano in Europe.","SetB1","easy","true","yes",NA,NA,"true",5147,NA,NA,NA,NA,"selected"
"ForeignLanguageExp2",1,"EIWH03",24,"female","psychology","German","English","2","1","TruthJudgment1",99,"The Statue of Liberty holds the torch in her left hand.","SetA1","difficult","false","no",NA,NA,"false",4346,NA,NA,NA,NA,"selected"
"ForeignLanguageExp2",1,"EIWH03",24,"female","psychology","German","English","2","1","TruthJudgment1",100,"The ""laicism"" demands a fusion of church and state.","SetA1","easy","false","no",NA,NA,"false",5427,NA,NA,NA,NA,"selected"
"ForeignLanguageExp2",1,"EIWH03",24,"female","psychology","German","English","2","1","TruthJudgment1",101,"Martin Luther King's mother was a teacher. ","SetA1","easy","true","no",NA,NA,"true",2267,NA,NA,NA,NA,"selected"
"ForeignLanguageExp2",1,"EIWH03",24,"female","psychology","German","English","2","1","TruthJudgment1",102,"One litre of apple juice contains about 50 grams of protein.","SetB1","easy","false","yes",NA,NA,"true",4988,NA,NA,NA,NA,"selected"
"ForeignLanguageExp2",1,"EIWH03",24,"female","psychology","German","English","2","1","TruthJudgment1",103,"Albert Einstein was born in 1792.","SetB1","easy","false","yes",NA,NA,"false",2345,NA,NA,NA,NA,"selected"
"ForeignLanguageExp2",1,"EIWH03",24,"female","psychology","German","English","2","1","TruthJudgment1",104,"The first atomic bomb was dropped on Tokyo. ","SetB1","easy","false","yes",NA,NA,"false",2288,NA,NA,NA,NA,"selected"
"ForeignLanguageExp2",1,"EIWH03",24,"female","psychology","German","English","2","1","TruthJudgment1",105,"A famous bay in Cuba is called the Bay of Cows.","SetB1","difficult","false","yes",NA,NA,"true",1298,NA,NA,NA,NA,"selected"
"ForeignLanguageExp2",1,"EIWH03",24,"female","psychology","German","English","2","1","TruthJudgment1",106,"The first photograph was taken in 1822.","SetA1","easy","true","no",NA,NA,"true",6298,NA,NA,NA,NA,"selected"
"ForeignLanguageExp2",1,"EIWH03",24,"female","psychology","German","English","2","1","TruthJudgment1",107,"The Apple computer ""Macintosh"" was named after the apple cultivar ""McIntosh"". ","SetA1","difficult","true","no",NA,NA,"true",6275,NA,NA,NA,NA,"selected"
"ForeignLanguageExp2",1,"EIWH03",24,"female","psychology","German","English","2","1","TruthJudgment1",108,"Alma Mater is an old-fashioned word for ""hospital"". ","SetA1","easy","false","no",NA,NA,"false",7653,NA,NA,NA,NA,"selected"
"ForeignLanguageExp2",1,"EIWH03",24,"female","psychology","German","English","2","1","TruthJudgment1",109,"The salt content in the Baltic Sea is higher than in the North Sea.","SetB1","difficult","false","yes",NA,NA,"true",2569,NA,NA,NA,NA,"selected"
"ForeignLanguageExp2",1,"EIWH03",24,"female","psychology","German","English","2","1","TruthJudgment1",110,"One year is divided into 10 months.","Controlitem",NA,"false",NA,NA,NA,"false",2076,NA,NA,NA,NA,"selected"
"ForeignLanguageExp2",1,"EIWH03",24,"female","psychology","German","English","2","1","TruthJudgment1",111,"The planet Earth largely consists of iron.","SetB1","difficult","true","yes",NA,NA,"false",2493,NA,NA,NA,NA,"selected"
"ForeignLanguageExp2",1,"EIWH03",24,"female","psychology","German","English","2","1","TruthJudgment1",112,"Rio de Janeiro is the capital of Brasil. ","SetA1","difficult","false","no",NA,NA,"true",2703,NA,NA,NA,NA,"selected"
"ForeignLanguageExp2",1,"EIWH03",24,"female","psychology","German","English","2","1","TruthJudgment1",113,"For two days within a menstrual cycle, a pregnancy is possible.","SetA1","difficult","false","no",NA,NA,"true",4951,NA,NA,NA,NA,"selected"
"ForeignLanguageExp2",1,"EIWH03",24,"female","psychology","German","English","2","1","TruthJudgment1",114,"Artur Rubinstein is a famous pianist. ","SetB1","difficult","true","yes",NA,NA,"false",1723,NA,NA,NA,NA,"selected"
"ForeignLanguageExp2",1,"EIWH03",24,"female","psychology","German","English","2","1","TruthJudgment1",115,"Vitamin A dissolves in water. ","SetA1","difficult","false","no",NA,NA,"false",4264,NA,NA,NA,NA,"selected"
"ForeignLanguageExp2",1,"EIWH03",24,"female","psychology","German","English","2","1","TruthJudgment1",116,"Nelson Mandela was the first black president of South Africa. ","SetA1","easy","true","no",NA,NA,"true",2994,NA,NA,NA,NA,"selected"
"ForeignLanguageExp2",1,"EIWH03",24,"female","psychology","German","English","2","1","LexPractice",117,NA,NA,NA,NA,NA,NA,NA,NA,NA,"BLIEZ","nonword",1,971,NA
"ForeignLanguageExp2",1,"EIWH03",24,"female","psychology","German","English","2","1","LexPractice",118,NA,NA,NA,NA,NA,NA,NA,NA,NA,"BIRTH","word",1,779,NA
"ForeignLanguageExp2",1,"EIWH03",24,"female","psychology","German","English","2","1","LexPractice",119,NA,NA,NA,NA,NA,NA,NA,NA,NA,"FILTH","word",1,939,NA
"ForeignLanguageExp2",1,"EIWH03",24,"female","psychology","German","English","2","1","LexPractice",120,NA,NA,NA,NA,NA,NA,NA,NA,NA,"STROUF","nonword",1,780,NA
"ForeignLanguageExp2",1,"EIWH03",24,"female","psychology","German","English","2","1","LexTask",121,NA,NA,NA,NA,NA,NA,NA,NA,NA,"MUSP","nonword",1,702,"selected"
"ForeignLanguageExp2",1,"EIWH03",24,"female","psychology","German","English","2","1","LexTask",122,NA,NA,NA,NA,NA,NA,NA,NA,NA,"BLAST","word",1,712,"selected"
"ForeignLanguageExp2",1,"EIWH03",24,"female","psychology","German","English","2","1","LexTask",123,NA,NA,NA,NA,NA,NA,NA,NA,NA,"WARTH","nonword",0,1810,"selected"
"ForeignLanguageExp2",1,"EIWH03",24,"female","psychology","German","English","2","1","LexTask",124,NA,NA,NA,NA,NA,NA,NA,NA,NA,"STRONG","word",1,912,"selected"
"ForeignLanguageExp2",1,"EIWH03",24,"female","psychology","German","English","2","1","LexTask",125,NA,NA,NA,NA,NA,NA,NA,NA,NA,"SLIDE","word",1,666,"selected"
"ForeignLanguageExp2",1,"EIWH03",24,"female","psychology","German","English","2","1","LexTask",126,NA,NA,NA,NA,NA,NA,NA,NA,NA,"DWAUK","nonword",1,838,"selected"
"ForeignLanguageExp2",1,"EIWH03",24,"female","psychology","German","English","2","1","LexTask",127,NA,NA,NA,NA,NA,NA,NA,NA,NA,"DWEIG","nonword",1,1012,"selected"
"ForeignLanguageExp2",1,"EIWH03",24,"female","psychology","German","English","2","1","LexTask",128,NA,NA,NA,NA,NA,NA,NA,NA,NA,"DWETT","nonword",1,611,"selected"
"ForeignLanguageExp2",1,"EIWH03",24,"female","psychology","German","English","2","1","LexTask",129,NA,NA,NA,NA,NA,NA,NA,NA,NA,"DISC","word",1,545,"selected"
"ForeignLanguageExp2",1,"EIWH03",24,"female","psychology","German","English","2","1","LexTask",130,NA,NA,NA,NA,NA,NA,NA,NA,NA,"KIESP","nonword",1,715,"selected"
"ForeignLanguageExp2",1,"EIWH03",24,"female","psychology","German","English","2","1","LexTask",131,NA,NA,NA,NA,NA,NA,NA,NA,NA,"BLEAK","word",1,581,"selected"
"ForeignLanguageExp2",1,"EIWH03",24,"female","psychology","German","English","2","1","LexTask",132,NA,NA,NA,NA,NA,NA,NA,NA,NA,"TWAUB","nonword",1,605,"selected"
"ForeignLanguageExp2",1,"EIWH03",24,"female","psychology","German","English","2","1","LexTask",133,NA,NA,NA,NA,NA,NA,NA,NA,NA,"HURL","word",1,686,"selected"
"ForeignLanguageExp2",1,"EIWH03",24,"female","psychology","German","English","2","1","LexTask",134,NA,NA,NA,NA,NA,NA,NA,NA,NA,"FLAG","word",1,603,"selected"
"ForeignLanguageExp2",1,"EIWH03",24,"female","psychology","German","English","2","1","LexTask",135,NA,NA,NA,NA,NA,NA,NA,NA,NA,"SLAR","nonword",1,673,"selected"
"ForeignLanguageExp2",1,"EIWH03",24,"female","psychology","German","English","2","1","LexTask",136,NA,NA,NA,NA,NA,NA,NA,NA,NA,"TWAUL","nonword",1,644,"selected"
"ForeignLanguageExp2",1,"EIWH03",24,"female","psychology","German","English","2","1","LexTask",137,NA,NA,NA,NA,NA,NA,NA,NA,NA,"FLOTH","nonword",0,543,"selected"
"ForeignLanguageExp2",1,"EIWH03",24,"female","psychology","German","English","2","1","LexTask",138,NA,NA,NA,NA,NA,NA,NA,NA,NA,"TWIN","word",1,613,"selected"
"ForeignLanguageExp2",1,"EIWH03",24,"female","psychology","German","English","2","1","LexTask",139,NA,NA,NA,NA,NA,NA,NA,NA,NA,"BLACK","word",1,608,"selected"
"ForeignLanguageExp2",1,"EIWH03",24,"female","psychology","German","English","2","1","LexTask",140,NA,NA,NA,NA,NA,NA,NA,NA,NA,"SMOUSS","nonword",1,718,"selected"
"ForeignLanguageExp2",1,"EIWH03",24,"female","psychology","German","English","2","1","LexTask",141,NA,NA,NA,NA,NA,NA,NA,NA,NA,"SLEIK","nonword",1,672,"selected"
"ForeignLanguageExp2",1,"EIWH03",24,"female","psychology","German","English","2","1","LexTask",142,NA,NA,NA,NA,NA,NA,NA,NA,NA,"SPREE","word",0,1292,"selected"
"ForeignLanguageExp2",1,"EIWH03",24,"female","psychology","German","English","2","1","LexTask",143,NA,NA,NA,NA,NA,NA,NA,NA,NA,"SLEEP","word",1,568,"selected"
"ForeignLanguageExp2",1,"EIWH03",24,"female","psychology","German","English","2","1","LexTask",144,NA,NA,NA,NA,NA,NA,NA,NA,NA,"SMEIZ","nonword",1,1035,"selected"
"ForeignLanguageExp2",1,"EIWH03",24,"female","psychology","German","English","2","1","LexTask",145,NA,NA,NA,NA,NA,NA,NA,NA,NA,"WASP","word",1,562,"selected"
"ForeignLanguageExp2",1,"EIWH03",24,"female","psychology","German","English","2","1","LexTask",146,NA,NA,NA,NA,NA,NA,NA,NA,NA,"SMALL","word",1,594,"selected"
"ForeignLanguageExp2",1,"EIWH03",24,"female","psychology","German","English","2","1","LexTask",147,NA,NA,NA,NA,NA,NA,NA,NA,NA,"SMATT","nonword",1,905,"selected"
"ForeignLanguageExp2",1,"EIWH03",24,"female","psychology","German","English","2","1","LexTask",148,NA,NA,NA,NA,NA,NA,NA,NA,NA,"BURL","word",0,945,"selected"
"ForeignLanguageExp2",1,"EIWH03",24,"female","psychology","German","English","2","1","LexTask",149,NA,NA,NA,NA,NA,NA,NA,NA,NA,"WHITE","word",1,528,"selected"
"ForeignLanguageExp2",1,"EIWH03",24,"female","psychology","German","English","2","1","LexTask",150,NA,NA,NA,NA,NA,NA,NA,NA,NA,"HULK","word",1,899,"selected"
"ForeignLanguageExp2",1,"EIWH03",24,"female","psychology","German","English","2","1","LexTask",151,NA,NA,NA,NA,NA,NA,NA,NA,NA,"SMOUN","nonword",1,659,"selected"
"ForeignLanguageExp2",1,"EIWH03",24,"female","psychology","German","English","2","1","LexTask",152,NA,NA,NA,NA,NA,NA,NA,NA,NA,"TWELVE","word",1,616,"selected"
"ForeignLanguageExp2",1,"EIWH03",24,"female","psychology","German","English","2","1","LexTask",153,NA,NA,NA,NA,NA,NA,NA,NA,NA,"PEARL","word",1,520,"selected"
"ForeignLanguageExp2",1,"EIWH03",24,"female","psychology","German","English","2","1","LexTask",154,NA,NA,NA,NA,NA,NA,NA,NA,NA,"BRISK","word",1,548,"selected"
"ForeignLanguageExp2",1,"EIWH03",24,"female","psychology","German","English","2","1","LexTask",155,NA,NA,NA,NA,NA,NA,NA,NA,NA,"MILK","word",1,578,"selected"
"ForeignLanguageExp2",1,"EIWH03",24,"female","psychology","German","English","2","1","LexTask",156,NA,NA,NA,NA,NA,NA,NA,NA,NA,"STREAM","word",1,745,"selected"
"ForeignLanguageExp2",1,"EIWH03",24,"female","psychology","German","English","2","1","LexTask",157,NA,NA,NA,NA,NA,NA,NA,NA,NA,"DUSK","word",1,575,"selected"
"ForeignLanguageExp2",1,"EIWH03",24,"female","psychology","German","English","2","1","LexTask",158,NA,NA,NA,NA,NA,NA,NA,NA,NA,"DIEWL","nonword",1,663,"selected"
"ForeignLanguageExp2",1,"EIWH03",24,"female","psychology","German","English","2","1","LexTask",159,NA,NA,NA,NA,NA,NA,NA,NA,NA,"TWOG","nonword",1,736,"selected"
"ForeignLanguageExp2",1,"EIWH03",24,"female","psychology","German","English","2","1","LexTask",160,NA,NA,NA,NA,NA,NA,NA,NA,NA,"SLIEN","nonword",1,673,"selected"
"ForeignLanguageExp2",1,"EIWH03",24,"female","psychology","German","English","2","1","LexTask",161,NA,NA,NA,NA,NA,NA,NA,NA,NA,"TWIR","nonword",1,685,"selected"
"ForeignLanguageExp2",1,"EIWH03",24,"female","psychology","German","English","2","1","LexTask",162,NA,NA,NA,NA,NA,NA,NA,NA,NA,"LEIWL","nonword",1,704,"selected"
"ForeignLanguageExp2",1,"EIWH03",24,"female","psychology","German","English","2","1","LexTask",163,NA,NA,NA,NA,NA,NA,NA,NA,NA,"SLOUT","nonword",1,1491,"selected"
"ForeignLanguageExp2",1,"EIWH03",24,"female","psychology","German","English","2","1","LexTask",164,NA,NA,NA,NA,NA,NA,NA,NA,NA,"BOWL","word",1,614,"selected"
"ForeignLanguageExp2",1,"EIWH03",24,"female","psychology","German","English","2","1","LexTask",165,NA,NA,NA,NA,NA,NA,NA,NA,NA,"YOUNG","word",1,588,"selected"
"ForeignLanguageExp2",1,"EIWH03",24,"female","psychology","German","English","2","1","LexTask",166,NA,NA,NA,NA,NA,NA,NA,NA,NA,"SLAVE","word",1,584,"selected"
"ForeignLanguageExp2",1,"EIWH03",24,"female","psychology","German","English","2","1","LexTask",167,NA,NA,NA,NA,NA,NA,NA,NA,NA,"TWIESS","nonword",1,740,"selected"
"ForeignLanguageExp2",1,"EIWH03",24,"female","psychology","German","English","2","1","LexTask",168,NA,NA,NA,NA,NA,NA,NA,NA,NA,"TWIST","word",1,702,"selected"
"ForeignLanguageExp2",1,"EIWH03",24,"female","psychology","German","English","2","1","LexTask",169,NA,NA,NA,NA,NA,NA,NA,NA,NA,"PORCH","word",1,548,"selected"
"ForeignLanguageExp2",1,"EIWH03",24,"female","psychology","German","English","2","1","LexTask",170,NA,NA,NA,NA,NA,NA,NA,NA,NA,"FLAT","word",1,527,"selected"
"ForeignLanguageExp2",1,"EIWH03",24,"female","psychology","German","English","2","1","LexTask",171,NA,NA,NA,NA,NA,NA,NA,NA,NA,"SMILE","word",1,475,"selected"
"ForeignLanguageExp2",1,"EIWH03",24,"female","psychology","German","English","2","1","LexTask",172,NA,NA,NA,NA,NA,NA,NA,NA,NA,"DWIES","nonword",1,665,"selected"
"ForeignLanguageExp2",1,"EIWH03",24,"female","psychology","German","English","2","1","LexTask",173,NA,NA,NA,NA,NA,NA,NA,NA,NA,"DWIETT","nonword",1,622,"selected"
"ForeignLanguageExp2",1,"EIWH03",24,"female","psychology","German","English","2","1","LexTask",174,NA,NA,NA,NA,NA,NA,NA,NA,NA,"SILK","word",1,526,"selected"
"ForeignLanguageExp2",1,"EIWH03",24,"female","psychology","German","English","2","1","LexTask",175,NA,NA,NA,NA,NA,NA,NA,NA,NA,"BILTH","nonword",1,842,"selected"
"ForeignLanguageExp2",1,"EIWH03",24,"female","psychology","German","English","2","1","LexTask",176,NA,NA,NA,NA,NA,NA,NA,NA,NA,"SMOKE","word",1,538,"selected"
"ForeignLanguageExp2",1,"EIWH03",24,"female","psychology","German","English","2","1","LexTask",177,NA,NA,NA,NA,NA,NA,NA,NA,NA,"SIRTH","nonword",1,686,"selected"
"ForeignLanguageExp2",1,"EIWH03",24,"female","psychology","German","English","2","1","LexTask",178,NA,NA,NA,NA,NA,NA,NA,NA,NA,"GALTH","nonword",1,1484,"selected"
"ForeignLanguageExp2",1,"EIWH03",24,"female","psychology","German","English","2","1","LexTask",179,NA,NA,NA,NA,NA,NA,NA,NA,NA,"TERTH","nonword",1,650,"selected"
"ForeignLanguageExp2",1,"EIWH03",24,"female","psychology","German","English","2","1","LexTask",180,NA,NA,NA,NA,NA,NA,NA,NA,NA,"TOUWL","nonword",1,569,"selected"
"ForeignLanguageExp2",1,"EIWH03",24,"female","psychology","German","English","2","1","LexTask",181,NA,NA,NA,NA,NA,NA,NA,NA,NA,"DWARF","word",1,844,"selected"
"ForeignLanguageExp2",1,"EIWH03",24,"female","psychology","German","English","2","1","LexTask",182,NA,NA,NA,NA,NA,NA,NA,NA,NA,"SMOSS","nonword",1,739,"selected"
"ForeignLanguageExp2",1,"EIWH03",24,"female","psychology","German","English","2","1","LexTask",183,NA,NA,NA,NA,NA,NA,NA,NA,NA,"ZEWL","nonword",1,711,"selected"
"ForeignLanguageExp2",1,"EIWH03",24,"female","psychology","German","English","2","1","LexTask",184,NA,NA,NA,NA,NA,NA,NA,NA,NA,"STARCH","word",1,812,"selected"
"ForeignLanguageExp2",1,"EIWH03",24,"female","psychology","German","English","2","1","LexTask",185,NA,NA,NA,NA,NA,NA,NA,NA,NA,"SEARCH","word",1,725,"selected"
"ForeignLanguageExp2",1,"EIWH03",24,"female","psychology","German","English","2","1","LexTask",186,NA,NA,NA,NA,NA,NA,NA,NA,NA,"SPREAD","word",1,538,"selected"
"ForeignLanguageExp2",1,"EIWH03",24,"female","psychology","German","English","2","1","LexTask",187,NA,NA,NA,NA,NA,NA,NA,NA,NA,"SMESS","nonword",1,646,"selected"
"ForeignLanguageExp2",1,"EIWH03",24,"female","psychology","German","English","2","1","LexTask",188,NA,NA,NA,NA,NA,NA,NA,NA,NA,"HEISP","nonword",1,773,"selected"
"ForeignLanguageExp2",1,"EIWH03",24,"female","psychology","German","English","2","1","LexTask",189,NA,NA,NA,NA,NA,NA,NA,NA,NA,"SLAUX","nonword",1,807,"selected"
"ForeignLanguageExp2",1,"EIWH03",24,"female","psychology","German","English","2","1","LexTask",190,NA,NA,NA,NA,NA,NA,NA,NA,NA,"DWUF","nonword",1,744,"selected"
"ForeignLanguageExp2",1,"EIWH03",24,"female","psychology","German","English","2","1","LexTask",191,NA,NA,NA,NA,NA,NA,NA,NA,NA,"SLEIF","nonword",1,715,"selected"
"ForeignLanguageExp2",1,"EIWH03",24,"female","psychology","German","English","2","1","LexTask",192,NA,NA,NA,NA,NA,NA,NA,NA,NA,"SPRIG","word",1,968,"selected"
"ForeignLanguageExp2",1,"EIWH03",24,"female","psychology","German","English","2","2","TruthJudgment2",1,"There are 24 known moons of the planet Saturn. ","SetA2","difficult","false","no",NA,NA,"true",2964,NA,NA,NA,NA,"selected"
"ForeignLanguageExp2",1,"EIWH03",24,"female","psychology","German","English","2","2","TruthJudgment2",2,"The newspaper BILD has about 12 million readers.","SetA2","easy","true","no",NA,NA,"false",5170,NA,NA,NA,NA,"selected"
"ForeignLanguageExp2",1,"EIWH03",24,"female","psychology","German","English","2","2","TruthJudgment2",3,"Gold is lighter than aluminium.","SetA2","easy","false","no",NA,NA,"false",3297,NA,NA,NA,NA,"selected"
"ForeignLanguageExp2",1,"EIWH03",24,"female","psychology","German","English","2","2","TruthJudgment2",4,"The first German skyscraper was built in 1950.","SetB2","difficult","false","yes",NA,NA,"true",3522,NA,NA,NA,NA,"selected"
"ForeignLanguageExp2",1,"EIWH03",24,"female","psychology","German","English","2","2","TruthJudgment2",5,"Milk chocolate contains at least 60% cocoa.","SetA2","easy","false","no",NA,NA,"true",1690,NA,NA,NA,NA,"selected"
"ForeignLanguageExp2",1,"EIWH03",24,"female","psychology","German","English","2","2","TruthJudgment2",6,"Italian is no official language of Switzerland. ","SetB2","easy","false","yes",NA,NA,"false",2324,NA,NA,NA,NA,"selected"
"ForeignLanguageExp2",1,"EIWH03",24,"female","psychology","German","English","2","2","TruthJudgment2",7,"New Year's Eve is celebrated on the 25th of December. ","Controlitem",NA,"false",NA,NA,NA,"false",6588,NA,NA,NA,NA,"selected"
"ForeignLanguageExp2",1,"EIWH03",24,"female","psychology","German","English","2","2","TruthJudgment2",8,"The mass of a body is unequal to its weight.","SetA2","easy","true","no",NA,NA,"true",4587,NA,NA,NA,NA,"selected"
"ForeignLanguageExp2",1,"EIWH03",24,"female","psychology","German","English","2","2","TruthJudgment2",9,"Semiotics is the general study of sign processes.","SetA2","difficult","true","no",NA,NA,"false",6047,NA,NA,NA,NA,"selected"
"ForeignLanguageExp2",1,"EIWH03",24,"female","psychology","German","English","2","2","TruthJudgment2",10,"The northernmost point of Norway is called Nordkap.","SetB2","difficult","true","yes",NA,NA,"true",2235,NA,NA,NA,NA,"selected"
"ForeignLanguageExp2",1,"EIWH03",24,"female","psychology","German","English","2","2","TruthJudgment2",11,"The capital of Madagascar is Toamasina. ","SetA2","difficult","false","no",NA,NA,"false",3991,NA,NA,NA,NA,"selected"
"ForeignLanguageExp2",1,"EIWH03",24,"female","psychology","German","English","2","2","TruthJudgment2",12,"The four horsemen of the Apocalypse represent war, hunger, pest, and death. ","SetB2","easy","true","yes",NA,NA,"true",3645,NA,NA,NA,NA,"selected"
"ForeignLanguageExp2",1,"EIWH03",24,"female","psychology","German","English","2","2","TruthJudgment2",13,"Pentameter is the classical meter of epic poetry. ","SetB2","difficult","false","yes",NA,NA,"false",8041,NA,NA,NA,NA,"selected"
"ForeignLanguageExp2",1,"EIWH03",24,"female","psychology","German","English","2","2","TruthJudgment2",14,"The blood sugar level in diabetics can be lowered by administering cinnamon. ","SetB2","difficult","true","yes",NA,NA,"false",3629,NA,NA,NA,NA,"selected"
"ForeignLanguageExp2",1,"EIWH03",24,"female","psychology","German","English","2","2","TruthJudgment2",15,"The children's book character ""Bibi Blocksberg"" celebrated its 60th anniversary in 2010. ","SetB2","difficult","false","yes",NA,NA,"true",2870,NA,NA,NA,NA,"selected"
"ForeignLanguageExp2",1,"EIWH03",24,"female","psychology","German","English","2","2","TruthJudgment2",16,"Besides Italian, Latin is an official language in Vatican City. ","SetB2","easy","true","yes",NA,NA,"true",2333,NA,NA,NA,NA,"selected"
"ForeignLanguageExp2",1,"EIWH03",24,"female","psychology","German","English","2","2","TruthJudgment2",17,"The highest IQ score that has ever been achieved is 228.","SetB2","difficult","true","yes",NA,NA,"true",2292,NA,NA,NA,NA,"selected"
"ForeignLanguageExp2",1,"EIWH03",24,"female","psychology","German","English","2","2","TruthJudgment2",18,"Lyon is the capital of France.","Controlitem",NA,"false",NA,NA,NA,"false",3632,NA,NA,NA,NA,"selected"
"ForeignLanguageExp2",1,"EIWH03",24,"female","psychology","German","English","2","2","TruthJudgment2",19,"The longest side of a triangle is called ""cathetus"". ","SetB2","easy","false","yes",NA,NA,"false",3346,NA,NA,NA,NA,"selected"
"ForeignLanguageExp2",1,"EIWH03",24,"female","psychology","German","English","2","2","TruthJudgment2",20,"20% of all 85 year-olds suffer from Alzheimer's.","SetB2","difficult","true","yes",NA,NA,"true",5161,NA,NA,NA,NA,"selected"
"ForeignLanguageExp2",1,"EIWH03",24,"female","psychology","German","English","2","2","TruthJudgment2",21,"The Colossus of Rhodes is one of the ancient seven wonders of the world. ","SetB2","easy","true","yes",NA,NA,"true",2268,NA,NA,NA,NA,"selected"
"ForeignLanguageExp2",1,"EIWH03",24,"female","psychology","German","English","2","2","TruthJudgment2",22,"The Hungarian currency is called ""Forint"".","SetA2","difficult","true","no",NA,NA,"false",2326,NA,NA,NA,NA,"selected"
"ForeignLanguageExp2",1,"EIWH03",24,"female","psychology","German","English","2","2","TruthJudgment2",23,"The coffee bean is known in Europe since the mid-20th century.","SetB2","difficult","false","yes",NA,NA,"true",8825,NA,NA,NA,NA,"selected"
"ForeignLanguageExp2",1,"EIWH03",24,"female","psychology","German","English","2","2","TruthJudgment2",24,"The first woman in space was called Sunita Williams.","SetA2","difficult","false","no",NA,NA,"false",4601,NA,NA,NA,NA,"selected"
"ForeignLanguageExp2",1,"EIWH03",24,"female","psychology","German","English","2","2","TruthJudgment2",25,"Light years are a measure of speed.","SetA2","difficult","false","no",NA,NA,"true",2949,NA,NA,NA,NA,"selected"
"ForeignLanguageExp2",1,"EIWH03",24,"female","psychology","German","English","2","2","TruthJudgment2",26,"60% of the Earth's surface is covered with water. ","SetB2","difficult","false","yes",NA,NA,"true",1571,NA,NA,NA,NA,"selected"
"ForeignLanguageExp2",1,"EIWH03",24,"female","psychology","German","English","2","2","TruthJudgment2",27,"The world famous game ""Monopoly"" was first published in 1935.","SetA2","easy","true","no",NA,NA,"false",2691,NA,NA,NA,NA,"selected"
"ForeignLanguageExp2",1,"EIWH03",24,"female","psychology","German","English","2","2","TruthJudgment2",28,"Berlin is the biggest city in the European Union.","SetB2","easy","false","yes",NA,NA,"false",3708,NA,NA,NA,NA,"selected"
"ForeignLanguageExp2",1,"EIWH03",24,"female","psychology","German","English","2","2","TruthJudgment2",29,"Male sea elephants weigh about three times as much as females.","SetA2","difficult","true","no",NA,NA,"true",2992,NA,NA,NA,NA,"selected"
"ForeignLanguageExp2",1,"EIWH03",24,"female","psychology","German","English","2","2","TruthJudgment2",30,"Benzoic acid is used as a preservative in food.","SetA2","difficult","true","no",NA,NA,"false",5203,NA,NA,NA,NA,"selected"
"ForeignLanguageExp2",1,"EIWH03",24,"female","psychology","German","English","2","2","TruthJudgment2",31,"The movie ""Avatar"" is the most successful movie of all times. ","SetB2","difficult","true","yes",NA,NA,"false",2192,NA,NA,NA,NA,"selected"
"ForeignLanguageExp2",1,"EIWH03",24,"female","psychology","German","English","2","2","TruthJudgment2",32,"Mount Everest is the highest mountain in Asia. ","SetB2","easy","true","yes",NA,NA,"true",1909,NA,NA,NA,NA,"selected"
"ForeignLanguageExp2",1,"EIWH03",24,"female","psychology","German","English","2","2","TruthJudgment2",33,"The first propellant-free refrigerator was built in the US.","SetB2","difficult","false","yes",NA,NA,"true",4658,NA,NA,NA,NA,"selected"
"ForeignLanguageExp2",1,"EIWH03",24,"female","psychology","German","English","2","2","TruthJudgment2",34,"The central file of German traffic offenders is located in Freiburg. ","SetB2","easy","false","yes",NA,NA,"false",3880,NA,NA,NA,NA,"selected"
"ForeignLanguageExp2",1,"EIWH03",24,"female","psychology","German","English","2","2","TruthJudgment2",35,"Iron is the only metal that rusts. ","SetB2","easy","false","yes",NA,NA,"true",2624,NA,NA,NA,NA,"selected"
"ForeignLanguageExp2",1,"EIWH03",24,"female","psychology","German","English","2","2","TruthJudgment2",36,"1% of all births are twin births.","SetB2","difficult","true","yes",NA,NA,"true",1595,NA,NA,NA,NA,"selected"
"ForeignLanguageExp2",1,"EIWH03",24,"female","psychology","German","English","2","2","TruthJudgment2",37,"The measuring unit of magnetic flux is ""Henry"".","SetA2","difficult","false","no",NA,NA,"false",2774,NA,NA,NA,NA,"selected"
"ForeignLanguageExp2",1,"EIWH03",24,"female","psychology","German","English","2","2","TruthJudgment2",38,"From 1769 to 1772, Wolfang Amadeus Mozart took his Italian journey.","SetB2","easy","true","yes",NA,NA,"true",4100,NA,NA,NA,NA,"selected"
"ForeignLanguageExp2",1,"EIWH03",24,"female","psychology","German","English","2","2","TruthJudgment2",39,"The hair of intelligent people contains more iron.","SetB2","easy","false","yes",NA,NA,"false",1981,NA,NA,NA,NA,"selected"
"ForeignLanguageExp2",1,"EIWH03",24,"female","psychology","German","English","2","2","TruthJudgment2",40,"Martin Luther was born in Eisleben. ","SetA2","difficult","true","no",NA,NA,"false",1954,NA,NA,NA,NA,"selected"
"ForeignLanguageExp2",1,"EIWH03",24,"female","psychology","German","English","2","2","TruthJudgment2",41,"Galileo discovered gravity.","SetB2","easy","false","yes",NA,NA,"false",2991,NA,NA,NA,NA,"selected"
"ForeignLanguageExp2",1,"EIWH03",24,"female","psychology","German","English","2","2","TruthJudgment2",42,"According to the book Genesis, Methuselah was grandfather to Noah.","SetB2","difficult","true","yes",NA,NA,"true",2506,NA,NA,NA,NA,"selected"
"ForeignLanguageExp2",1,"EIWH03",24,"female","psychology","German","English","2","2","TruthJudgment2",43,"There are about 435 bridges in Venice. ","SetA2","easy","true","no",NA,NA,"true",2242,NA,NA,NA,NA,"selected"
"ForeignLanguageExp2",1,"EIWH03",24,"female","psychology","German","English","2","2","TruthJudgment2",44,"The planet Mercury is closest to the sun. ","SetB2","easy","true","yes",NA,NA,"true",5885,NA,NA,NA,NA,"selected"
"ForeignLanguageExp2",1,"EIWH03",24,"female","psychology","German","English","2","2","TruthJudgment2",45,"By mixing red and yellow, one gets orange.","Controlitem",NA,"true",NA,NA,NA,"true",4723,NA,NA,NA,NA,"selected"
"ForeignLanguageExp2",1,"EIWH03",24,"female","psychology","German","English","2","2","TruthJudgment2",46,"Alexandria was founded by Alexander the Great in 331 BC. ","SetA2","easy","true","no",NA,NA,"true",2337,NA,NA,NA,NA,"selected"
"ForeignLanguageExp2",1,"EIWH03",24,"female","psychology","German","English","2","2","TruthJudgment2",47,"There are four noble gases: helium, neon, argon and ragon.","SetB2","difficult","false","yes",NA,NA,"true",3248,NA,NA,NA,NA,"selected"
"ForeignLanguageExp2",1,"EIWH03",24,"female","psychology","German","English","2","2","TruthJudgment2",48,"One day has 24 hours.","Controlitem",NA,"true",NA,NA,NA,"true",1517,NA,NA,NA,NA,"selected"
"ForeignLanguageExp2",1,"EIWH03",24,"female","psychology","German","English","2","2","TruthJudgment2",49,"A hen can lay up to 500 eggs per year.","SetA2","difficult","false","no",NA,NA,"true",2228,NA,NA,NA,NA,"selected"
"ForeignLanguageExp2",1,"EIWH03",24,"female","psychology","German","English","2","2","TruthJudgment2",50,"Beethoven composed the opera ""Apollo and Hyacinth"".","SetA2","easy","false","no",NA,NA,"false",3683,NA,NA,NA,NA,"selected"
"ForeignLanguageExp2",1,"EIWH03",24,"female","psychology","German","English","2","2","TruthJudgment2",51,"Pope John Paul I was in office for only 33 days.","SetA2","difficult","true","no",NA,NA,"true",5059,NA,NA,NA,NA,"selected"
"ForeignLanguageExp2",1,"EIWH03",24,"female","psychology","German","English","2","2","TruthJudgment2",52,"An elephant can see all of his feet at the same time.","SetA2","easy","false","no",NA,NA,"false",3148,NA,NA,NA,NA,"selected"
"ForeignLanguageExp2",1,"EIWH03",24,"female","psychology","German","English","2","2","TruthJudgment2",53,"Alice Schwarzer is founder of the women's magazine ""Paula"".","SetA2","difficult","false","no",NA,NA,"false",3770,NA,NA,NA,NA,"selected"
"ForeignLanguageExp2",1,"EIWH03",24,"female","psychology","German","English","2","2","TruthJudgment2",54,"On the dayside of the moon, the temperature is about 30 ° Celsius.","SetA2","easy","false","no",NA,NA,"false",6219,NA,NA,NA,NA,"selected"
"ForeignLanguageExp2",1,"EIWH03",24,"female","psychology","German","English","2","2","TruthJudgment2",55,"Martin Luther King was shot in Memphis.","SetA2","easy","true","no",NA,NA,"false",2111,NA,NA,NA,NA,"selected"
"ForeignLanguageExp2",1,"EIWH03",24,"female","psychology","German","English","2","2","TruthJudgment2",56,"Ant queens don't get older than 15 years.","SetA2","easy","false","no",NA,NA,"true",4511,NA,NA,NA,NA,"selected"
"ForeignLanguageExp2",1,"EIWH03",24,"female","psychology","German","English","2","2","TruthJudgment2",57,"Planet Neptune is famous for its rings.","SetA2","easy","false","no",NA,NA,"false",2647,NA,NA,NA,NA,"selected"
"ForeignLanguageExp2",1,"EIWH03",24,"female","psychology","German","English","2","2","TruthJudgment2",58,"An oxymoron is a phrase that contains an internal contradiction.","SetB2","easy","true","yes",NA,NA,"true",2858,NA,NA,NA,NA,"selected"
"ForeignLanguageExp2",1,"EIWH03",24,"female","psychology","German","English","2","2","TruthJudgment2",59,"The first electric chair was developed by Thomas Eddison. ","SetA2","difficult","true","no",NA,NA,"true",2793,NA,NA,NA,NA,"selected"
"ForeignLanguageExp2",1,"EIWH03",24,"female","psychology","German","English","2","2","TruthJudgment2",60,"Alcohol results from fermentation of sugar.","SetA2","easy","true","no",NA,NA,"true",2580,NA,NA,NA,NA,"selected"
"ForeignLanguageExp2",2,"LLBI1",23,"female","psychology","German","English","2","1","Categorization",1,"The planet Earth largely consists of iron.","SetB1","difficult","true",NA,1,11874,NA,NA,NA,NA,NA,NA,NA
"ForeignLanguageExp2",2,"LLBI1",23,"female","psychology","German","English","2","1","Categorization",2,"From 1769 to 1772, Wolfang Amadeus Mozart took his Italian journey.","SetB2","easy","true",NA,4,4373,NA,NA,NA,NA,NA,NA,NA
"ForeignLanguageExp2",2,"LLBI1",23,"female","psychology","German","English","2","1","Categorization",3,"A famous bay in Cuba is called the Bay of Cows.","SetB1","difficult","false",NA,2,5171,NA,NA,NA,NA,NA,NA,NA
"ForeignLanguageExp2",2,"LLBI1",23,"female","psychology","German","English","2","1","Categorization",4,"Iron is the only metal that rusts. ","SetB2","easy","false",NA,3,6527,NA,NA,NA,NA,NA,NA,NA
"ForeignLanguageExp2",2,"LLBI1",23,"female","psychology","German","English","2","1","Categorization",5,"The first propellant-free refrigerator was built in the US.","SetB2","difficult","false",NA,3,5783,NA,NA,NA,NA,NA,NA,NA
"ForeignLanguageExp2",2,"LLBI1",23,"female","psychology","German","English","2","1","Categorization",6,"The first artificial nuclear reaction was induced in 1919.","SetB1","difficult","true",NA,4,4028,NA,NA,NA,NA,NA,NA,NA
"ForeignLanguageExp2",2,"LLBI1",23,"female","psychology","German","English","2","1","Categorization",7,"Galileo discovered gravity.","SetB2","easy","false",NA,4,4464,NA,NA,NA,NA,NA,NA,NA
"ForeignLanguageExp2",2,"LLBI1",23,"female","psychology","German","English","2","1","Categorization",8,"The blood sugar level in diabetics can be lowered by administering cinnamon. ","SetB2","difficult","true",NA,1,5745,NA,NA,NA,NA,NA,NA,NA
"ForeignLanguageExp2",2,"LLBI1",23,"female","psychology","German","English","2","1","Categorization",9,"20% of all 85 year-olds suffer from Alzheimer's.","SetB2","difficult","true",NA,1,9016,NA,NA,NA,NA,NA,NA,NA
"ForeignLanguageExp2",2,"LLBI1",23,"female","psychology","German","English","2","1","Categorization",10,"The salt content in the Baltic Sea is higher than in the North Sea.","SetB1","difficult","false",NA,2,1150,NA,NA,NA,NA,NA,NA,NA
"ForeignLanguageExp2",2,"LLBI1",23,"female","psychology","German","English","2","1","Categorization",11,"There are no wild living polar bears in Greenland.","SetB1","difficult","false",NA,1,3978,NA,NA,NA,NA,NA,NA,NA
"ForeignLanguageExp2",2,"LLBI1",23,"female","psychology","German","English","2","1","Categorization",12,"One litre of apple juice contains about 50 grams of protein.","SetB1","easy","false",NA,6,5462,NA,NA,NA,NA,NA,NA,NA
"ForeignLanguageExp2",2,"LLBI1",23,"female","psychology","German","English","2","1","Categorization",13,"The first German skyscraper was built in 1950.","SetB2","difficult","false",NA,4,3129,NA,NA,NA,NA,NA,NA,NA
"ForeignLanguageExp2",2,"LLBI1",23,"female","psychology","German","English","2","1","Categorization",14,"Mount Everest is the highest mountain in Asia. ","SetB2","easy","true",NA,2,3497,NA,NA,NA,NA,NA,NA,NA
"ForeignLanguageExp2",2,"LLBI1",23,"female","psychology","German","English","2","1","Categorization",15,"The language Mandarin is spoken by almost one billion people.","SetB1","easy","true",NA,6,6142,NA,NA,NA,NA,NA,NA,NA
"ForeignLanguageExp2",2,"LLBI1",23,"female","psychology","German","English","2","1","Categorization",16,"The movie ""Avatar"" is the most successful movie of all times. ","SetB2","difficult","true",NA,4,2861,NA,NA,NA,NA,NA,NA,NA
"ForeignLanguageExp2",2,"LLBI1",23,"female","psychology","German","English","2","1","Categorization",17,"The hair of intelligent people contains more iron.","SetB2","easy","false",NA,6,5584,NA,NA,NA,NA,NA,NA,NA
"ForeignLanguageExp2",2,"LLBI1",23,"female","psychology","German","English","2","1","Categorization",18,"The ""Bridge of Sighs"" is located in Venice.","SetB1","easy","true",NA,2,5614,NA,NA,NA,NA,NA,NA,NA
"ForeignLanguageExp2",2,"LLBI1",23,"female","psychology","German","English","2","1","Categorization",19,"A ripe banana contains about 18% sugar. ","SetB1","easy","true",NA,1,4595,NA,NA,NA,NA,NA,NA,NA
"ForeignLanguageExp2",2,"LLBI1",23,"female","psychology","German","English","2","1","Categorization",20,"Mount Etna is the highest vulcano in Europe.","SetB1","easy","true",NA,2,4080,NA,NA,NA,NA,NA,NA,NA
"ForeignLanguageExp2",2,"LLBI1",23,"female","psychology","German","English","2","1","Categorization",21,"Italian is no official language of Switzerland. ","SetB2","easy","false",NA,6,4562,NA,NA,NA,NA,NA,NA,NA
"ForeignLanguageExp2",2,"LLBI1",23,"female","psychology","German","English","2","1","Categorization",22,"The children's book character ""Bibi Blocksberg"" celebrated its 60th anniversary in 2010. ","SetB2","difficult","false",NA,4,4352,NA,NA,NA,NA,NA,NA,NA
"ForeignLanguageExp2",2,"LLBI1",23,"female","psychology","German","English","2","1","Categorization",23,"The highest IQ score that has ever been achieved is 228.","SetB2","difficult","true",NA,6,6470,NA,NA,NA,NA,NA,NA,NA
"ForeignLanguageExp2",2,"LLBI1",23,"female","psychology","German","English","2","1","Categorization",24,"Pumpkin is good for vision.","SetB1","easy","false",NA,1,3799,NA,NA,NA,NA,NA,NA,NA
"ForeignLanguageExp2",2,"LLBI1",23,"female","psychology","German","English","2","1","Categorization",25,"The northernmost point of Norway is called Nordkap.","SetB2","difficult","true",NA,2,4829,NA,NA,NA,NA,NA,NA,NA
"ForeignLanguageExp2",2,"LLBI1",23,"female","psychology","German","English","2","1","Categorization",26,"For four years, Cologne cathedral was the world's highest building.","SetB1","easy","true",NA,4,6191,NA,NA,NA,NA,NA,NA,NA
"ForeignLanguageExp2",2,"LLBI1",23,"female","psychology","German","English","2","1","Categorization",27,"Benjamin Blümchen was created by the author Elfie Donnelly. ","SetB1","difficult","true",NA,6,3429,NA,NA,NA,NA,NA,NA,NA
"ForeignLanguageExp2",2,"LLBI1",23,"female","psychology","German","English","2","1","Categorization",28,"Artur Rubinstein is a famous pianist. ","SetB1","difficult","true",NA,6,3624,NA,NA,NA,NA,NA,NA,NA
"ForeignLanguageExp2",2,"LLBI1",23,"female","psychology","German","English","2","1","Categorization",29,"An oxymoron is a phrase that contains an internal contradiction.","SetB2","easy","true",NA,1,7298,NA,NA,NA,NA,NA,NA,NA
"ForeignLanguageExp2",2,"LLBI1",23,"female","psychology","German","English","2","1","Categorization",30,"Pearls are usually found in scallops. ","SetB1","easy","false",NA,1,4228,NA,NA,NA,NA,NA,NA,NA
"ForeignLanguageExp2",2,"LLBI1",23,"female","psychology","German","English","2","1","Categorization",31,"The coffee bean is known in Europe since the mid-20th century.","SetB2","difficult","false",NA,1,3181,NA,NA,NA,NA,NA,NA,NA
"ForeignLanguageExp2",2,"LLBI1",23,"female","psychology","German","English","2","1","Categorization",32,"The United Nations were founded in 1848.","SetB1","easy","false",NA,4,3506,NA,NA,NA,NA,NA,NA,NA
"ForeignLanguageExp2",2,"LLBI1",23,"female","psychology","German","English","2","1","Categorization",33,"The Colossus of Rhodes is one of the ancient seven wonders of the world. ","SetB2","easy","true",NA,4,3728,NA,NA,NA,NA,NA,NA,NA
"ForeignLanguageExp2",2,"LLBI1",23,"female","psychology","German","English","2","1","Categorization",34,"Joschka Fischer is a member of the SPD.","SetB1","easy","false",NA,6,4096,NA,NA,NA,NA,NA,NA,NA
"ForeignLanguageExp2",2,"LLBI1",23,"female","psychology","German","English","2","1","Categorization",35,"Albert Einstein was born in 1792.","SetB1","easy","false",NA,4,1839,NA,NA,NA,NA,NA,NA,NA
"ForeignLanguageExp2",2,"LLBI1",23,"female","psychology","German","English","2","1","Categorization",36,"The four horsemen of the Apocalypse represent war, hunger, pest, and death. ","SetB2","easy","true",NA,4,6538,NA,NA,NA,NA,NA,NA,NA
"ForeignLanguageExp2",2,"LLBI1",23,"female","psychology","German","English","2","1","Categorization",37,"James Connolly was the first Olympic champion of the modern age.","SetB1","difficult","true",NA,4,3495,NA,NA,NA,NA,NA,NA,NA
"ForeignLanguageExp2",2,"LLBI1",23,"female","psychology","German","English","2","1","Categorization",38,"Pentameter is the classical meter of epic poetry. ","SetB2","difficult","false",NA,6,4185,NA,NA,NA,NA,NA,NA,NA
"ForeignLanguageExp2",2,"LLBI1",23,"female","psychology","German","English","2","1","Categorization",39,"Nolan Bushnell is founder of the company Atari.","SetB1","difficult","true",NA,6,3731,NA,NA,NA,NA,NA,NA,NA
"ForeignLanguageExp2",2,"LLBI1",23,"female","psychology","German","English","2","1","Categorization",40,"The longest side of a triangle is called ""cathetus"". ","SetB2","easy","false",NA,6,4902,NA,NA,NA,NA,NA,NA,NA
"ForeignLanguageExp2",2,"LLBI1",23,"female","psychology","German","English","2","1","Categorization",41,"There are four noble gases: helium, neon, argon and ragon.","SetB2","difficult","false",NA,1,3310,NA,NA,NA,NA,NA,NA,NA
"ForeignLanguageExp2",2,"LLBI1",23,"female","psychology","German","English","2","1","Categorization",42,"1% of all births are twin births.","SetB2","difficult","true",NA,1,3430,NA,NA,NA,NA,NA,NA,NA
"ForeignLanguageExp2",2,"LLBI1",23,"female","psychology","German","English","2","1","Categorization",43,"3.5% of the water on Earth is freshwater. ","SetB1","easy","true",NA,1,2672,NA,NA,NA,NA,NA,NA,NA
"ForeignLanguageExp2",2,"LLBI1",23,"female","psychology","German","English","2","1","Categorization",44,"Besides Italian, Latin is an official language in Vatican City. ","SetB2","easy","true",NA,6,5346,NA,NA,NA,NA,NA,NA,NA
"ForeignLanguageExp2",2,"LLBI1",23,"female","psychology","German","English","2","1","Categorization",45,"Salts have a crystal structure consisting of ions.","SetB1","easy","true",NA,1,4561,NA,NA,NA,NA,NA,NA,NA
"ForeignLanguageExp2",2,"LLBI1",23,"female","psychology","German","English","2","1","Categorization",46,"The Russian word for ""mountaintop"" is ""pik"".","SetB1","difficult","true",NA,6,3328,NA,NA,NA,NA,NA,NA,NA
"ForeignLanguageExp2",2,"LLBI1",23,"female","psychology","German","English","2","1","Categorization",47,"Hinduism is the religion with the highest number of followers.","SetB1","difficult","false",NA,6,3999,NA,NA,NA,NA,NA,NA,NA
"ForeignLanguageExp2",2,"LLBI1",23,"female","psychology","German","English","2","1","Categorization",48,"The speed of a sound is unaffected by temperature.","SetB1","difficult","false",NA,3,4124,NA,NA,NA,NA,NA,NA,NA
"ForeignLanguageExp2",2,"LLBI1",23,"female","psychology","German","English","2","1","Categorization",49,"According to the book Genesis, Methuselah was grandfather to Noah.","SetB2","difficult","true",NA,4,3724,NA,NA,NA,NA,NA,NA,NA
"ForeignLanguageExp2",2,"LLBI1",23,"female","psychology","German","English","2","1","Categorization",50,"The ""Grande Arche"" is a monument in Toulouse.","SetB1","difficult","false",NA,6,4274,NA,NA,NA,NA,NA,NA,NA
"ForeignLanguageExp2",2,"LLBI1",23,"female","psychology","German","English","2","1","Categorization",51,"The Greek gods of creation were Gaia, Erebus and Creon. ","SetB1","difficult","false",NA,6,4908,NA,NA,NA,NA,NA,NA,NA
"ForeignLanguageExp2",2,"LLBI1",23,"female","psychology","German","English","2","1","Categorization",52,"The first atomic bomb was dropped on Tokyo. ","SetB1","easy","false",NA,4,2852,NA,NA,NA,NA,NA,NA,NA
"ForeignLanguageExp2",2,"LLBI1",23,"female","psychology","German","English","2","1","Categorization",53,"The central file of German traffic offenders is located in Freiburg. ","SetB2","easy","false",NA,4,6407,NA,NA,NA,NA,NA,NA,NA
"ForeignLanguageExp2",2,"LLBI1",23,"female","psychology","German","English","2","1","Categorization",54,"60% of the Earth's surface is covered with water. ","SetB2","difficult","false",NA,2,3619,NA,NA,NA,NA,NA,NA,NA
"ForeignLanguageExp2",2,"LLBI1",23,"female","psychology","German","English","2","1","Categorization",55,"The planet Mercury is closest to the sun. ","SetB2","easy","true",NA,6,4047,NA,NA,NA,NA,NA,NA,NA
"ForeignLanguageExp2",2,"LLBI1",23,"female","psychology","German","English","2","1","Categorization",56,"Berlin is the biggest city in the European Union.","SetB2","easy","false",NA,4,4626,NA,NA,NA,NA,NA,NA,NA
"ForeignLanguageExp2",2,"LLBI1",23,"female","psychology","German","English","2","1","TruthJudgment1",57,"Nelson Mandela was the first black president of South Africa. ","SetA1","easy","true","no",NA,NA,"true",3292,NA,NA,NA,NA,"selected"
"ForeignLanguageExp2",2,"LLBI1",23,"female","psychology","German","English","2","1","TruthJudgment1",58,"The catastrophe of the nuclear power plant Tschernobyl happened in 1986.","SetA1","easy","true","no",NA,NA,"true",4051,NA,NA,NA,NA,"selected"
"ForeignLanguageExp2",2,"LLBI1",23,"female","psychology","German","English","2","1","TruthJudgment1",59,"The name ""Google"" is based on the founder's nickname. ","SetA1","easy","false","no",NA,NA,"false",5846,NA,NA,NA,NA,"selected"
"ForeignLanguageExp2",2,"LLBI1",23,"female","psychology","German","English","2","1","TruthJudgment1",60,"Salts have a crystal structure consisting of ions.","SetB1","easy","true","yes",NA,NA,"true",3378,NA,NA,NA,NA,"selected"
"ForeignLanguageExp2",2,"LLBI1",23,"female","psychology","German","English","2","1","TruthJudgment1",61," The Eiffel Tower is in Paris.","Controlitem",NA,"true",NA,NA,NA,"true",2707,NA,NA,NA,NA,"selected"
"ForeignLanguageExp2",2,"LLBI1",23,"female","psychology","German","English","2","1","TruthJudgment1",62,"Rio de Janeiro is the capital of Brasil. ","SetA1","difficult","false","no",NA,NA,"false",2673,NA,NA,NA,NA,"selected"
"ForeignLanguageExp2",2,"LLBI1",23,"female","psychology","German","English","2","1","TruthJudgment1",63,"The planet Earth largely consists of iron.","SetB1","difficult","true","yes",NA,NA,"true",5156,NA,NA,NA,NA,"selected"
"ForeignLanguageExp2",2,"LLBI1",23,"female","psychology","German","English","2","1","TruthJudgment1",64,"Artur Rubinstein is a famous pianist. ","SetB1","difficult","true","yes",NA,NA,"true",2652,NA,NA,NA,NA,"selected"
"ForeignLanguageExp2",2,"LLBI1",23,"female","psychology","German","English","2","1","TruthJudgment1",65,"The first artificial nuclear reaction was induced in 1919.","SetB1","difficult","true","yes",NA,NA,"false",6950,NA,NA,NA,NA,"selected"
"ForeignLanguageExp2",2,"LLBI1",23,"female","psychology","German","English","2","1","TruthJudgment1",66,"The language Mandarin is spoken by almost one billion people.","SetB1","easy","true","yes",NA,NA,"false",4861,NA,NA,NA,NA,"selected"
"ForeignLanguageExp2",2,"LLBI1",23,"female","psychology","German","English","2","1","TruthJudgment1",67,"Benjamin Blümchen was created by the author Elfie Donnelly. ","SetB1","difficult","true","yes",NA,NA,"true",2188,NA,NA,NA,NA,"selected"
"ForeignLanguageExp2",2,"LLBI1",23,"female","psychology","German","English","2","1","TruthJudgment1",68,"The first photograph was taken in 1822.","SetA1","easy","true","no",NA,NA,"false",2286,NA,NA,NA,NA,"selected"
"ForeignLanguageExp2",2,"LLBI1",23,"female","psychology","German","English","2","1","TruthJudgment1",69,"Martin Luther's grave is located in the town church of Jena.","SetA1","difficult","false","no",NA,NA,"true",2632,NA,NA,NA,NA,"selected"
"ForeignLanguageExp2",2,"LLBI1",23,"female","psychology","German","English","2","1","TruthJudgment1",70,"The first atomic bomb was dropped on Tokyo. ","SetB1","easy","false","yes",NA,NA,"true",2027,NA,NA,NA,NA,"selected"
"ForeignLanguageExp2",2,"LLBI1",23,"female","psychology","German","English","2","1","TruthJudgment1",71,"On average, every German drinks 25 liters of tea per year.","SetA1","difficult","true","no",NA,NA,"false",3935,NA,NA,NA,NA,"selected"
"ForeignLanguageExp2",2,"LLBI1",23,"female","psychology","German","English","2","1","TruthJudgment1",72,"The ""Bridge of Sighs"" is located in Venice.","SetB1","easy","true","yes",NA,NA,"true",2862,NA,NA,NA,NA,"selected"
"ForeignLanguageExp2",2,"LLBI1",23,"female","psychology","German","English","2","1","TruthJudgment1",73,"A famous bay in Cuba is called the Bay of Cows.","SetB1","difficult","false","yes",NA,NA,"true",2472,NA,NA,NA,NA,"selected"
"ForeignLanguageExp2",2,"LLBI1",23,"female","psychology","German","English","2","1","TruthJudgment1",74,"The Russian word for ""mountaintop"" is ""pik"".","SetB1","difficult","true","yes",NA,NA,"true",2011,NA,NA,NA,NA,"selected"
"ForeignLanguageExp2",2,"LLBI1",23,"female","psychology","German","English","2","1","TruthJudgment1",75,"Vitamin A dissolves in water. ","SetA1","difficult","false","no",NA,NA,"false",3962,NA,NA,NA,NA,"selected"
"ForeignLanguageExp2",2,"LLBI1",23,"female","psychology","German","English","2","1","TruthJudgment1",76,"A woman suffering from arachnophobia is afraid of aliens.","SetA1","easy","false","no",NA,NA,"false",6401,NA,NA,NA,NA,"selected"
"ForeignLanguageExp2",2,"LLBI1",23,"female","psychology","German","English","2","1","TruthJudgment1",77,"For two days within a menstrual cycle, a pregnancy is possible.","SetA1","difficult","false","no",NA,NA,"false",7988,NA,NA,NA,NA,"selected"
"ForeignLanguageExp2",2,"LLBI1",23,"female","psychology","German","English","2","1","TruthJudgment1",78,"There are no wild living polar bears in Greenland.","SetB1","difficult","false","yes",NA,NA,"false",4585,NA,NA,NA,NA,"selected"
"ForeignLanguageExp2",2,"LLBI1",23,"female","psychology","German","English","2","1","TruthJudgment1",79,"Pluto is the largest planet in the solar system. ","SetA1","easy","false","no",NA,NA,"true",2105,NA,NA,NA,NA,"selected"
"ForeignLanguageExp2",2,"LLBI1",23,"female","psychology","German","English","2","1","TruthJudgment1",80,"Angela Merkel is a member of the party ""Bündnis 90/ Die Grünen"".","Controlitem",NA,"false",NA,NA,NA,"false",2856,NA,NA,NA,NA,"selected"
"ForeignLanguageExp2",2,"LLBI1",23,"female","psychology","German","English","2","1","TruthJudgment1",81,"Martin Luther King's mother was a teacher. ","SetA1","easy","true","no",NA,NA,"false",3811,NA,NA,NA,NA,"selected"
"ForeignLanguageExp2",2,"LLBI1",23,"female","psychology","German","English","2","1","TruthJudgment1",82,"Pumpkin is good for vision.","SetB1","easy","false","yes",NA,NA,"true",1975,NA,NA,NA,NA,"selected"
"ForeignLanguageExp2",2,"LLBI1",23,"female","psychology","German","English","2","1","TruthJudgment1",83,"The Statue of Liberty holds the torch in her left hand.","SetA1","difficult","false","no",NA,NA,"true",3040,NA,NA,NA,NA,"selected"
"ForeignLanguageExp2",2,"LLBI1",23,"female","psychology","German","English","2","1","TruthJudgment1",84,"For four years, Cologne cathedral was the world's highest building.","SetB1","easy","true","yes",NA,NA,"true",2352,NA,NA,NA,NA,"selected"
"ForeignLanguageExp2",2,"LLBI1",23,"female","psychology","German","English","2","1","TruthJudgment1",85,"The colours of the German flag are black, red and gold.","Controlitem",NA,"true",NA,NA,NA,"true",3333,NA,NA,NA,NA,"selected"
"ForeignLanguageExp2",2,"LLBI1",23,"female","psychology","German","English","2","1","TruthJudgment1",86,"Isaac Newton discovered that the colour of light is composed of spectral colours.","SetA1","difficult","true","no",NA,NA,"true",4171,NA,NA,NA,NA,"selected"
"ForeignLanguageExp2",2,"LLBI1",23,"female","psychology","German","English","2","1","TruthJudgment1",87,"Olive oil is the only food that never goes bad. ","SetA1","easy","false","no",NA,NA,"false",3633,NA,NA,NA,NA,"selected"
"ForeignLanguageExp2",2,"LLBI1",23,"female","psychology","German","English","2","1","TruthJudgment1",88,"The Greek gods of creation were Gaia, Erebus and Creon. ","SetB1","difficult","false","yes",NA,NA,"true",3217,NA,NA,NA,NA,"selected"
"ForeignLanguageExp2",2,"LLBI1",23,"female","psychology","German","English","2","1","TruthJudgment1",89,"Alma Mater is an old-fashioned word for ""hospital"". ","SetA1","easy","false","no",NA,NA,"false",3621,NA,NA,NA,NA,"selected"
"ForeignLanguageExp2",2,"LLBI1",23,"female","psychology","German","English","2","1","TruthJudgment1",90,"3.5% of the water on Earth is freshwater. ","SetB1","easy","true","yes",NA,NA,"false",2505,NA,NA,NA,NA,"selected"
"ForeignLanguageExp2",2,"LLBI1",23,"female","psychology","German","English","2","1","TruthJudgment1",91,"The United Nations were founded in 1848.","SetB1","easy","false","yes",NA,NA,"true",2202,NA,NA,NA,NA,"selected"
"ForeignLanguageExp2",2,"LLBI1",23,"female","psychology","German","English","2","1","TruthJudgment1",92,"France is a permanent member of the UN security council. ","SetA1","easy","true","no",NA,NA,"true",2999,NA,NA,NA,NA,"selected"
"ForeignLanguageExp2",2,"LLBI1",23,"female","psychology","German","English","2","1","TruthJudgment1",93,"Albert Einstein was born in 1792.","SetB1","easy","false","yes",NA,NA,"false",2140,NA,NA,NA,NA,"selected"
"ForeignLanguageExp2",2,"LLBI1",23,"female","psychology","German","English","2","1","TruthJudgment1",94,"Most speed cameras for traffic offenders are in Great Britain.","SetA1","difficult","true","no",NA,NA,"false",1884,NA,NA,NA,NA,"selected"
"ForeignLanguageExp2",2,"LLBI1",23,"female","psychology","German","English","2","1","TruthJudgment1",95,"The USA are the world's largest country in terms of area. ","SetA1","easy","false","no",NA,NA,"true",4158,NA,NA,NA,NA,"selected"
"ForeignLanguageExp2",2,"LLBI1",23,"female","psychology","German","English","2","1","TruthJudgment1",96,"Joschka Fischer is a member of the SPD.","SetB1","easy","false","yes",NA,NA,"true",2547,NA,NA,NA,NA,"selected"
"ForeignLanguageExp2",2,"LLBI1",23,"female","psychology","German","English","2","1","TruthJudgment1",97,"The speed of a sound is unaffected by temperature.","SetB1","difficult","false","yes",NA,NA,"false",3963,NA,NA,NA,NA,"selected"
"ForeignLanguageExp2",2,"LLBI1",23,"female","psychology","German","English","2","1","TruthJudgment1",98,"Nolan Bushnell is founder of the company Atari.","SetB1","difficult","true","yes",NA,NA,"false",968,NA,NA,NA,NA,"selected"
"ForeignLanguageExp2",2,"LLBI1",23,"female","psychology","German","English","2","1","TruthJudgment1",99,"Hinduism is the religion with the highest number of followers.","SetB1","difficult","false","yes",NA,NA,"true",2487,NA,NA,NA,NA,"selected"
"ForeignLanguageExp2",2,"LLBI1",23,"female","psychology","German","English","2","1","TruthJudgment1",100,"The ""laicism"" demands a fusion of church and state.","SetA1","easy","false","no",NA,NA,"true",3268,NA,NA,NA,NA,"selected"
"ForeignLanguageExp2",2,"LLBI1",23,"female","psychology","German","English","2","1","TruthJudgment1",101,"One year is divided into 10 months.","Controlitem",NA,"false",NA,NA,NA,"false",3461,NA,NA,NA,NA,"selected"
"ForeignLanguageExp2",2,"LLBI1",23,"female","psychology","German","English","2","1","TruthJudgment1",102,"James Connolly was the first Olympic champion of the modern age.","SetB1","difficult","true","yes",NA,NA,"true",3535,NA,NA,NA,NA,"selected"
"ForeignLanguageExp2",2,"LLBI1",23,"female","psychology","German","English","2","1","TruthJudgment1",103,"The Red Cross has been awarded the Nobel Peace Prize three times.","SetA1","difficult","true","no",NA,NA,"false",3911,NA,NA,NA,NA,"selected"
"ForeignLanguageExp2",2,"LLBI1",23,"female","psychology","German","English","2","1","TruthJudgment1",104,"The match kick-off in hockey is called ""Bully"".","SetA1","difficult","true","no",NA,NA,"false",2263,NA,NA,NA,NA,"selected"
"ForeignLanguageExp2",2,"LLBI1",23,"female","psychology","German","English","2","1","TruthJudgment1",105,"Pearls are usually found in scallops. ","SetB1","easy","false","yes",NA,NA,"true",2217,NA,NA,NA,NA,"selected"
"ForeignLanguageExp2",2,"LLBI1",23,"female","psychology","German","English","2","1","TruthJudgment1",106,"A wasp can fly approximately 3 km/h.","SetA1","difficult","false","no",NA,NA,"true",3573,NA,NA,NA,NA,"selected"
"ForeignLanguageExp2",2,"LLBI1",23,"female","psychology","German","English","2","1","TruthJudgment1",107,"A ripe banana contains about 18% sugar. ","SetB1","easy","true","yes",NA,NA,"true",2211,NA,NA,NA,NA,"selected"
"ForeignLanguageExp2",2,"LLBI1",23,"female","psychology","German","English","2","1","TruthJudgment1",108,"The ""Grande Arche"" is a monument in Toulouse.","SetB1","difficult","false","yes",NA,NA,"false",3728,NA,NA,NA,NA,"selected"
"ForeignLanguageExp2",2,"LLBI1",23,"female","psychology","German","English","2","1","TruthJudgment1",109,"Mount Etna is the highest vulcano in Europe.","SetB1","easy","true","yes",NA,NA,"true",2880,NA,NA,NA,NA,"selected"
"ForeignLanguageExp2",2,"LLBI1",23,"female","psychology","German","English","2","1","TruthJudgment1",110,"Hoffmann von Fallersleben wrote the lyrics of the German national anthem.","SetA1","easy","true","no",NA,NA,"true",3854,NA,NA,NA,NA,"selected"
"ForeignLanguageExp2",2,"LLBI1",23,"female","psychology","German","English","2","1","TruthJudgment1",111,"An Ironman must run 42 km, swim 3.8 km and cycle 180 km. ","SetA1","easy","true","no",NA,NA,"true",4072,NA,NA,NA,NA,"selected"
"ForeignLanguageExp2",2,"LLBI1",23,"female","psychology","German","English","2","1","TruthJudgment1",112,"The salt content in the Baltic Sea is higher than in the North Sea.","SetB1","difficult","false","yes",NA,NA,"true",4425,NA,NA,NA,NA,"selected"
"ForeignLanguageExp2",2,"LLBI1",23,"female","psychology","German","English","2","1","TruthJudgment1",113,"Cactuses can reproduce by parthenogenesis.","SetA1","difficult","false","no",NA,NA,"false",2797,NA,NA,NA,NA,"selected"
"ForeignLanguageExp2",2,"LLBI1",23,"female","psychology","German","English","2","1","TruthJudgment1",114,"One litre of apple juice contains about 50 grams of protein.","SetB1","easy","false","yes",NA,NA,"true",1946,NA,NA,NA,NA,"selected"
"ForeignLanguageExp2",2,"LLBI1",23,"female","psychology","German","English","2","1","TruthJudgment1",115,"The Apple computer ""Macintosh"" was named after the apple cultivar ""McIntosh"". ","SetA1","difficult","true","no",NA,NA,"false",3451,NA,NA,NA,NA,"selected"
"ForeignLanguageExp2",2,"LLBI1",23,"female","psychology","German","English","2","1","TruthJudgment1",116,"The Grand Canyon evolved from the water course of the Colorado River. ","SetA1","difficult","true","no",NA,NA,"true",2701,NA,NA,NA,NA,"selected"
"ForeignLanguageExp2",2,"LLBI1",23,"female","psychology","German","English","2","1","LexPractice",117,NA,NA,NA,NA,NA,NA,NA,NA,NA,"FILTH","word",1,2332,NA
"ForeignLanguageExp2",2,"LLBI1",23,"female","psychology","German","English","2","1","LexPractice",118,NA,NA,NA,NA,NA,NA,NA,NA,NA,"BLIEZ","nonword",0,1688,NA
"ForeignLanguageExp2",2,"LLBI1",23,"female","psychology","German","English","2","1","LexPractice",119,NA,NA,NA,NA,NA,NA,NA,NA,NA,"STROUF","nonword",1,698,NA
"ForeignLanguageExp2",2,"LLBI1",23,"female","psychology","German","English","2","1","LexPractice",120,NA,NA,NA,NA,NA,NA,NA,NA,NA,"BIRTH","word",1,2580,NA
"ForeignLanguageExp2",2,"LLBI1",23,"female","psychology","German","English","2","1","LexTask",121,NA,NA,NA,NA,NA,NA,NA,NA,NA,"WASP","word",1,1876,"selected"
"ForeignLanguageExp2",2,"LLBI1",23,"female","psychology","German","English","2","1","LexTask",122,NA,NA,NA,NA,NA,NA,NA,NA,NA,"DWIETT","nonword",1,1336,"selected"
"ForeignLanguageExp2",2,"LLBI1",23,"female","psychology","German","English","2","1","LexTask",123,NA,NA,NA,NA,NA,NA,NA,NA,NA,"SLIDE","word",1,857,"selected"
"ForeignLanguageExp2",2,"LLBI1",23,"female","psychology","German","English","2","1","LexTask",124,NA,NA,NA,NA,NA,NA,NA,NA,NA,"HULK","word",1,1714,"selected"
"ForeignLanguageExp2",2,"LLBI1",23,"female","psychology","German","English","2","1","LexTask",125,NA,NA,NA,NA,NA,NA,NA,NA,NA,"STARCH","word",1,848,"selected"
"ForeignLanguageExp2",2,"LLBI1",23,"female","psychology","German","English","2","1","LexTask",126,NA,NA,NA,NA,NA,NA,NA,NA,NA,"TWAUB","nonword",1,836,"selected"
"ForeignLanguageExp2",2,"LLBI1",23,"female","psychology","German","English","2","1","LexTask",127,NA,NA,NA,NA,NA,NA,NA,NA,NA,"ZEWL","nonword",0,1017,"selected"
"ForeignLanguageExp2",2,"LLBI1",23,"female","psychology","German","English","2","1","LexTask",128,NA,NA,NA,NA,NA,NA,NA,NA,NA,"LEIWL","nonword",1,1132,"selected"
"ForeignLanguageExp2",2,"LLBI1",23,"female","psychology","German","English","2","1","LexTask",129,NA,NA,NA,NA,NA,NA,NA,NA,NA,"WHITE","word",1,844,"selected"
"ForeignLanguageExp2",2,"LLBI1",23,"female","psychology","German","English","2","1","LexTask",130,NA,NA,NA,NA,NA,NA,NA,NA,NA,"HEISP","nonword",0,1024,"selected"
"ForeignLanguageExp2",2,"LLBI1",23,"female","psychology","German","English","2","1","LexTask",131,NA,NA,NA,NA,NA,NA,NA,NA,NA,"BRISK","word",0,1332,"selected"
"ForeignLanguageExp2",2,"LLBI1",23,"female","psychology","German","English","2","1","LexTask",132,NA,NA,NA,NA,NA,NA,NA,NA,NA,"STREAM","word",1,1693,"selected"
"ForeignLanguageExp2",2,"LLBI1",23,"female","psychology","German","English","2","1","LexTask",133,NA,NA,NA,NA,NA,NA,NA,NA,NA,"SLAUX","nonword",1,2385,"selected"
"ForeignLanguageExp2",2,"LLBI1",23,"female","psychology","German","English","2","1","LexTask",134,NA,NA,NA,NA,NA,NA,NA,NA,NA,"SLOUT","nonword",0,1599,"selected"
"ForeignLanguageExp2",2,"LLBI1",23,"female","psychology","German","English","2","1","LexTask",135,NA,NA,NA,NA,NA,NA,NA,NA,NA,"WARTH","nonword",0,682,"selected"
"ForeignLanguageExp2",2,"LLBI1",23,"female","psychology","German","English","2","1","LexTask",136,NA,NA,NA,NA,NA,NA,NA,NA,NA,"BLACK","word",1,664,"selected"
"ForeignLanguageExp2",2,"LLBI1",23,"female","psychology","German","English","2","1","LexTask",137,NA,NA,NA,NA,NA,NA,NA,NA,NA,"SLIEN","nonword",0,875,"selected"
"ForeignLanguageExp2",2,"LLBI1",23,"female","psychology","German","English","2","1","LexTask",138,NA,NA,NA,NA,NA,NA,NA,NA,NA,"SMALL","word",1,671,"selected"
"ForeignLanguageExp2",2,"LLBI1",23,"female","psychology","German","English","2","1","LexTask",139,NA,NA,NA,NA,NA,NA,NA,NA,NA,"TOUWL","nonword",1,979,"selected"
"ForeignLanguageExp2",2,"LLBI1",23,"female","psychology","German","English","2","1","LexTask",140,NA,NA,NA,NA,NA,NA,NA,NA,NA,"SMOUSS","nonword",1,987,"selected"
"ForeignLanguageExp2",2,"LLBI1",23,"female","psychology","German","English","2","1","LexTask",141,NA,NA,NA,NA,NA,NA,NA,NA,NA,"DISC","word",1,740,"selected"
"ForeignLanguageExp2",2,"LLBI1",23,"female","psychology","German","English","2","1","LexTask",142,NA,NA,NA,NA,NA,NA,NA,NA,NA,"DWARF","word",0,949,"selected"
"ForeignLanguageExp2",2,"LLBI1",23,"female","psychology","German","English","2","1","LexTask",143,NA,NA,NA,NA,NA,NA,NA,NA,NA,"TWELVE","word",1,910,"selected"
"ForeignLanguageExp2",2,"LLBI1",23,"female","psychology","German","English","2","1","LexTask",144,NA,NA,NA,NA,NA,NA,NA,NA,NA,"BILTH","nonword",0,858,"selected"
"ForeignLanguageExp2",2,"LLBI1",23,"female","psychology","German","English","2","1","LexTask",145,NA,NA,NA,NA,NA,NA,NA,NA,NA,"SLAVE","word",1,738,"selected"
"ForeignLanguageExp2",2,"LLBI1",23,"female","psychology","German","English","2","1","LexTask",146,NA,NA,NA,NA,NA,NA,NA,NA,NA,"SLEEP","word",1,638,"selected"
"ForeignLanguageExp2",2,"LLBI1",23,"female","psychology","German","English","2","1","LexTask",147,NA,NA,NA,NA,NA,NA,NA,NA,NA,"SMOUN","nonword",1,845,"selected"
"ForeignLanguageExp2",2,"LLBI1",23,"female","psychology","German","English","2","1","LexTask",148,NA,NA,NA,NA,NA,NA,NA,NA,NA,"SMESS","nonword",1,988,"selected"
"ForeignLanguageExp2",2,"LLBI1",23,"female","psychology","German","English","2","1","LexTask",149,NA,NA,NA,NA,NA,NA,NA,NA,NA,"KIESP","nonword",1,685,"selected"
"ForeignLanguageExp2",2,"LLBI1",23,"female","psychology","German","English","2","1","LexTask",150,NA,NA,NA,NA,NA,NA,NA,NA,NA,"BOWL","word",1,779,"selected"
"ForeignLanguageExp2",2,"LLBI1",23,"female","psychology","German","English","2","1","LexTask",151,NA,NA,NA,NA,NA,NA,NA,NA,NA,"BURL","word",0,845,"selected"
"ForeignLanguageExp2",2,"LLBI1",23,"female","psychology","German","English","2","1","LexTask",152,NA,NA,NA,NA,NA,NA,NA,NA,NA,"SEARCH","word",1,709,"selected"
"ForeignLanguageExp2",2,"LLBI1",23,"female","psychology","German","English","2","1","LexTask",153,NA,NA,NA,NA,NA,NA,NA,NA,NA,"STRONG","word",1,634,"selected"
"ForeignLanguageExp2",2,"LLBI1",23,"female","psychology","German","English","2","1","LexTask",154,NA,NA,NA,NA,NA,NA,NA,NA,NA,"MUSP","nonword",0,610,"selected"
"ForeignLanguageExp2",2,"LLBI1",23,"female","psychology","German","English","2","1","LexTask",155,NA,NA,NA,NA,NA,NA,NA,NA,NA,"DUSK","word",1,939,"selected"
"ForeignLanguageExp2",2,"LLBI1",23,"female","psychology","German","English","2","1","LexTask",156,NA,NA,NA,NA,NA,NA,NA,NA,NA,"SPRIG","word",0,1062,"selected"
"ForeignLanguageExp2",2,"LLBI1",23,"female","psychology","German","English","2","1","LexTask",157,NA,NA,NA,NA,NA,NA,NA,NA,NA,"SLEIK","nonword",1,837,"selected"
"ForeignLanguageExp2",2,"LLBI1",23,"female","psychology","German","English","2","1","LexTask",158,NA,NA,NA,NA,NA,NA,NA,NA,NA,"TWOG","nonword",1,628,"selected"
"ForeignLanguageExp2",2,"LLBI1",23,"female","psychology","German","English","2","1","LexTask",159,NA,NA,NA,NA,NA,NA,NA,NA,NA,"DWIES","nonword",1,764,"selected"
"ForeignLanguageExp2",2,"LLBI1",23,"female","psychology","German","English","2","1","LexTask",160,NA,NA,NA,NA,NA,NA,NA,NA,NA,"TWIN","word",1,711,"selected"
"ForeignLanguageExp2",2,"LLBI1",23,"female","psychology","German","English","2","1","LexTask",161,NA,NA,NA,NA,NA,NA,NA,NA,NA,"SMILE","word",1,468,"selected"
"ForeignLanguageExp2",2,"LLBI1",23,"female","psychology","German","English","2","1","LexTask",162,NA,NA,NA,NA,NA,NA,NA,NA,NA,"SLAR","nonword",1,666,"selected"
"ForeignLanguageExp2",2,"LLBI1",23,"female","psychology","German","English","2","1","LexTask",163,NA,NA,NA,NA,NA,NA,NA,NA,NA,"TWIESS","nonword",0,856,"selected"
"ForeignLanguageExp2",2,"LLBI1",23,"female","psychology","German","English","2","1","LexTask",164,NA,NA,NA,NA,NA,NA,NA,NA,NA,"DWETT","nonword",1,640,"selected"
"ForeignLanguageExp2",2,"LLBI1",23,"female","psychology","German","English","2","1","LexTask",165,NA,NA,NA,NA,NA,NA,NA,NA,NA,"SMOKE","word",1,727,"selected"
"ForeignLanguageExp2",2,"LLBI1",23,"female","psychology","German","English","2","1","LexTask",166,NA,NA,NA,NA,NA,NA,NA,NA,NA,"SMATT","nonword",0,538,"selected"
"ForeignLanguageExp2",2,"LLBI1",23,"female","psychology","German","English","2","1","LexTask",167,NA,NA,NA,NA,NA,NA,NA,NA,NA,"DWEIG","nonword",1,477,"selected"
"ForeignLanguageExp2",2,"LLBI1",23,"female","psychology","German","English","2","1","LexTask",168,NA,NA,NA,NA,NA,NA,NA,NA,NA,"BLAST","word",1,651,"selected"
"ForeignLanguageExp2",2,"LLBI1",23,"female","psychology","German","English","2","1","LexTask",169,NA,NA,NA,NA,NA,NA,NA,NA,NA,"TWIST","word",1,594,"selected"
"ForeignLanguageExp2",2,"LLBI1",23,"female","psychology","German","English","2","1","LexTask",170,NA,NA,NA,NA,NA,NA,NA,NA,NA,"TWAUL","nonword",1,596,"selected"
"ForeignLanguageExp2",2,"LLBI1",23,"female","psychology","German","English","2","1","LexTask",171,NA,NA,NA,NA,NA,NA,NA,NA,NA,"FLAT","word",1,525,"selected"
"ForeignLanguageExp2",2,"LLBI1",23,"female","psychology","German","English","2","1","LexTask",172,NA,NA,NA,NA,NA,NA,NA,NA,NA,"SPREE","word",1,546,"selected"
"ForeignLanguageExp2",2,"LLBI1",23,"female","psychology","German","English","2","1","LexTask",173,NA,NA,NA,NA,NA,NA,NA,NA,NA,"FLAG","word",1,621,"selected"
"ForeignLanguageExp2",2,"LLBI1",23,"female","psychology","German","English","2","1","LexTask",174,NA,NA,NA,NA,NA,NA,NA,NA,NA,"SPREAD","word",1,494,"selected"
"ForeignLanguageExp2",2,"LLBI1",23,"female","psychology","German","English","2","1","LexTask",175,NA,NA,NA,NA,NA,NA,NA,NA,NA,"SIRTH","nonword",1,971,"selected"
"ForeignLanguageExp2",2,"LLBI1",23,"female","psychology","German","English","2","1","LexTask",176,NA,NA,NA,NA,NA,NA,NA,NA,NA,"DWUF","nonword",1,862,"selected"
"ForeignLanguageExp2",2,"LLBI1",23,"female","psychology","German","English","2","1","LexTask",177,NA,NA,NA,NA,NA,NA,NA,NA,NA,"SMOSS","nonword",1,796,"selected"
"ForeignLanguageExp2",2,"LLBI1",23,"female","psychology","German","English","2","1","LexTask",178,NA,NA,NA,NA,NA,NA,NA,NA,NA,"TWIR","nonword",1,590,"selected"
"ForeignLanguageExp2",2,"LLBI1",23,"female","psychology","German","English","2","1","LexTask",179,NA,NA,NA,NA,NA,NA,NA,NA,NA,"HURL","word",1,752,"selected"
"ForeignLanguageExp2",2,"LLBI1",23,"female","psychology","German","English","2","1","LexTask",180,NA,NA,NA,NA,NA,NA,NA,NA,NA,"SMEIZ","nonword",1,579,"selected"
"ForeignLanguageExp2",2,"LLBI1",23,"female","psychology","German","English","2","1","LexTask",181,NA,NA,NA,NA,NA,NA,NA,NA,NA,"PEARL","word",1,645,"selected"
"ForeignLanguageExp2",2,"LLBI1",23,"female","psychology","German","English","2","1","LexTask",182,NA,NA,NA,NA,NA,NA,NA,NA,NA,"SLEIF","nonword",1,604,"selected"
"ForeignLanguageExp2",2,"LLBI1",23,"female","psychology","German","English","2","1","LexTask",183,NA,NA,NA,NA,NA,NA,NA,NA,NA,"MILK","word",1,965,"selected"
"ForeignLanguageExp2",2,"LLBI1",23,"female","psychology","German","English","2","1","LexTask",184,NA,NA,NA,NA,NA,NA,NA,NA,NA,"GALTH","nonword",1,680,"selected"
"ForeignLanguageExp2",2,"LLBI1",23,"female","psychology","German","English","2","1","LexTask",185,NA,NA,NA,NA,NA,NA,NA,NA,NA,"DIEWL","nonword",0,742,"selected"
"ForeignLanguageExp2",2,"LLBI1",23,"female","psychology","German","English","2","1","LexTask",186,NA,NA,NA,NA,NA,NA,NA,NA,NA,"DWAUK","nonword",0,586,"selected"
"ForeignLanguageExp2",2,"LLBI1",23,"female","psychology","German","English","2","1","LexTask",187,NA,NA,NA,NA,NA,NA,NA,NA,NA,"FLOTH","nonword",0,660,"selected"
"ForeignLanguageExp2",2,"LLBI1",23,"female","psychology","German","English","2","1","LexTask",188,NA,NA,NA,NA,NA,NA,NA,NA,NA,"TERTH","nonword",1,851,"selected"
"ForeignLanguageExp2",2,"LLBI1",23,"female","psychology","German","English","2","1","LexTask",189,NA,NA,NA,NA,NA,NA,NA,NA,NA,"BLEAK","word",1,746,"selected"
"ForeignLanguageExp2",2,"LLBI1",23,"female","psychology","German","English","2","1","LexTask",190,NA,NA,NA,NA,NA,NA,NA,NA,NA,"SILK","word",1,725,"selected"
"ForeignLanguageExp2",2,"LLBI1",23,"female","psychology","German","English","2","1","LexTask",191,NA,NA,NA,NA,NA,NA,NA,NA,NA,"PORCH","word",1,754,"selected"
"ForeignLanguageExp2",2,"LLBI1",23,"female","psychology","German","English","2","1","LexTask",192,NA,NA,NA,NA,NA,NA,NA,NA,NA,"YOUNG","word",1,869,"selected"
"ForeignLanguageExp2",2,"LLBI1",23,"female","psychology","German","English","2","2","TruthJudgment2",1,"There are 24 known moons of the planet Saturn. ","SetA2","difficult","false","no",NA,NA,"true",5781,NA,NA,NA,NA,"selected"
"ForeignLanguageExp2",2,"LLBI1",23,"female","psychology","German","English","2","2","TruthJudgment2",2,"Besides Italian, Latin is an official language in Vatican City. ","SetB2","easy","true","yes",NA,NA,"true",3787,NA,NA,NA,NA,"selected"
"ForeignLanguageExp2",2,"LLBI1",23,"female","psychology","German","English","2","2","TruthJudgment2",3,"Male sea elephants weigh about three times as much as females.","SetA2","difficult","true","no",NA,NA,"false",2410,NA,NA,NA,NA,"selected"
"ForeignLanguageExp2",2,"LLBI1",23,"female","psychology","German","English","2","2","TruthJudgment2",4,"Milk chocolate contains at least 60% cocoa.","SetA2","easy","false","no",NA,NA,"false",2335,NA,NA,NA,NA,"selected"
"ForeignLanguageExp2",2,"LLBI1",23,"female","psychology","German","English","2","2","TruthJudgment2",5,"On the dayside of the moon, the temperature is about 30 ° Celsius.","SetA2","easy","false","no",NA,NA,"false",4456,NA,NA,NA,NA,"selected"
"ForeignLanguageExp2",2,"LLBI1",23,"female","psychology","German","English","2","2","TruthJudgment2",6,"The four horsemen of the Apocalypse represent war, hunger, pest, and death. ","SetB2","easy","true","yes",NA,NA,"true",3667,NA,NA,NA,NA,"selected"
"ForeignLanguageExp2",2,"LLBI1",23,"female","psychology","German","English","2","2","TruthJudgment2",7,"One day has 24 hours.","Controlitem",NA,"true",NA,NA,NA,"true",2614,NA,NA,NA,NA,"selected"
"ForeignLanguageExp2",2,"LLBI1",23,"female","psychology","German","English","2","2","TruthJudgment2",8,"The planet Mercury is closest to the sun. ","SetB2","easy","true","yes",NA,NA,"true",3866,NA,NA,NA,NA,"selected"
"ForeignLanguageExp2",2,"LLBI1",23,"female","psychology","German","English","2","2","TruthJudgment2",9,"1% of all births are twin births.","SetB2","difficult","true","yes",NA,NA,"false",4566,NA,NA,NA,NA,"selected"
"ForeignLanguageExp2",2,"LLBI1",23,"female","psychology","German","English","2","2","TruthJudgment2",10,"The movie ""Avatar"" is the most successful movie of all times. ","SetB2","difficult","true","yes",NA,NA,"true",1357,NA,NA,NA,NA,"selected"
"ForeignLanguageExp2",2,"LLBI1",23,"female","psychology","German","English","2","2","TruthJudgment2",11,"Planet Neptune is famous for its rings.","SetA2","easy","false","no",NA,NA,"true",2066,NA,NA,NA,NA,"selected"
"ForeignLanguageExp2",2,"LLBI1",23,"female","psychology","German","English","2","2","TruthJudgment2",12,"The northernmost point of Norway is called Nordkap.","SetB2","difficult","true","yes",NA,NA,"true",1238,NA,NA,NA,NA,"selected"
"ForeignLanguageExp2",2,"LLBI1",23,"female","psychology","German","English","2","2","TruthJudgment2",13,"The first electric chair was developed by Thomas Eddison. ","SetA2","difficult","true","no",NA,NA,"false",3410,NA,NA,NA,NA,"selected"
"ForeignLanguageExp2",2,"LLBI1",23,"female","psychology","German","English","2","2","TruthJudgment2",14,"The measuring unit of magnetic flux is ""Henry"".","SetA2","difficult","false","no",NA,NA,"true",3327,NA,NA,NA,NA,"selected"
"ForeignLanguageExp2",2,"LLBI1",23,"female","psychology","German","English","2","2","TruthJudgment2",15,"Ant queens don't get older than 15 years.","SetA2","easy","false","no",NA,NA,"false",6192,NA,NA,NA,NA,"selected"
"ForeignLanguageExp2",2,"LLBI1",23,"female","psychology","German","English","2","2","TruthJudgment2",16,"From 1769 to 1772, Wolfang Amadeus Mozart took his Italian journey.","SetB2","easy","true","yes",NA,NA,"false",1062,NA,NA,NA,NA,"selected"
"ForeignLanguageExp2",2,"LLBI1",23,"female","psychology","German","English","2","2","TruthJudgment2",17,"The capital of Madagascar is Toamasina. ","SetA2","difficult","false","no",NA,NA,"true",2897,NA,NA,NA,NA,"selected"
"ForeignLanguageExp2",2,"LLBI1",23,"female","psychology","German","English","2","2","TruthJudgment2",18,"New Year's Eve is celebrated on the 25th of December. ","Controlitem",NA,"false",NA,NA,NA,"false",1307,NA,NA,NA,NA,"selected"
"ForeignLanguageExp2",2,"LLBI1",23,"female","psychology","German","English","2","2","TruthJudgment2",19,"The world famous game ""Monopoly"" was first published in 1935.","SetA2","easy","true","no",NA,NA,"true",853,NA,NA,NA,NA,"selected"
"ForeignLanguageExp2",2,"LLBI1",23,"female","psychology","German","English","2","2","TruthJudgment2",20,"Berlin is the biggest city in the European Union.","SetB2","easy","false","yes",NA,NA,"true",2304,NA,NA,NA,NA,"selected"
"ForeignLanguageExp2",2,"LLBI1",23,"female","psychology","German","English","2","2","TruthJudgment2",21,"Light years are a measure of speed.","SetA2","difficult","false","no",NA,NA,"true",2878,NA,NA,NA,NA,"selected"
"ForeignLanguageExp2",2,"LLBI1",23,"female","psychology","German","English","2","2","TruthJudgment2",22,"Pope John Paul I was in office for only 33 days.","SetA2","difficult","true","no",NA,NA,"true",1928,NA,NA,NA,NA,"selected"
"ForeignLanguageExp2",2,"LLBI1",23,"female","psychology","German","English","2","2","TruthJudgment2",23,"The central file of German traffic offenders is located in Freiburg. ","SetB2","easy","false","yes",NA,NA,"false",3297,NA,NA,NA,NA,"selected"
"ForeignLanguageExp2",2,"LLBI1",23,"female","psychology","German","English","2","2","TruthJudgment2",24,"20% of all 85 year-olds suffer from Alzheimer's.","SetB2","difficult","true","yes",NA,NA,"true",1575,NA,NA,NA,NA,"selected"
"ForeignLanguageExp2",2,"LLBI1",23,"female","psychology","German","English","2","2","TruthJudgment2",25,"An oxymoron is a phrase that contains an internal contradiction.","SetB2","easy","true","yes",NA,NA,"false",3906,NA,NA,NA,NA,"selected"
"ForeignLanguageExp2",2,"LLBI1",23,"female","psychology","German","English","2","2","TruthJudgment2",26,"There are about 435 bridges in Venice. ","SetA2","easy","true","no",NA,NA,"false",3998,NA,NA,NA,NA,"selected"
"ForeignLanguageExp2",2,"LLBI1",23,"female","psychology","German","English","2","2","TruthJudgment2",27,"Lyon is the capital of France.","Controlitem",NA,"false",NA,NA,NA,"false",2482,NA,NA,NA,NA,"selected"
"ForeignLanguageExp2",2,"LLBI1",23,"female","psychology","German","English","2","2","TruthJudgment2",28,"The blood sugar level in diabetics can be lowered by administering cinnamon. ","SetB2","difficult","true","yes",NA,NA,"true",1587,NA,NA,NA,NA,"selected"
"ForeignLanguageExp2",2,"LLBI1",23,"female","psychology","German","English","2","2","TruthJudgment2",29,"Galileo discovered gravity.","SetB2","easy","false","yes",NA,NA,"true",2284,NA,NA,NA,NA,"selected"
"ForeignLanguageExp2",2,"LLBI1",23,"female","psychology","German","English","2","2","TruthJudgment2",30,"Gold is lighter than aluminium.","SetA2","easy","false","no",NA,NA,"true",1700,NA,NA,NA,NA,"selected"
"ForeignLanguageExp2",2,"LLBI1",23,"female","psychology","German","English","2","2","TruthJudgment2",31,"The mass of a body is unequal to its weight.","SetA2","easy","true","no",NA,NA,"false",2381,NA,NA,NA,NA,"selected"
"ForeignLanguageExp2",2,"LLBI1",23,"female","psychology","German","English","2","2","TruthJudgment2",32,"There are four noble gases: helium, neon, argon and ragon.","SetB2","difficult","false","yes",NA,NA,"false",1367,NA,NA,NA,NA,"selected"
"ForeignLanguageExp2",2,"LLBI1",23,"female","psychology","German","English","2","2","TruthJudgment2",33,"Iron is the only metal that rusts. ","SetB2","easy","false","yes",NA,NA,"true",4377,NA,NA,NA,NA,"selected"
"ForeignLanguageExp2",2,"LLBI1",23,"female","psychology","German","English","2","2","TruthJudgment2",34,"The Hungarian currency is called ""Forint"".","SetA2","difficult","true","no",NA,NA,"true",2431,NA,NA,NA,NA,"selected"
"ForeignLanguageExp2",2,"LLBI1",23,"female","psychology","German","English","2","2","TruthJudgment2",35,"The first woman in space was called Sunita Williams.","SetA2","difficult","false","no",NA,NA,"true",2755,NA,NA,NA,NA,"selected"
"ForeignLanguageExp2",2,"LLBI1",23,"female","psychology","German","English","2","2","TruthJudgment2",36,"A hen can lay up to 500 eggs per year.","SetA2","difficult","false","no",NA,NA,"true",5922,NA,NA,NA,NA,"selected"
"ForeignLanguageExp2",2,"LLBI1",23,"female","psychology","German","English","2","2","TruthJudgment2",37,"60% of the Earth's surface is covered with water. ","SetB2","difficult","false","yes",NA,NA,"true",3161,NA,NA,NA,NA,"selected"
"ForeignLanguageExp2",2,"LLBI1",23,"female","psychology","German","English","2","2","TruthJudgment2",38,"Alexandria was founded by Alexander the Great in 331 BC. ","SetA2","easy","true","no",NA,NA,"true",2736,NA,NA,NA,NA,"selected"
"ForeignLanguageExp2",2,"LLBI1",23,"female","psychology","German","English","2","2","TruthJudgment2",39,"Martin Luther King was shot in Memphis.","SetA2","easy","true","no",NA,NA,"false",2468,NA,NA,NA,NA,"selected"
"ForeignLanguageExp2",2,"LLBI1",23,"female","psychology","German","English","2","2","TruthJudgment2",40,"The children's book character ""Bibi Blocksberg"" celebrated its 60th anniversary in 2010. ","SetB2","difficult","false","yes",NA,NA,"true",3329,NA,NA,NA,NA,"selected"
"ForeignLanguageExp2",2,"LLBI1",23,"female","psychology","German","English","2","2","TruthJudgment2",41,"Alcohol results from fermentation of sugar.","SetA2","easy","true","no",NA,NA,"true",3625,NA,NA,NA,NA,"selected"
"ForeignLanguageExp2",2,"LLBI1",23,"female","psychology","German","English","2","2","TruthJudgment2",42,"Beethoven composed the opera ""Apollo and Hyacinth"".","SetA2","easy","false","no",NA,NA,"false",2437,NA,NA,NA,NA,"selected"
