"","subject","statement_identifier","presentation_identifier","within_identifier","between_identifier","response","rt","repeated","trial"
"1",1,"6A1",1,"easy","English",1,9.467,0,57
"2",1,"79B1",1,"difficult","English",1,3.63,1,58
"3",1,"10A1",1,"difficult","English",1,3.682,0,59
"4",1,"77B1",1,"easy","English",0,2.522,1,60
"5",1,"17A1",1,"easy","English",0,5.402,0,61
"6",1,"12A1",1,"difficult","English",1,6.772,0,62
"7",1,"14A1",1,"difficult","English",1,2.971,0,63
"8",1,"4A1",1,"easy","English",1,7.304,0,64
"9",1,"11A1",1,"difficult","English",1,3.858,0,65
"10",1,"58B1",1,"easy","English",1,0.733,1,66
"11",1,"8A1",1,"difficult","English",1,2.781,0,67
"12",1,"28A1",1,"difficult","English",1,3.889,0,68
"13",1,"61B1",1,"easy","English",1,3.154,1,69
"14",1,"59B1",1,"easy","English",1,8.863,1,70
"15",1,"16A1",1,"easy","English",0,4.474,0,71
"16",1,"65B1",1,"difficult","English",0,3.305,1,72
"17",1,"80B1",1,"difficult","English",1,3.936,1,73
"18",1,"63B1",1,"easy","English",1,1.833,1,74
"19",1,"13A1",1,"difficult","English",1,3.788,0,75
"20",1,"27A1",1,"difficult","English",0,6.402,0,76
"21",1,"81B1",1,"difficult","English",1,3.367,1,77
"22",1,"18A1",1,"easy","English",1,6.071,0,78
"23",1,"60B1",1,"easy","English",1,1.96,1,79
"24",1,"66B1",1,"difficult","English",1,3.014,1,80
"25",1,"74B1",1,"easy","English",1,2.05,1,81
"26",1,"73B1",1,"easy","English",1,1.381,1,82
"27",1,"7A1",1,"easy","English",0,4.314,0,83
"28",1,"3A1",1,"easy","English",1,4.003,0,84
"29",1,"69B1",1,"difficult","English",1,5.247,1,85
"30",1,"21A1",1,"easy","English",0,3.94,0,87
"31",1,"75B1",1,"easy","English",1,2.753,1,88
"32",1,"84B1",1,"difficult","English",0,1.951,1,89
"33",1,"70B1",1,"difficult","English",1,1.581,1,90
"34",1,"83B1",1,"difficult","English",1,3.899,1,91
"35",1,"23A1",1,"difficult","English",0,4.896,0,94
"36",1,"19A1",1,"easy","English",0,3.2,0,95
"37",1,"57B1",1,"easy","English",1,1.95,1,96
"38",1,"67B1",1,"difficult","English",1,2.023,1,97
"39",1,"62B1",1,"easy","English",1,5.147,1,98
"40",1,"22A1",1,"difficult","English",0,4.346,0,99
"41",1,"20A1",1,"easy","English",0,5.427,0,100
"42",1,"5A1",1,"easy","English",1,2.267,0,101
"43",1,"76B1",1,"easy","English",1,4.988,1,102
"44",1,"71B1",1,"easy","English",0,2.345,1,103
"45",1,"72B1",1,"easy","English",0,2.288,1,104
"46",1,"82B1",1,"difficult","English",1,1.298,1,105
"47",1,"1A1",1,"easy","English",1,6.298,0,106
"48",1,"9A1",1,"difficult","English",1,6.275,0,107
"49",1,"15A1",1,"easy","English",0,7.653,0,108
"50",1,"78B1",1,"difficult","English",1,2.569,1,109
"51",1,"64B1",1,"difficult","English",0,2.493,1,111
"52",1,"25A1",1,"difficult","English",1,2.703,0,112
"53",1,"24A1",1,"difficult","English",1,4.951,0,113
"54",1,"68B1",1,"difficult","English",0,1.723,1,114
"55",1,"26A1",1,"difficult","English",0,4.264,0,115
"56",1,"2A1",1,"easy","English",1,2.994,0,116
"57",1,"54A2",1,"difficult","English",1,2.964,0,1
"58",1,"32A2",1,"easy","English",0,5.17,0,2
"59",1,"45A2",1,"easy","English",0,3.297,0,3
"60",1,"110B2",1,"difficult","English",1,3.522,1,4
"61",1,"47A2",1,"easy","English",1,1.69,0,5
"62",1,"103B2",1,"easy","English",0,2.324,1,6
"63",1,"31A2",1,"easy","English",1,4.587,0,8
"64",1,"42A2",1,"difficult","English",0,6.047,0,9
"65",1,"96B2",1,"difficult","English",1,2.235,1,10
"66",1,"51A2",1,"difficult","English",0,3.991,0,11
"67",1,"91B2",1,"easy","English",1,3.645,1,12
"68",1,"106B2",1,"difficult","English",0,8.041,1,13
"69",1,"92B2",1,"difficult","English",0,3.629,1,14
"70",1,"109B2",1,"difficult","English",1,2.87,1,15
"71",1,"90B2",1,"easy","English",1,2.333,1,16
"72",1,"98B2",1,"difficult","English",1,2.292,1,17
"73",1,"104B2",1,"easy","English",0,3.346,1,19
"74",1,"93B2",1,"difficult","English",1,5.161,1,20
"75",1,"88B2",1,"easy","English",1,2.268,1,21
"76",1,"36A2",1,"difficult","English",0,2.326,0,22
"77",1,"108B2",1,"difficult","English",1,8.825,1,23
"78",1,"50A2",1,"difficult","English",0,4.601,0,24
"79",1,"56A2",1,"difficult","English",1,2.949,0,25
"80",1,"111B2",1,"difficult","English",1,1.571,1,26
"81",1,"35A2",1,"easy","English",0,2.691,0,27
"82",1,"99B2",1,"easy","English",0,3.708,1,28
"83",1,"37A2",1,"difficult","English",1,2.992,0,29
"84",1,"40A2",1,"difficult","English",0,5.203,0,30
"85",1,"95B2",1,"difficult","English",0,2.192,1,31
"86",1,"86B2",1,"easy","English",1,1.909,1,32
"87",1,"112B2",1,"difficult","English",1,4.658,1,33
"88",1,"102B2",1,"easy","English",0,3.88,1,34
"89",1,"105B2",1,"easy","English",1,2.624,1,35
"90",1,"97B2",1,"difficult","English",1,1.595,1,36
"91",1,"52A2",1,"difficult","English",0,2.774,0,37
"92",1,"89B2",1,"easy","English",1,4.1,1,38
"93",1,"101B2",1,"easy","English",0,1.981,1,39
"94",1,"39A2",1,"difficult","English",0,1.954,0,40
"95",1,"100B2",1,"easy","English",0,2.991,1,41
"96",1,"94B2",1,"difficult","English",1,2.506,1,42
"97",1,"33A2",1,"easy","English",1,2.242,0,43
"98",1,"87B2",1,"easy","English",1,5.885,1,44
"99",1,"34A2",1,"easy","English",1,2.337,0,46
"100",1,"107B2",1,"difficult","English",1,3.248,1,47
"101",1,"55A2",1,"difficult","English",1,2.228,0,49
"102",1,"48A2",1,"easy","English",0,3.683,0,50
"103",1,"41A2",1,"difficult","English",1,5.059,0,51
"104",1,"44A2",1,"easy","English",0,3.148,0,52
"105",1,"53A2",1,"difficult","English",0,3.77,0,53
"106",1,"43A2",1,"easy","English",0,6.219,0,54
"107",1,"29A2",1,"easy","English",0,2.111,0,55
"108",1,"49A2",1,"easy","English",1,4.511,0,56
"109",1,"46A2",1,"easy","English",0,2.647,0,57
"110",1,"85B2",1,"easy","English",1,2.858,1,58
"111",1,"38A2",1,"difficult","English",1,2.793,0,59
"112",1,"30A2",1,"easy","English",1,2.58,0,60
"113",2,"2A1",1,"easy","English",1,3.292,0,57
"114",2,"6A1",1,"easy","English",1,4.051,0,58
"115",2,"21A1",1,"easy","English",0,5.846,0,59
"116",2,"63B1",1,"easy","English",1,3.378,1,60
"117",2,"25A1",1,"difficult","English",0,2.673,0,62
"118",2,"64B1",1,"difficult","English",1,5.156,1,63
"119",2,"68B1",1,"difficult","English",1,2.652,1,64
"120",2,"69B1",1,"difficult","English",0,6.95,1,65
"121",2,"61B1",1,"easy","English",0,4.861,1,66
"122",2,"67B1",1,"difficult","English",1,2.188,1,67
"123",2,"1A1",1,"easy","English",0,2.286,0,68
"124",2,"27A1",1,"difficult","English",1,2.632,0,69
"125",2,"72B1",1,"easy","English",1,2.027,1,70
"126",2,"12A1",1,"difficult","English",0,3.935,0,71
"127",2,"58B1",1,"easy","English",1,2.862,1,72
"128",2,"82B1",1,"difficult","English",1,2.472,1,73
"129",2,"70B1",1,"difficult","English",1,2.011,1,74
"130",2,"26A1",1,"difficult","English",0,3.962,0,75
"131",2,"19A1",1,"easy","English",0,6.401,0,76
"132",2,"24A1",1,"difficult","English",0,7.988,0,77
"133",2,"80B1",1,"difficult","English",0,4.585,1,78
"134",2,"17A1",1,"easy","English",1,2.105,0,79
"135",2,"5A1",1,"easy","English",0,3.811,0,81
"136",2,"73B1",1,"easy","English",1,1.975,1,82
"137",2,"22A1",1,"difficult","English",1,3.04,0,83
"138",2,"59B1",1,"easy","English",1,2.352,1,84
"139",2,"13A1",1,"difficult","English",1,4.171,0,86
"140",2,"18A1",1,"easy","English",0,3.633,0,87
"141",2,"81B1",1,"difficult","English",1,3.217,1,88
"142",2,"15A1",1,"easy","English",0,3.621,0,89
"143",2,"60B1",1,"easy","English",0,2.505,1,90
"144",2,"77B1",1,"easy","English",1,2.202,1,91
"145",2,"7A1",1,"easy","English",1,2.999,0,92
"146",2,"71B1",1,"easy","English",0,2.14,1,93
"147",2,"10A1",1,"difficult","English",0,1.884,0,94
"148",2,"16A1",1,"easy","English",1,4.158,0,95
"149",2,"75B1",1,"easy","English",1,2.547,1,96
"150",2,"83B1",1,"difficult","English",0,3.963,1,97
"151",2,"66B1",1,"difficult","English",0,0.968,1,98
"152",2,"84B1",1,"difficult","English",1,2.487,1,99
"153",2,"20A1",1,"easy","English",1,3.268,0,100
"154",2,"65B1",1,"difficult","English",1,3.535,1,102
"155",2,"11A1",1,"difficult","English",0,3.911,0,103
"156",2,"8A1",1,"difficult","English",0,2.263,0,104
"157",2,"74B1",1,"easy","English",1,2.217,1,105
"158",2,"28A1",1,"difficult","English",1,3.573,0,106
"159",2,"57B1",1,"easy","English",1,2.211,1,107
"160",2,"79B1",1,"difficult","English",0,3.728,1,108
"161",2,"62B1",1,"easy","English",1,2.88,1,109
"162",2,"3A1",1,"easy","English",1,3.854,0,110
"163",2,"4A1",1,"easy","English",1,4.072,0,111
"164",2,"78B1",1,"difficult","English",1,4.425,1,112
"165",2,"23A1",1,"difficult","English",0,2.797,0,113
"166",2,"76B1",1,"easy","English",1,1.946,1,114
"167",2,"9A1",1,"difficult","English",0,3.451,0,115
"168",2,"14A1",1,"difficult","English",1,2.701,0,116
"169",2,"54A2",1,"difficult","English",1,5.781,0,1
"170",2,"90B2",1,"easy","English",1,3.787,1,2
"171",2,"37A2",1,"difficult","English",0,2.41,0,3
"172",2,"47A2",1,"easy","English",0,2.335,0,4
"173",2,"43A2",1,"easy","English",0,4.456,0,5
"174",2,"91B2",1,"easy","English",1,3.667,1,6
"175",2,"87B2",1,"easy","English",1,3.866,1,8
"176",2,"97B2",1,"difficult","English",0,4.566,1,9
"177",2,"95B2",1,"difficult","English",1,1.357,1,10
"178",2,"46A2",1,"easy","English",1,2.066,0,11
"179",2,"96B2",1,"difficult","English",1,1.238,1,12
"180",2,"38A2",1,"difficult","English",0,3.41,0,13
"181",2,"52A2",1,"difficult","English",1,3.327,0,14
"182",2,"49A2",1,"easy","English",0,6.192,0,15
"183",2,"89B2",1,"easy","English",0,1.062,1,16
"184",2,"51A2",1,"difficult","English",1,2.897,0,17
"185",2,"35A2",1,"easy","English",1,0.853,0,19
"186",2,"99B2",1,"easy","English",1,2.304,1,20
"187",2,"56A2",1,"difficult","English",1,2.878,0,21
"188",2,"41A2",1,"difficult","English",1,1.928,0,22
"189",2,"102B2",1,"easy","English",0,3.297,1,23
"190",2,"93B2",1,"difficult","English",1,1.575,1,24
"191",2,"85B2",1,"easy","English",0,3.906,1,25
"192",2,"33A2",1,"easy","English",0,3.998,0,26
"193",2,"92B2",1,"difficult","English",1,1.587,1,28
"194",2,"100B2",1,"easy","English",1,2.284,1,29
"195",2,"45A2",1,"easy","English",1,1.7,0,30
"196",2,"31A2",1,"easy","English",0,2.381,0,31
"197",2,"107B2",1,"difficult","English",0,1.367,1,32
"198",2,"105B2",1,"easy","English",1,4.377,1,33
"199",2,"36A2",1,"difficult","English",1,2.431,0,34
"200",2,"50A2",1,"difficult","English",1,2.755,0,35
"201",2,"55A2",1,"difficult","English",1,5.922,0,36
"202",2,"111B2",1,"difficult","English",1,3.161,1,37
"203",2,"34A2",1,"easy","English",1,2.736,0,38
"204",2,"29A2",1,"easy","English",0,2.468,0,39
"205",2,"109B2",1,"difficult","English",1,3.329,1,40
"206",2,"30A2",1,"easy","English",1,3.625,0,41
"207",2,"48A2",1,"easy","English",0,2.437,0,42
"208",2,"104B2",1,"easy","English",1,2.861,1,43
"209",2,"103B2",1,"easy","English",1,3.046,1,44
"210",2,"108B2",1,"difficult","English",1,4.44,1,45
"211",2,"40A2",1,"difficult","English",1,2.587,0,46
"212",2,"101B2",1,"easy","English",1,1.989,1,47
"213",2,"88B2",1,"easy","English",0,1.336,1,48
"214",2,"53A2",1,"difficult","English",1,2.351,0,49
"215",2,"44A2",1,"easy","English",1,4.125,0,50
"216",2,"42A2",1,"difficult","English",1,1.494,0,51
"217",2,"94B2",1,"difficult","English",0,3.056,1,52
"218",2,"112B2",1,"difficult","English",0,1.05,1,53
"219",2,"110B2",1,"difficult","English",0,2.835,1,54
"220",2,"32A2",1,"easy","English",1,1.767,0,55
"221",2,"39A2",1,"difficult","English",1,2.142,0,56
"222",2,"98B2",1,"difficult","English",1,2.15,1,57
"223",2,"86B2",1,"easy","English",0,5.608,1,59
"224",2,"106B2",1,"difficult","English",0,2.541,1,60
"225",4,"75B1",1,"easy","English",1,4.388,0,57
"226",4,"8A1",1,"difficult","English",1,7.547,1,58
"227",4,"24A1",1,"difficult","English",1,3.284,1,59
"228",4,"20A1",1,"easy","English",0,9.647,1,60
"229",4,"22A1",1,"difficult","English",0,10.083,1,61
"230",4,"6A1",1,"easy","English",1,2.919,1,62
"231",4,"18A1",1,"easy","English",0,2.865,1,63
"232",4,"57B1",1,"easy","English",0,4.94,0,64
"233",4,"84B1",1,"difficult","English",0,4.078,0,65
"234",4,"59B1",1,"easy","English",0,8.825,0,66
"235",4,"1A1",1,"easy","English",1,6.255,1,67
"236",4,"14A1",1,"difficult","English",1,2.97,1,68
"237",4,"81B1",1,"difficult","English",0,8.61,0,69
"238",4,"72B1",1,"easy","English",1,4.056,0,70
"239",4,"60B1",1,"easy","English",1,3.181,0,71
"240",4,"58B1",1,"easy","English",1,3.412,0,72
"241",4,"83B1",1,"difficult","English",0,6.466,0,73
"242",4,"19A1",1,"easy","English",1,4.598,1,74
"243",4,"26A1",1,"difficult","English",1,3.404,1,75
"244",4,"67B1",1,"difficult","English",1,2.669,0,78
"245",4,"73B1",1,"easy","English",1,5.057,0,79
"246",4,"5A1",1,"easy","English",1,7.341,1,80
"247",4,"79B1",1,"difficult","English",0,4.421,0,81
"248",4,"28A1",1,"difficult","English",0,6.25,1,82
"249",4,"16A1",1,"easy","English",0,6.631,1,83
"250",4,"61B1",1,"easy","English",1,11.827,0,84
"251",4,"74B1",1,"easy","English",0,6.872,0,85
"252",4,"68B1",1,"difficult","English",0,6.523,0,86
"253",4,"69B1",1,"difficult","English",0,8.662,0,87
"254",4,"78B1",1,"difficult","English",1,3.586,0,88
"255",4,"11A1",1,"difficult","English",1,2.233,1,89
"256",4,"15A1",1,"easy","English",1,3.431,1,90
"257",4,"62B1",1,"easy","English",1,6.692,0,91
"258",4,"7A1",1,"easy","English",1,9.293,1,92
"259",4,"64B1",1,"difficult","English",0,4.919,0,93
"260",4,"80B1",1,"difficult","English",0,5.183,0,94
"261",4,"21A1",1,"easy","English",1,8.199,1,95
"262",4,"63B1",1,"easy","English",1,4.997,0,96
"263",4,"3A1",1,"easy","English",1,3.988,1,97
"264",4,"70B1",1,"difficult","English",0,1.899,0,98
"265",4,"65B1",1,"difficult","English",0,5.668,0,99
"266",4,"76B1",1,"easy","English",0,4.688,0,100
"267",4,"27A1",1,"difficult","English",1,4.195,1,101
"268",4,"71B1",1,"easy","English",0,4.695,0,103
"269",4,"10A1",1,"difficult","English",1,4.242,1,104
"270",4,"77B1",1,"easy","English",0,3.567,0,105
"271",4,"23A1",1,"difficult","English",1,10.774,1,106
"272",4,"25A1",1,"difficult","English",1,4.318,1,107
"273",4,"4A1",1,"easy","English",1,5.752,1,108
"274",4,"13A1",1,"difficult","English",1,4.256,1,110
"275",4,"2A1",1,"easy","English",1,6.076,1,111
"276",4,"82B1",1,"difficult","English",0,2.768,0,112
"277",4,"17A1",1,"easy","English",0,4.022,1,113
"278",4,"9A1",1,"difficult","English",0,4.076,1,114
"279",4,"66B1",1,"difficult","English",1,4.766,0,115
"280",4,"12A1",1,"difficult","English",0,5.214,1,116
"281",4,"88B2",1,"easy","English",1,4.107,0,1
"282",4,"34A2",1,"easy","English",1,2.764,1,2
"283",4,"91B2",1,"easy","English",0,11,0,3
"284",4,"87B2",1,"easy","English",1,4.749,0,4
"285",4,"111B2",1,"difficult","English",1,7.003,0,5
"286",4,"36A2",1,"difficult","English",0,5.103,1,6
"287",4,"32A2",1,"easy","English",1,3.791,1,7
"288",4,"93B2",1,"difficult","English",1,3.957,0,8
"289",4,"41A2",1,"difficult","English",1,3.427,1,9
"290",4,"54A2",1,"difficult","English",0,1.742,1,10
"291",4,"89B2",1,"easy","English",1,4.617,0,11
"292",4,"100B2",1,"easy","English",1,3.498,0,13
"293",4,"85B2",1,"easy","English",1,5.203,0,14
"294",4,"99B2",1,"easy","English",0,2.523,0,15
"295",4,"56A2",1,"difficult","English",1,2.625,1,16
"296",4,"94B2",1,"difficult","English",0,5.605,0,17
"297",4,"110B2",1,"difficult","English",0,4.328,0,18
"298",4,"104B2",1,"easy","English",0,7.04,0,19
"299",4,"109B2",1,"difficult","English",0,8.465,0,20
"300",4,"37A2",1,"difficult","English",1,3.311,1,22
"301",4,"45A2",1,"easy","English",1,2.855,1,23
"302",4,"86B2",1,"easy","English",1,5.906,0,24
"303",4,"51A2",1,"difficult","English",0,3.667,1,25
"304",4,"43A2",1,"easy","English",0,8.215,1,26
"305",4,"40A2",1,"difficult","English",0,4.739,1,27
"306",4,"98B2",1,"difficult","English",1,2.353,0,28
"307",4,"105B2",1,"easy","English",0,4.336,0,29
"308",4,"97B2",1,"difficult","English",0,5.425,0,30
"309",4,"48A2",1,"easy","English",0,7.434,1,31
"310",4,"53A2",1,"difficult","English",1,2.281,1,32
"311",4,"42A2",1,"difficult","English",0,5.961,1,33
"312",4,"108B2",1,"difficult","English",0,5.856,0,34
"313",4,"101B2",1,"easy","English",0,4.035,0,35
"314",4,"102B2",1,"easy","English",0,8.28,0,36
"315",4,"52A2",1,"difficult","English",1,4.538,1,37
"316",4,"46A2",1,"easy","English",0,6.144,1,38
"317",4,"103B2",1,"easy","English",0,6.488,0,39
"318",4,"50A2",1,"difficult","English",1,1.892,1,40
"319",4,"49A2",1,"easy","English",1,7.203,1,41
"320",4,"106B2",1,"difficult","English",0,5.98,0,42
"321",4,"55A2",1,"difficult","English",0,2.724,1,43
"322",4,"44A2",1,"easy","English",0,0.689,1,44
"323",4,"29A2",1,"easy","English",1,3.231,1,46
"324",4,"38A2",1,"difficult","English",0,6.493,1,48
"325",4,"90B2",1,"easy","English",1,3.79,0,49
"326",4,"47A2",1,"easy","English",0,5.851,1,50
"327",4,"92B2",1,"difficult","English",0,6.28,0,51
"328",4,"107B2",1,"difficult","English",1,5.283,0,52
"329",4,"30A2",1,"easy","English",0,6.43,1,53
"330",4,"96B2",1,"difficult","English",1,6.388,0,54
"331",4,"112B2",1,"difficult","English",1,4.643,0,55
"332",4,"33A2",1,"easy","English",1,2.392,1,56
"333",4,"31A2",1,"easy","English",0,22.871,1,57
"334",4,"95B2",1,"difficult","English",1,11.923,0,58
"335",4,"35A2",1,"easy","English",1,3.468,1,59
"336",4,"39A2",1,"difficult","English",1,2.167,1,60
"337",5,"35A2",1,"easy","English",1,5.995,0,57
"338",5,"51A2",1,"difficult","English",0,2.666,0,58
"339",5,"97B2",1,"difficult","English",0,7.222,1,59
"340",5,"102B2",1,"easy","English",1,3.42,1,60
"341",5,"106B2",1,"difficult","English",1,3.297,1,61
"342",5,"45A2",1,"easy","English",0,6.46,0,62
"343",5,"93B2",1,"difficult","English",1,4.568,1,63
"344",5,"48A2",1,"easy","English",0,2.36,0,64
"345",5,"109B2",1,"difficult","English",0,11.678,1,66
"346",5,"103B2",1,"easy","English",1,2.24,1,67
"347",5,"46A2",1,"easy","English",0,5.348,0,68
"348",5,"92B2",1,"difficult","English",0,6.492,1,69
"349",5,"31A2",1,"easy","English",1,0.836,0,70
"350",5,"30A2",1,"easy","English",1,10.425,0,71
"351",5,"33A2",1,"easy","English",1,2.326,0,72
"352",5,"85B2",1,"easy","English",1,4.455,1,73
"353",5,"112B2",1,"difficult","English",1,2.796,1,74
"354",5,"98B2",1,"difficult","English",0,1.858,1,75
"355",5,"41A2",1,"difficult","English",1,6.335,0,76
"356",5,"89B2",1,"easy","English",1,7.04,1,77
"357",5,"50A2",1,"difficult","English",0,2.901,0,78
"358",5,"29A2",1,"easy","English",0,3.984,0,79
"359",5,"52A2",1,"difficult","English",0,3.83,0,80
"360",5,"86B2",1,"easy","English",1,2.38,1,81
"361",5,"56A2",1,"difficult","English",0,8.106,0,82
"362",5,"32A2",1,"easy","English",0,4.453,0,83
"363",5,"96B2",1,"difficult","English",1,2.921,1,84
"364",5,"37A2",1,"difficult","English",0,2.875,0,85
"365",5,"34A2",1,"easy","English",1,7.358,0,86
"366",5,"47A2",1,"easy","English",0,2.726,0,87
"367",5,"107B2",1,"difficult","English",0,4.022,1,88
"368",5,"53A2",1,"difficult","English",1,5.732,0,89
"369",5,"36A2",1,"difficult","English",0,5.301,0,92
"370",5,"99B2",1,"easy","English",0,4.583,1,93
"371",5,"43A2",1,"easy","English",0,7.365,0,94
"372",5,"88B2",1,"easy","English",1,3.158,1,95
"373",5,"87B2",1,"easy","English",1,6.444,1,96
"374",5,"104B2",1,"easy","English",0,1.577,1,97
"375",5,"44A2",1,"easy","English",0,7.552,0,98
"376",5,"39A2",1,"difficult","English",1,3.081,0,99
"377",5,"105B2",1,"easy","English",1,3.397,1,100
"378",5,"110B2",1,"difficult","English",1,2.128,1,101
"379",5,"95B2",1,"difficult","English",0,2.288,1,102
"380",5,"101B2",1,"easy","English",0,2.379,1,103
"381",5,"100B2",1,"easy","English",0,3.242,1,104
"382",5,"42A2",1,"difficult","English",0,8.527,0,105
"383",5,"49A2",1,"easy","English",1,3.04,0,106
"384",5,"108B2",1,"difficult","English",0,4.245,1,107
"385",5,"55A2",1,"difficult","English",0,8.138,0,108
"386",5,"54A2",1,"difficult","English",0,4.555,0,109
"387",5,"90B2",1,"easy","English",1,3.651,1,110
"388",5,"91B2",1,"easy","English",1,2.079,1,111
"389",5,"40A2",1,"difficult","English",0,3.577,0,112
"390",5,"111B2",1,"difficult","English",1,1.64,1,114
"391",5,"38A2",1,"difficult","English",0,7.084,0,115
"392",5,"94B2",1,"difficult","English",1,3.423,1,116
"393",5,"3A1",1,"easy","English",1,6.366,0,1
"394",5,"7A1",1,"easy","English",1,2.582,0,2
"395",5,"11A1",1,"difficult","English",0,3.124,0,3
"396",5,"75B1",1,"easy","English",0,2.413,1,4
"397",5,"68B1",1,"difficult","English",1,2.674,1,5
"398",5,"8A1",1,"difficult","English",0,5.87,0,6
"399",5,"67B1",1,"difficult","English",0,5.449,1,7
"400",5,"27A1",1,"difficult","English",1,2.708,0,8
"401",5,"61B1",1,"easy","English",1,2.42,1,10
"402",5,"80B1",1,"difficult","English",0,7.328,1,11
"403",5,"28A1",1,"difficult","English",1,5.161,0,12
"404",5,"10A1",1,"difficult","English",0,6.729,0,13
"405",5,"13A1",1,"difficult","English",0,5.689,0,14
"406",5,"63B1",1,"easy","English",1,2.084,1,15
"407",5,"77B1",1,"easy","English",0,1.965,1,16
"408",5,"21A1",1,"easy","English",0,2.9,0,17
"409",5,"20A1",1,"easy","English",0,6.198,0,18
"410",5,"84B1",1,"difficult","English",1,2.397,1,19
"411",5,"74B1",1,"easy","English",1,7.307,1,20
"412",5,"60B1",1,"easy","English",1,3.284,1,21
"413",5,"70B1",1,"difficult","English",1,3.007,1,22
"414",5,"66B1",1,"difficult","English",1,3.708,1,23
"415",5,"23A1",1,"difficult","English",1,0.702,0,24
"416",5,"17A1",1,"easy","English",0,1.872,0,25
"417",5,"81B1",1,"difficult","English",0,7.298,1,26
"418",5,"6A1",1,"easy","English",1,3.869,0,27
"419",5,"19A1",1,"easy","English",0,2.455,0,28
"420",5,"82B1",1,"difficult","English",1,3.362,1,30
"421",5,"4A1",1,"easy","English",1,11.746,0,31
"422",5,"15A1",1,"easy","English",0,5.259,0,32
"423",5,"71B1",1,"easy","English",0,2.054,1,33
"424",5,"62B1",1,"easy","English",1,3.689,1,34
"425",5,"59B1",1,"easy","English",1,5.14,1,35
"426",5,"76B1",1,"easy","English",0,3.979,1,36
"427",5,"26A1",1,"difficult","English",1,1.97,0,37
"428",5,"58B1",1,"easy","English",1,2.625,1,38
"429",5,"25A1",1,"difficult","English",0,2.03,0,39
"430",5,"83B1",1,"difficult","English",0,8.843,1,40
"431",5,"16A1",1,"easy","English",0,14.005,0,43
"432",5,"9A1",1,"difficult","English",0,11.586,0,44
"433",5,"78B1",1,"difficult","English",1,2.241,1,45
"434",5,"18A1",1,"easy","English",0,2.845,0,46
"435",5,"73B1",1,"easy","English",0,2.105,1,47
"436",5,"12A1",1,"difficult","English",1,3.483,0,48
"437",5,"69B1",1,"difficult","English",0,7.381,1,49
"438",5,"24A1",1,"difficult","English",0,3.885,0,50
"439",5,"65B1",1,"difficult","English",1,5.064,1,51
"440",5,"64B1",1,"difficult","English",1,3.947,1,52
"441",5,"2A1",1,"easy","English",1,6.708,0,53
"442",5,"22A1",1,"difficult","English",0,4.83,0,54
"443",5,"14A1",1,"difficult","English",0,4.267,0,55
"444",5,"72B1",1,"easy","English",0,2.358,1,56
"445",5,"5A1",1,"easy","English",0,4.214,0,57
"446",5,"79B1",1,"difficult","English",1,0.673,1,58
"447",5,"1A1",1,"easy","English",1,0.603,0,59
"448",5,"57B1",1,"easy","English",0,4.801,1,60
"449",6,"105B2",1,"easy","English",0,7.353,1,57
"450",6,"29A2",1,"easy","English",0,9.585,0,58
"451",6,"102B2",1,"easy","English",0,12.435,1,60
"452",6,"87B2",1,"easy","English",1,5.673,1,61
"453",6,"41A2",1,"difficult","English",0,10.268,0,62
"454",6,"32A2",1,"easy","English",1,4.616,0,63
"455",6,"90B2",1,"easy","English",1,6.743,1,64
"456",6,"91B2",1,"easy","English",1,13.75,1,65
"457",6,"42A2",1,"difficult","English",0,9.647,0,66
"458",6,"46A2",1,"easy","English",1,5.186,0,67
"459",6,"51A2",1,"difficult","English",0,8.705,0,68
"460",6,"92B2",1,"difficult","English",0,63.786,1,69
"461",6,"93B2",1,"difficult","English",1,7.226,1,70
"462",6,"56A2",1,"difficult","English",1,11.376,0,71
"463",6,"88B2",1,"easy","English",0,18.67,1,72
"464",6,"37A2",1,"difficult","English",1,19.466,0,73
"465",6,"110B2",1,"difficult","English",0,10.061,1,74
"466",6,"112B2",1,"difficult","English",0,4.706,1,75
"467",6,"95B2",1,"difficult","English",1,5.404,1,76
"468",6,"106B2",1,"difficult","English",0,16.881,1,77
"469",6,"36A2",1,"difficult","English",1,21.636,0,78
"470",6,"34A2",1,"easy","English",0,37.993,0,79
"471",6,"35A2",1,"easy","English",1,3.376,0,80
"472",6,"89B2",1,"easy","English",0,15.304,1,81
"473",6,"54A2",1,"difficult","English",0,11.538,0,82
"474",6,"85B2",1,"easy","English",1,12.754,1,83
"475",6,"44A2",1,"easy","English",0,6.638,0,85
"476",6,"45A2",1,"easy","English",0,5.09,0,86
"477",6,"47A2",1,"easy","English",0,19.693,0,87
"478",6,"48A2",1,"easy","English",0,10.054,0,88
"479",6,"101B2",1,"easy","English",0,3.794,1,89
"480",6,"53A2",1,"difficult","English",1,5.273,0,90
"481",6,"40A2",1,"difficult","English",0,16.868,0,91
"482",6,"55A2",1,"difficult","English",1,13.776,0,92
"483",6,"96B2",1,"difficult","English",1,6.463,1,93
"484",6,"98B2",1,"difficult","English",0,3.752,1,94
"485",6,"38A2",1,"difficult","English",0,7.433,0,95
"486",6,"33A2",1,"easy","English",0,6.166,0,96
"487",6,"108B2",1,"difficult","English",0,9.966,1,97
"488",6,"30A2",1,"easy","English",1,6.606,0,98
"489",6,"86B2",1,"easy","English",1,2.949,1,99
"490",6,"111B2",1,"difficult","English",1,2.857,1,101
"491",6,"52A2",1,"difficult","English",1,5.773,0,102
"492",6,"97B2",1,"difficult","English",0,2.988,1,103
"493",6,"49A2",1,"easy","English",0,15.155,0,104
"494",6,"50A2",1,"difficult","English",0,8.819,0,105
"495",6,"104B2",1,"easy","English",0,25.713,1,106
"496",6,"103B2",1,"easy","English",0,8.404,1,107
"497",6,"100B2",1,"easy","English",1,2.539,1,108
"498",6,"109B2",1,"difficult","English",1,5.211,1,109
"499",6,"107B2",1,"difficult","English",1,6.033,1,111
"500",6,"94B2",1,"difficult","English",0,10.519,1,112
"501",6,"39A2",1,"difficult","English",0,5.953,0,113
"502",6,"99B2",1,"easy","English",0,2.264,1,114
"503",6,"31A2",1,"easy","English",0,14.98,0,115
"504",6,"43A2",1,"easy","English",0,7.003,0,116
"505",6,"6A1",1,"easy","English",1,8.343,0,1
"506",6,"14A1",1,"difficult","English",0,10.738,0,3
"507",6,"13A1",1,"difficult","English",0,7.513,0,4
"508",6,"26A1",1,"difficult","English",1,4.163,0,5
"509",6,"61B1",1,"easy","English",0,5.531,1,6
"510",6,"68B1",1,"difficult","English",1,3.932,1,7
"511",6,"72B1",1,"easy","English",1,4.559,1,9
"512",6,"65B1",1,"difficult","English",0,10.007,1,10
"513",6,"67B1",1,"difficult","English",0,6.676,1,11
"514",6,"19A1",1,"easy","English",1,11.862,0,12
"515",6,"24A1",1,"difficult","English",0,11.737,0,13
"516",6,"10A1",1,"difficult","English",1,14.563,0,14
"517",6,"70B1",1,"difficult","English",1,5.833,1,15
"518",6,"9A1",1,"difficult","English",0,9.559,0,16
"519",6,"12A1",1,"difficult","English",0,11.846,0,17
"520",6,"66B1",1,"difficult","English",1,5.699,1,18
"521",6,"16A1",1,"easy","English",0,8.365,0,19
"522",6,"21A1",1,"easy","English",0,4.941,0,20
"523",6,"18A1",1,"easy","English",0,6.11,0,21
"524",6,"20A1",1,"easy","English",0,13.944,0,22
"525",6,"62B1",1,"easy","English",1,5.752,1,23
"526",6,"74B1",1,"easy","English",1,5.103,1,24
"527",6,"77B1",1,"easy","English",0,4.717,1,26
"528",6,"2A1",1,"easy","English",1,2.838,0,27
"529",6,"3A1",1,"easy","English",1,18.525,0,28
"530",6,"60B1",1,"easy","English",0,5.467,1,29
"531",6,"81B1",1,"difficult","English",0,8.357,1,30
"532",6,"22A1",1,"difficult","English",0,9.236,0,31
"533",6,"17A1",1,"easy","English",0,3.552,0,32
"534",6,"7A1",1,"easy","English",1,7.393,0,33
"535",6,"1A1",1,"easy","English",1,3.446,0,34
"536",6,"58B1",1,"easy","English",0,16.249,1,35
"537",6,"15A1",1,"easy","English",0,5.477,0,36
"538",6,"80B1",1,"difficult","English",0,6.504,1,37
"539",6,"59B1",1,"easy","English",1,8.017,1,38
"540",6,"57B1",1,"easy","English",1,4.335,1,39
"541",6,"82B1",1,"difficult","English",0,8.665,1,40
"542",6,"84B1",1,"difficult","English",0,3.189,1,41
"543",6,"64B1",1,"difficult","English",1,5.42,1,42
"544",6,"63B1",1,"easy","English",1,4.146,1,43
"545",6,"83B1",1,"difficult","English",1,16.09,1,44
"546",6,"79B1",1,"difficult","English",0,5.165,1,45
"547",6,"69B1",1,"difficult","English",0,4.597,1,46
"548",6,"5A1",1,"easy","English",0,3.09,0,48
"549",6,"71B1",1,"easy","English",0,5.06,1,49
"550",6,"11A1",1,"difficult","English",0,11.6,0,50
"551",6,"78B1",1,"difficult","English",1,6.831,1,51
"552",6,"23A1",1,"difficult","English",0,5.26,0,52
"553",6,"75B1",1,"easy","English",0,3.272,1,53
"554",6,"73B1",1,"easy","English",0,2.74,1,54
"555",6,"4A1",1,"easy","English",1,4.374,0,55
"556",6,"25A1",1,"difficult","English",1,3.502,0,56
"557",6,"8A1",1,"difficult","English",1,8.36,0,57
"558",6,"28A1",1,"difficult","English",0,9.656,0,58
"559",6,"76B1",1,"easy","English",0,8.74,1,59
"560",6,"27A1",1,"difficult","English",0,9.123,0,60
"561",7,"24A1",1,"difficult","English",0,9.637,0,57
"562",7,"83B1",1,"difficult","English",1,5.24,1,58
"563",7,"57B1",1,"easy","English",1,2.468,1,59
"564",7,"69B1",1,"difficult","English",1,3.926,1,60
"565",7,"65B1",1,"difficult","English",0,3.182,1,61
"566",7,"17A1",1,"easy","English",0,3.931,0,62
"567",7,"13A1",1,"difficult","English",0,7.527,0,64
"568",7,"80B1",1,"difficult","English",1,3.55,1,65
"569",7,"64B1",1,"difficult","English",1,4.669,1,66
"570",7,"84B1",1,"difficult","English",1,5.983,1,67
"571",7,"10A1",1,"difficult","English",1,0.6,0,68
"572",7,"67B1",1,"difficult","English",0,3.317,1,69
"573",7,"70B1",1,"difficult","English",1,2.482,1,70
"574",7,"15A1",1,"easy","English",0,1.174,0,71
"575",7,"4A1",1,"easy","English",1,5.356,0,72
"576",7,"18A1",1,"easy","English",0,3.297,0,73
"577",7,"72B1",1,"easy","English",0,3.554,1,74
"578",7,"20A1",1,"easy","English",0,6.376,0,75
"579",7,"66B1",1,"difficult","English",1,0.623,1,77
"580",7,"75B1",1,"easy","English",0,2.819,1,78
"581",7,"74B1",1,"easy","English",1,2.68,1,79
"582",7,"6A1",1,"easy","English",1,4.295,0,80
"583",7,"11A1",1,"difficult","English",0,5.407,0,81
"584",7,"8A1",1,"difficult","English",1,3.411,0,82
"585",7,"1A1",1,"easy","English",0,3.543,0,83
"586",7,"19A1",1,"easy","English",0,2.798,0,84
"587",7,"77B1",1,"easy","English",1,2.312,1,85
"588",7,"9A1",1,"difficult","English",0,7.36,0,86
"589",7,"23A1",1,"difficult","English",0,4.517,0,87
"590",7,"25A1",1,"difficult","English",1,2.093,0,88
"591",7,"81B1",1,"difficult","English",1,2.526,1,89
"592",7,"3A1",1,"easy","English",1,3.344,0,91
"593",7,"82B1",1,"difficult","English",0,2.509,1,92
"594",7,"26A1",1,"difficult","English",1,2.645,0,93
"595",7,"68B1",1,"difficult","English",0,2.466,1,94
"596",7,"73B1",1,"easy","English",0,1.907,1,95
"597",7,"60B1",1,"easy","English",0,5.768,1,97
"598",7,"78B1",1,"difficult","English",1,2.439,1,98
"599",7,"5A1",1,"easy","English",1,1.906,0,99
"600",7,"7A1",1,"easy","English",0,3.211,0,100
"601",7,"12A1",1,"difficult","English",1,4.311,0,101
"602",7,"63B1",1,"easy","English",1,2.192,1,102
"603",7,"79B1",1,"difficult","English",0,2.988,1,103
"604",7,"61B1",1,"easy","English",1,2.161,1,104
"605",7,"2A1",1,"easy","English",1,3.039,0,105
"606",7,"16A1",1,"easy","English",0,2.58,0,106
"607",7,"22A1",1,"difficult","English",1,5.041,0,107
"608",7,"76B1",1,"easy","English",0,6.42,1,108
"609",7,"62B1",1,"easy","English",1,2.776,1,109
"610",7,"14A1",1,"difficult","English",1,2.765,0,110
"611",7,"59B1",1,"easy","English",1,2.771,1,111
"612",7,"71B1",1,"easy","English",1,1.777,1,112
"613",7,"28A1",1,"difficult","English",0,4.303,0,113
"614",7,"21A1",1,"easy","English",0,2.76,0,114
"615",7,"27A1",1,"difficult","English",0,3.838,0,115
"616",7,"58B1",1,"easy","English",1,2.065,1,116
"617",7,"100B2",1,"easy","English",0,2.199,1,1
"618",7,"54A2",1,"difficult","English",0,1.86,0,2
"619",7,"39A2",1,"difficult","English",1,0.943,0,3
"620",7,"30A2",1,"easy","English",1,1.238,0,5
"621",7,"50A2",1,"difficult","English",1,0.906,0,6
"622",7,"41A2",1,"difficult","English",1,0.58,0,7
"623",7,"36A2",1,"difficult","English",0,0.907,0,8
"624",7,"55A2",1,"difficult","English",0,0.949,0,9
"625",7,"105B2",1,"easy","English",1,0.884,1,10
"626",7,"51A2",1,"difficult","English",0,1.254,0,11
"627",7,"44A2",1,"easy","English",1,0.865,0,12
"628",7,"112B2",1,"difficult","English",1,0.765,1,13
"629",7,"102B2",1,"easy","English",0,0.868,1,14
"630",7,"90B2",1,"easy","English",1,1.248,1,15
"631",7,"91B2",1,"easy","English",0,0.565,1,16
"632",7,"40A2",1,"difficult","English",0,0.789,0,17
"633",7,"48A2",1,"easy","English",1,0.707,0,18
"634",7,"93B2",1,"difficult","English",0,0.717,1,19
"635",7,"47A2",1,"easy","English",0,1.15,0,20
"636",7,"103B2",1,"easy","English",1,0.941,1,21
"637",7,"104B2",1,"easy","English",0,1.29,1,23
"638",7,"88B2",1,"easy","English",0,4.309,1,24
"639",7,"35A2",1,"easy","English",1,1.079,0,25
"640",7,"43A2",1,"easy","English",0,0.682,0,26
"641",7,"32A2",1,"easy","English",1,0.661,0,27
"642",7,"38A2",1,"difficult","English",0,1.593,0,28
"643",7,"110B2",1,"difficult","English",1,0.511,1,29
"644",7,"86B2",1,"easy","English",0,0.609,1,30
"645",7,"101B2",1,"easy","English",1,0.959,1,31
"646",7,"49A2",1,"easy","English",0,0.559,0,32
"647",7,"33A2",1,"easy","English",0,0.574,0,33
"648",7,"31A2",1,"easy","English",0,0.823,0,35
"649",7,"99B2",1,"easy","English",1,0.597,1,36
"650",7,"108B2",1,"difficult","English",0,0.771,1,37
"651",7,"46A2",1,"easy","English",1,0.937,0,38
"652",7,"87B2",1,"easy","English",0,0.634,1,39
"653",7,"34A2",1,"easy","English",1,2.344,0,41
"654",7,"52A2",1,"difficult","English",0,0.935,0,42
"655",7,"111B2",1,"difficult","English",1,0.72,1,43
"656",7,"95B2",1,"difficult","English",0,1.248,1,44
"657",7,"92B2",1,"difficult","English",1,0.996,1,45
"658",7,"98B2",1,"difficult","English",0,1.065,1,46
"659",7,"96B2",1,"difficult","English",0,0.812,1,47
"660",7,"56A2",1,"difficult","English",1,0.886,0,48
"661",7,"37A2",1,"difficult","English",0,1.094,0,49
"662",7,"45A2",1,"easy","English",1,1.075,0,50
"663",7,"107B2",1,"difficult","English",0,0.605,1,51
"664",7,"42A2",1,"difficult","English",1,0.594,0,52
"665",7,"106B2",1,"difficult","English",0,0.769,1,53
"666",7,"94B2",1,"difficult","English",1,0.713,1,54
"667",7,"53A2",1,"difficult","English",0,1.443,0,55
"668",7,"85B2",1,"easy","English",1,0.647,1,56
"669",7,"97B2",1,"difficult","English",0,0.642,1,57
"670",7,"29A2",1,"easy","English",1,0.73,0,58
"671",7,"109B2",1,"difficult","English",0,0.916,1,59
"672",7,"89B2",1,"easy","English",0,0.697,1,60
"673",9,"73B1",1,"easy","English",0,3.025,0,57
"674",9,"61B1",1,"easy","English",1,3.082,0,58
"675",9,"67B1",1,"difficult","English",0,4.411,0,59
"676",9,"16A1",1,"easy","English",1,3.183,1,60
"677",9,"19A1",1,"easy","English",0,3.301,1,61
"678",9,"1A1",1,"easy","English",1,2.374,1,62
"679",9,"62B1",1,"easy","English",0,3.227,0,63
"680",9,"26A1",1,"difficult","English",1,1.675,1,64
"681",9,"11A1",1,"difficult","English",1,2.797,1,65
"682",9,"72B1",1,"easy","English",0,2.1,0,67
"683",9,"63B1",1,"easy","English",1,1.718,0,68
"684",9,"2A1",1,"easy","English",1,1.73,1,69
"685",9,"76B1",1,"easy","English",0,2.289,0,70
"686",9,"13A1",1,"difficult","English",1,3.551,1,71
"687",9,"9A1",1,"difficult","English",1,2.661,1,72
"688",9,"75B1",1,"easy","English",0,3.127,0,73
"689",9,"4A1",1,"easy","English",1,1.367,1,74
"690",9,"10A1",1,"difficult","English",1,3.195,1,75
"691",9,"12A1",1,"difficult","English",1,2.057,1,77
"692",9,"68B1",1,"difficult","English",0,2.131,0,78
"693",9,"70B1",1,"difficult","English",0,4.706,0,79
"694",9,"84B1",1,"difficult","English",1,4.523,0,80
"695",9,"57B1",1,"easy","English",1,2.276,0,81
"696",9,"65B1",1,"difficult","English",0,0.66,0,82
"697",9,"58B1",1,"easy","English",1,3.933,0,83
"698",9,"82B1",1,"difficult","English",1,4.182,0,84
"699",9,"5A1",1,"easy","English",1,1.931,1,85
"700",9,"59B1",1,"easy","English",1,3.112,0,86
"701",9,"81B1",1,"difficult","English",1,4.584,0,87
"702",9,"3A1",1,"easy","English",1,7.939,1,88
"703",9,"25A1",1,"difficult","English",1,1.85,1,89
"704",9,"66B1",1,"difficult","English",0,1.661,0,90
"705",9,"77B1",1,"easy","English",1,4.374,0,91
"706",9,"24A1",1,"difficult","English",1,2.084,1,92
"707",9,"18A1",1,"easy","English",0,2.774,1,93
"708",9,"14A1",1,"difficult","English",1,3.228,1,94
"709",9,"6A1",1,"easy","English",1,4.224,1,95
"710",9,"69B1",1,"difficult","English",1,5.169,0,96
"711",9,"60B1",1,"easy","English",0,3.846,0,97
"712",9,"28A1",1,"difficult","English",1,1.673,1,98
"713",9,"79B1",1,"difficult","English",0,2.3,0,99
"714",9,"17A1",1,"easy","English",0,1.936,1,100
"715",9,"83B1",1,"difficult","English",1,3.319,0,101
"716",9,"23A1",1,"difficult","English",1,1.599,1,102
"717",9,"8A1",1,"difficult","English",1,2.795,1,103
"718",9,"80B1",1,"difficult","English",0,3.32,0,104
"719",9,"15A1",1,"easy","English",1,1.881,1,105
"720",9,"64B1",1,"difficult","English",0,1.948,0,106
"721",9,"21A1",1,"easy","English",1,2.05,1,107
"722",9,"74B1",1,"easy","English",1,1.911,0,109
"723",9,"27A1",1,"difficult","English",1,2.424,1,110
"724",9,"71B1",1,"easy","English",0,1.498,0,111
"725",9,"22A1",1,"difficult","English",1,0.807,1,112
"726",9,"78B1",1,"difficult","English",0,0.658,0,113
"727",9,"7A1",1,"easy","English",1,1.984,1,115
"728",9,"20A1",1,"easy","English",1,1.793,1,116
"729",9,"44A2",1,"easy","English",0,6.168,1,1
"730",9,"104B2",1,"easy","English",0,4.9,0,3
"731",9,"47A2",1,"easy","English",0,3.705,1,4
"732",9,"88B2",1,"easy","English",1,2.465,0,5
"733",9,"48A2",1,"easy","English",0,2.675,1,6
"734",9,"49A2",1,"easy","English",0,4.333,1,7
"735",9,"32A2",1,"easy","English",1,1.636,1,8
"736",9,"30A2",1,"easy","English",1,4.757,1,9
"737",9,"96B2",1,"difficult","English",1,2.787,0,10
"738",9,"86B2",1,"easy","English",1,2.968,0,11
"739",9,"99B2",1,"easy","English",1,5.414,0,12
"740",9,"108B2",1,"difficult","English",1,3.074,0,13
"741",9,"52A2",1,"difficult","English",0,4.484,1,14
"742",9,"110B2",1,"difficult","English",1,3.108,0,15
"743",9,"105B2",1,"easy","English",1,3.969,0,16
"744",9,"53A2",1,"difficult","English",0,2.502,1,17
"745",9,"103B2",1,"easy","English",0,6.887,0,18
"746",9,"46A2",1,"easy","English",0,3.952,1,19
"747",9,"93B2",1,"difficult","English",1,3.373,0,20
"748",9,"94B2",1,"difficult","English",1,4.243,0,21
"749",9,"39A2",1,"difficult","English",1,3.116,1,22
"750",9,"112B2",1,"difficult","English",1,5.274,0,23
"751",9,"36A2",1,"difficult","English",1,3.291,1,24
"752",9,"98B2",1,"difficult","English",1,3.772,0,25
"753",9,"89B2",1,"easy","English",1,4.346,0,26
"754",9,"43A2",1,"easy","English",0,6.776,1,27
"755",9,"31A2",1,"easy","English",0,12.886,1,28
"756",9,"95B2",1,"difficult","English",1,2.487,0,29
"757",9,"85B2",1,"easy","English",0,6.011,0,30
"758",9,"33A2",1,"easy","English",1,3.359,1,31
"759",9,"107B2",1,"difficult","English",0,0.639,0,32
"760",9,"45A2",1,"easy","English",0,2.699,1,33
"761",9,"35A2",1,"easy","English",1,2.7,1,34
"762",9,"56A2",1,"difficult","English",1,3.34,1,35
"763",9,"51A2",1,"difficult","English",0,4.003,1,36
"764",9,"100B2",1,"easy","English",0,3.624,0,37
"765",9,"111B2",1,"difficult","English",1,1.868,0,38
"766",9,"97B2",1,"difficult","English",0,5.318,0,39
"767",9,"90B2",1,"easy","English",0,4.27,0,40
"768",9,"40A2",1,"difficult","English",0,3.503,1,42
"769",9,"37A2",1,"difficult","English",1,2.998,1,43
"770",9,"87B2",1,"easy","English",1,4.067,0,44
"771",9,"38A2",1,"difficult","English",0,3.086,1,45
"772",9,"55A2",1,"difficult","English",0,3.461,1,46
"773",9,"101B2",1,"easy","English",0,2.295,0,47
"774",9,"41A2",1,"difficult","English",1,3.656,1,49
"775",9,"102B2",1,"easy","English",0,5.311,0,51
"776",9,"91B2",1,"easy","English",1,4.751,0,52
"777",9,"92B2",1,"difficult","English",0,3.705,0,53
"778",9,"50A2",1,"difficult","English",1,2.249,1,54
"779",9,"106B2",1,"difficult","English",0,6.916,0,55
"780",9,"42A2",1,"difficult","English",0,5.633,1,56
"781",9,"54A2",1,"difficult","English",1,3.627,1,57
"782",9,"29A2",1,"easy","English",1,2.174,1,58
"783",9,"34A2",1,"easy","English",1,2.18,1,59
"784",9,"109B2",1,"difficult","English",0,5.577,0,60
"785",14,"51A2",1,"difficult","English",1,5.099,1,57
"786",14,"56A2",1,"difficult","English",1,8.66,1,58
"787",14,"53A2",1,"difficult","English",0,1.912,1,59
"788",14,"88B2",1,"easy","English",1,5.962,0,60
"789",14,"54A2",1,"difficult","English",0,5.328,1,61
"790",14,"29A2",1,"easy","English",1,2.954,1,63
"791",14,"30A2",1,"easy","English",0,6.707,1,64
"792",14,"47A2",1,"easy","English",1,7.846,1,65
"793",14,"86B2",1,"easy","English",0,2.651,0,66
"794",14,"98B2",1,"difficult","English",0,6.071,0,67
"795",14,"33A2",1,"easy","English",0,2.771,1,68
"796",14,"110B2",1,"difficult","English",0,7.354,0,69
"797",14,"32A2",1,"easy","English",1,1.802,1,70
"798",14,"111B2",1,"difficult","English",1,8.616,0,71
"799",14,"38A2",1,"difficult","English",1,3.014,1,72
"800",14,"37A2",1,"difficult","English",0,3.78,1,73
"801",14,"48A2",1,"easy","English",1,4.763,1,74
"802",14,"99B2",1,"easy","English",0,3.458,0,75
"803",14,"92B2",1,"difficult","English",0,5.677,0,76
"804",14,"97B2",1,"difficult","English",1,9.125,0,79
"805",14,"46A2",1,"easy","English",1,5.495,1,80
"806",14,"91B2",1,"easy","English",1,3.394,0,81
"807",14,"90B2",1,"easy","English",0,5.223,0,82
"808",14,"43A2",1,"easy","English",0,4.229,1,83
"809",14,"39A2",1,"difficult","English",1,1.857,1,84
"810",14,"106B2",1,"difficult","English",1,5.086,0,85
"811",14,"112B2",1,"difficult","English",1,2.665,0,86
"812",14,"101B2",1,"easy","English",0,2.197,0,87
"813",14,"85B2",1,"easy","English",1,3.58,0,88
"814",14,"89B2",1,"easy","English",1,4.499,0,89
"815",14,"35A2",1,"easy","English",0,4.333,1,90
"816",14,"44A2",1,"easy","English",0,3.542,1,91
"817",14,"94B2",1,"difficult","English",0,5.926,0,92
"818",14,"36A2",1,"difficult","English",1,1.848,1,93
"819",14,"108B2",1,"difficult","English",1,4.42,0,94
"820",14,"52A2",1,"difficult","English",1,2.93,1,95
"821",14,"42A2",1,"difficult","English",1,2.683,1,96
"822",14,"102B2",1,"easy","English",0,5.694,0,97
"823",14,"55A2",1,"difficult","English",1,5.769,1,98
"824",14,"96B2",1,"difficult","English",1,3.808,0,99
"825",14,"109B2",1,"difficult","English",1,4.654,0,100
"826",14,"104B2",1,"easy","English",0,4.808,0,101
"827",14,"87B2",1,"easy","English",0,3.262,0,102
"828",14,"49A2",1,"easy","English",1,5.148,1,104
"829",14,"31A2",1,"easy","English",0,8.797,1,105
"830",14,"95B2",1,"difficult","English",1,3.012,0,106
"831",14,"100B2",1,"easy","English",0,7.169,0,107
"832",14,"93B2",1,"difficult","English",1,4.057,0,108
"833",14,"40A2",1,"difficult","English",1,3.254,1,109
"834",14,"41A2",1,"difficult","English",1,2.626,1,110
"835",14,"103B2",1,"easy","English",0,2.912,0,111
"836",14,"45A2",1,"easy","English",0,3.97,1,112
"837",14,"107B2",1,"difficult","English",1,3.889,0,113
"838",14,"105B2",1,"easy","English",0,3.572,0,114
"839",14,"50A2",1,"difficult","English",1,2.148,1,115
"840",14,"34A2",1,"easy","English",1,2.573,1,116
"841",14,"58B1",1,"easy","English",1,3.71,0,1
"842",14,"63B1",1,"easy","English",1,4.025,0,2
"843",14,"57B1",1,"easy","English",0,6.753,0,4
"844",14,"62B1",1,"easy","English",0,4.553,0,5
"845",14,"81B1",1,"difficult","English",1,4.21,0,6
"846",14,"67B1",1,"difficult","English",1,5.216,0,7
"847",14,"59B1",1,"easy","English",1,4.197,0,9
"848",14,"68B1",1,"difficult","English",0,3.38,0,10
"849",14,"24A1",1,"difficult","English",0,7.795,1,11
"850",14,"79B1",1,"difficult","English",0,4.696,0,12
"851",14,"16A1",1,"easy","English",1,11.954,1,13
"852",14,"73B1",1,"easy","English",0,6.755,0,14
"853",14,"11A1",1,"difficult","English",1,6.73,1,15
"854",14,"74B1",1,"easy","English",0,7.963,0,16
"855",14,"17A1",1,"easy","English",0,2.668,1,17
"856",14,"10A1",1,"difficult","English",0,5.664,1,18
"857",14,"76B1",1,"easy","English",1,4.514,0,19
"858",14,"12A1",1,"difficult","English",0,0.821,1,20
"859",14,"66B1",1,"difficult","English",1,4.409,0,21
"860",14,"72B1",1,"easy","English",0,7.574,0,22
"861",14,"65B1",1,"difficult","English",1,4.257,0,24
"862",14,"18A1",1,"easy","English",0,11.013,1,25
"863",14,"15A1",1,"easy","English",1,3.963,1,26
"864",14,"20A1",1,"easy","English",1,3.212,1,27
"865",14,"80B1",1,"difficult","English",0,5.305,0,28
"866",14,"23A1",1,"difficult","English",1,2.875,1,29
"867",14,"83B1",1,"difficult","English",1,8.175,0,30
"868",14,"21A1",1,"easy","English",1,5.006,1,31
"869",14,"84B1",1,"difficult","English",1,2.613,0,32
"870",14,"64B1",1,"difficult","English",0,6.227,0,33
"871",14,"19A1",1,"easy","English",0,4.44,1,34
"872",14,"69B1",1,"difficult","English",0,10.157,0,35
"873",14,"82B1",1,"difficult","English",0,4.102,0,36
"874",14,"22A1",1,"difficult","English",1,8.553,1,37
"875",14,"26A1",1,"difficult","English",0,3.072,1,38
"876",14,"77B1",1,"easy","English",0,13.14,0,39
"877",14,"75B1",1,"easy","English",0,1.945,0,41
"878",14,"4A1",1,"easy","English",1,11.194,1,42
"879",14,"13A1",1,"difficult","English",1,3.609,1,43
"880",14,"71B1",1,"easy","English",0,4.031,0,44
"881",14,"25A1",1,"difficult","English",1,2.677,1,45
"882",14,"2A1",1,"easy","English",1,3.952,1,46
"883",14,"78B1",1,"difficult","English",1,3.737,0,47
"884",14,"3A1",1,"easy","English",1,3.329,1,48
"885",14,"1A1",1,"easy","English",1,2.683,1,49
"886",14,"9A1",1,"difficult","English",1,6.918,1,50
"887",14,"14A1",1,"difficult","English",1,2.936,1,51
"888",14,"70B1",1,"difficult","English",0,3.993,0,52
"889",14,"60B1",1,"easy","English",0,5.215,0,53
"890",14,"7A1",1,"easy","English",1,2.693,1,54
"891",14,"6A1",1,"easy","English",1,5.048,1,55
"892",14,"27A1",1,"difficult","English",1,3.468,1,56
"893",14,"5A1",1,"easy","English",1,2.39,1,57
"894",14,"28A1",1,"difficult","English",0,3.46,1,58
"895",14,"8A1",1,"difficult","English",1,2.374,1,59
"896",14,"61B1",1,"easy","English",1,4.603,0,60
"897",15,"54A2",1,"difficult","English",0,2.682,1,57
"898",15,"29A2",1,"easy","English",1,1.516,1,58
"899",15,"98B2",1,"difficult","English",1,1.549,0,59
"900",15,"112B2",1,"difficult","English",1,2.028,0,61
"901",15,"106B2",1,"difficult","English",0,2.715,0,63
"902",15,"86B2",1,"easy","English",1,0.837,0,64
"903",15,"51A2",1,"difficult","English",1,1.25,1,65
"904",15,"104B2",1,"easy","English",1,1.614,0,66
"905",15,"49A2",1,"easy","English",1,1.612,1,67
"906",15,"110B2",1,"difficult","English",0,15.073,0,68
"907",15,"52A2",1,"difficult","English",1,1.685,1,69
"908",15,"93B2",1,"difficult","English",1,1.976,0,70
"909",15,"36A2",1,"difficult","English",1,0.538,1,71
"910",15,"87B2",1,"easy","English",0,1.891,0,72
"911",15,"47A2",1,"easy","English",0,1.341,1,73
"912",15,"95B2",1,"difficult","English",1,2.709,0,74
"913",15,"85B2",1,"easy","English",0,1.495,0,75
"914",15,"34A2",1,"easy","English",1,1.345,1,76
"915",15,"31A2",1,"easy","English",1,1.56,1,77
"916",15,"99B2",1,"easy","English",0,2.983,0,78
"917",15,"107B2",1,"difficult","English",1,1.543,0,79
"918",15,"45A2",1,"easy","English",0,1.12,1,80
"919",15,"94B2",1,"difficult","English",0,2.058,0,81
"920",15,"105B2",1,"easy","English",0,2.854,0,82
"921",15,"38A2",1,"difficult","English",1,4.875,1,83
"922",15,"88B2",1,"easy","English",1,1.341,0,84
"923",15,"109B2",1,"difficult","English",0,1.653,0,85
"924",15,"56A2",1,"difficult","English",1,2.497,1,86
"925",15,"40A2",1,"difficult","English",1,1.86,1,87
"926",15,"90B2",1,"easy","English",1,5.99,0,89
"927",15,"111B2",1,"difficult","English",1,1.292,0,90
"928",15,"102B2",1,"easy","English",0,2.07,0,91
"929",15,"53A2",1,"difficult","English",0,1.498,1,92
"930",15,"101B2",1,"easy","English",1,3.436,0,93
"931",15,"35A2",1,"easy","English",1,11.706,1,94
"932",15,"108B2",1,"difficult","English",1,1.339,0,95
"933",15,"89B2",1,"easy","English",1,1.618,0,96
"934",15,"97B2",1,"difficult","English",1,1.127,0,97
"935",15,"32A2",1,"easy","English",1,0.549,1,98
"936",15,"103B2",1,"easy","English",0,1.901,0,99
"937",15,"39A2",1,"difficult","English",1,1.543,1,100
"938",15,"37A2",1,"difficult","English",1,2.278,1,101
"939",15,"30A2",1,"easy","English",1,1.849,1,102
"940",15,"50A2",1,"difficult","English",1,1.83,1,103
"941",15,"48A2",1,"easy","English",1,1.587,1,104
"942",15,"100B2",1,"easy","English",0,5.121,0,105
"943",15,"55A2",1,"difficult","English",1,1.354,1,106
"944",15,"42A2",1,"difficult","English",0,1.041,1,107
"945",15,"91B2",1,"easy","English",1,1.085,0,108
"946",15,"96B2",1,"difficult","English",1,1.591,0,109
"947",15,"92B2",1,"difficult","English",0,1.517,0,110
"948",15,"46A2",1,"easy","English",0,0.77,1,111
"949",15,"43A2",1,"easy","English",1,1.93,1,113
"950",15,"41A2",1,"difficult","English",1,1.458,1,114
"951",15,"44A2",1,"easy","English",0,2.894,1,115
"952",15,"33A2",1,"easy","English",1,8.048,1,116
"953",15,"67B1",1,"difficult","English",0,3.291,0,1
"954",15,"25A1",1,"difficult","English",0,1.63,1,2
"955",15,"18A1",1,"easy","English",0,1.306,1,3
"956",15,"60B1",1,"easy","English",1,3.932,0,4
"957",15,"70B1",1,"difficult","English",1,3.54,0,5
"958",15,"62B1",1,"easy","English",1,1.048,0,6
"959",15,"15A1",1,"easy","English",0,2.159,1,7
"960",15,"5A1",1,"easy","English",1,1.75,1,8
"961",15,"66B1",1,"difficult","English",0,1.615,0,9
"962",15,"71B1",1,"easy","English",0,1.355,0,10
"963",15,"84B1",1,"difficult","English",1,1.123,0,11
"964",15,"76B1",1,"easy","English",0,2.419,0,12
"965",15,"80B1",1,"difficult","English",0,3.663,0,13
"966",15,"1A1",1,"easy","English",1,1.314,1,14
"967",15,"26A1",1,"difficult","English",1,1.827,1,15
"968",15,"14A1",1,"difficult","English",1,1.335,1,16
"969",15,"78B1",1,"difficult","English",0,1.222,0,17
"970",15,"27A1",1,"difficult","English",0,1.627,1,18
"971",15,"81B1",1,"difficult","English",1,1.68,0,19
"972",15,"22A1",1,"difficult","English",0,0.626,1,22
"973",15,"58B1",1,"easy","English",1,1.71,0,23
"974",15,"23A1",1,"difficult","English",1,1.743,1,24
"975",15,"83B1",1,"difficult","English",0,2.543,0,25
"976",15,"64B1",1,"difficult","English",0,2.615,0,26
"977",15,"8A1",1,"difficult","English",1,1.789,1,27
"978",15,"21A1",1,"easy","English",0,1.091,1,28
"979",15,"12A1",1,"difficult","English",0,1.916,1,29
"980",15,"7A1",1,"easy","English",1,2.877,1,30
"981",15,"2A1",1,"easy","English",1,4.296,1,31
"982",15,"10A1",1,"difficult","English",0,1.529,1,32
"983",15,"57B1",1,"easy","English",1,2.745,0,33
"984",15,"72B1",1,"easy","English",0,1.569,0,34
"985",15,"73B1",1,"easy","English",0,1.192,0,35
"986",15,"61B1",1,"easy","English",1,9.981,0,36
"987",15,"19A1",1,"easy","English",0,0.624,1,37
"988",15,"59B1",1,"easy","English",1,4.276,0,38
"989",15,"16A1",1,"easy","English",0,1.543,1,39
"990",15,"6A1",1,"easy","English",1,2.591,1,40
"991",15,"28A1",1,"difficult","English",0,1.42,1,41
"992",15,"63B1",1,"easy","English",1,1.255,0,42
"993",15,"77B1",1,"easy","English",0,2.01,0,43
"994",15,"3A1",1,"easy","English",1,1.65,1,44
"995",15,"74B1",1,"easy","English",1,2.26,0,45
"996",15,"82B1",1,"difficult","English",0,1.459,0,46
"997",15,"65B1",1,"difficult","English",0,3.465,0,47
"998",15,"24A1",1,"difficult","English",0,3.287,1,48
"999",15,"68B1",1,"difficult","English",1,1.352,0,49
"1000",15,"9A1",1,"difficult","English",0,1.175,1,50
"1001",15,"11A1",1,"difficult","English",0,1.947,1,51
"1002",15,"4A1",1,"easy","English",0,3.249,1,52
"1003",15,"79B1",1,"difficult","English",1,3.611,0,53
"1004",15,"69B1",1,"difficult","English",1,6.697,0,55
"1005",15,"17A1",1,"easy","English",0,1.353,1,56
"1006",15,"75B1",1,"easy","English",0,1.405,0,57
"1007",15,"13A1",1,"difficult","English",0,5.328,1,58
"1008",15,"20A1",1,"easy","English",1,1.705,1,60
"1009",16,"50A2",1,"difficult","English",1,4.623,1,57
"1010",16,"54A2",1,"difficult","English",1,6.349,1,58
"1011",16,"112B2",1,"difficult","English",0,8.406,0,59
"1012",16,"95B2",1,"difficult","English",1,2.868,0,60
"1013",16,"43A2",1,"easy","English",0,3.344,1,61
"1014",16,"109B2",1,"difficult","English",0,4.969,0,62
"1015",16,"31A2",1,"easy","English",0,8.264,1,63
"1016",16,"102B2",1,"easy","English",0,6.604,0,64
"1017",16,"85B2",1,"easy","English",0,10.187,0,65
"1018",16,"86B2",1,"easy","English",1,2.274,0,66
"1019",16,"103B2",1,"easy","English",0,6.11,0,67
"1020",16,"37A2",1,"difficult","English",0,3.895,1,68
"1021",16,"48A2",1,"easy","English",1,3.618,1,69
"1022",16,"101B2",1,"easy","English",0,2.568,0,70
"1023",16,"35A2",1,"easy","English",1,2.503,1,71
"1024",16,"51A2",1,"difficult","English",1,4.961,1,72
"1025",16,"47A2",1,"easy","English",0,3.912,1,73
"1026",16,"29A2",1,"easy","English",1,2.114,1,74
"1027",16,"96B2",1,"difficult","English",1,4.316,0,75
"1028",16,"94B2",1,"difficult","English",0,9.325,0,76
"1029",16,"36A2",1,"difficult","English",1,5.421,1,77
"1030",16,"92B2",1,"difficult","English",0,10.1,0,78
"1031",16,"52A2",1,"difficult","English",1,7.694,1,79
"1032",16,"53A2",1,"difficult","English",1,4.401,1,80
"1033",16,"89B2",1,"easy","English",1,4.046,0,81
"1034",16,"56A2",1,"difficult","English",1,1.554,1,82
"1035",16,"45A2",1,"easy","English",0,3.01,1,83
"1036",16,"97B2",1,"difficult","English",1,5.392,0,84
"1037",16,"106B2",1,"difficult","English",1,6.911,0,85
"1038",16,"105B2",1,"easy","English",0,2.881,0,86
"1039",16,"90B2",1,"easy","English",1,4.1,0,87
"1040",16,"108B2",1,"difficult","English",0,3.909,0,88
"1041",16,"30A2",1,"easy","English",0,3.519,1,89
"1042",16,"104B2",1,"easy","English",0,5.313,0,91
"1043",16,"41A2",1,"difficult","English",1,1.715,1,92
"1044",16,"44A2",1,"easy","English",0,2.94,1,93
"1045",16,"42A2",1,"difficult","English",0,2.81,1,95
"1046",16,"91B2",1,"easy","English",1,5.235,0,97
"1047",16,"87B2",1,"easy","English",1,0.708,0,98
"1048",16,"111B2",1,"difficult","English",1,1.797,0,99
"1049",16,"88B2",1,"easy","English",1,4.524,0,100
"1050",16,"107B2",1,"difficult","English",0,6.213,0,101
"1051",16,"99B2",1,"easy","English",0,3.238,0,103
"1052",16,"55A2",1,"difficult","English",0,7.706,1,104
"1053",16,"98B2",1,"difficult","English",1,4.532,0,105
"1054",16,"40A2",1,"difficult","English",0,7.125,1,106
"1055",16,"39A2",1,"difficult","English",0,4.175,1,107
"1056",16,"38A2",1,"difficult","English",0,2.942,1,108
"1057",16,"32A2",1,"easy","English",1,2.311,1,109
"1058",16,"34A2",1,"easy","English",1,3.232,1,110
"1059",16,"49A2",1,"easy","English",1,5.532,1,111
"1060",16,"100B2",1,"easy","English",0,2.494,0,112
"1061",16,"93B2",1,"difficult","English",0,6.928,0,113
"1062",16,"33A2",1,"easy","English",1,2.657,1,114
"1063",16,"46A2",1,"easy","English",0,6.166,1,115
"1064",16,"110B2",1,"difficult","English",0,6.164,0,116
"1065",16,"84B1",1,"difficult","English",0,6.982,0,1
"1066",16,"14A1",1,"difficult","English",1,4.684,1,2
"1067",16,"22A1",1,"difficult","English",1,4.536,1,3
"1068",16,"26A1",1,"difficult","English",1,5.112,1,4
"1069",16,"28A1",1,"difficult","English",0,11.93,1,5
"1070",16,"67B1",1,"difficult","English",1,5.539,0,6
"1071",16,"7A1",1,"easy","English",1,10.395,1,8
"1072",16,"23A1",1,"difficult","English",0,14.745,1,9
"1073",16,"13A1",1,"difficult","English",1,4.905,1,10
"1074",16,"64B1",1,"difficult","English",0,4.947,0,11
"1075",16,"57B1",1,"easy","English",1,4.941,0,12
"1076",16,"11A1",1,"difficult","English",1,7.23,1,13
"1077",16,"61B1",1,"easy","English",1,3.123,0,14
"1078",16,"77B1",1,"easy","English",0,3.269,0,15
"1079",16,"73B1",1,"easy","English",1,5.489,0,16
"1080",16,"72B1",1,"easy","English",0,3.741,0,17
"1081",16,"58B1",1,"easy","English",0,9.27,0,18
"1082",16,"78B1",1,"difficult","English",1,4.77,0,19
"1083",16,"17A1",1,"easy","English",0,1.817,1,20
"1084",16,"66B1",1,"difficult","English",1,6.261,0,21
"1085",16,"65B1",1,"difficult","English",0,0.708,0,22
"1086",16,"71B1",1,"easy","English",0,2.325,0,23
"1087",16,"2A1",1,"easy","English",1,2.846,1,24
"1088",16,"15A1",1,"easy","English",0,7.843,1,25
"1089",16,"69B1",1,"difficult","English",0,4.2,0,26
"1090",16,"21A1",1,"easy","English",1,4.246,1,27
"1091",16,"74B1",1,"easy","English",1,5.635,0,28
"1092",16,"82B1",1,"difficult","English",0,4.122,0,30
"1093",16,"60B1",1,"easy","English",0,4.043,0,31
"1094",16,"68B1",1,"difficult","English",1,0.625,0,33
"1095",16,"76B1",1,"easy","English",0,5.741,0,34
"1096",16,"18A1",1,"easy","English",0,4.526,1,35
"1097",16,"19A1",1,"easy","English",0,4.159,1,37
"1098",16,"70B1",1,"difficult","English",1,5.479,0,38
"1099",16,"63B1",1,"easy","English",1,3.894,0,39
"1100",16,"10A1",1,"difficult","English",1,5.727,1,40
"1101",16,"9A1",1,"difficult","English",0,4.761,1,41
"1102",16,"83B1",1,"difficult","English",1,4.421,0,42
"1103",16,"5A1",1,"easy","English",1,3.721,1,43
"1104",16,"12A1",1,"difficult","English",1,5.12,1,44
"1105",16,"59B1",1,"easy","English",0,9.384,0,45
"1106",16,"20A1",1,"easy","English",1,5.268,1,46
"1107",16,"25A1",1,"difficult","English",0,17.543,1,47
"1108",16,"80B1",1,"difficult","English",1,6.39,0,48
"1109",16,"6A1",1,"easy","English",1,4.124,1,49
"1110",16,"16A1",1,"easy","English",0,5.124,1,50
"1111",16,"4A1",1,"easy","English",1,2.341,1,51
"1112",16,"75B1",1,"easy","English",1,3.448,0,52
"1113",16,"81B1",1,"difficult","English",0,8.454,0,53
"1114",16,"8A1",1,"difficult","English",1,4.113,1,54
"1115",16,"3A1",1,"easy","English",1,0.685,1,55
"1116",16,"27A1",1,"difficult","English",1,6.791,1,56
"1117",16,"62B1",1,"easy","English",1,5.499,0,57
"1118",16,"24A1",1,"difficult","English",0,4.448,1,58
"1119",16,"1A1",1,"easy","English",1,2.866,1,59
"1120",16,"79B1",1,"difficult","English",0,4.98,0,60
"1121",18,"109B2",1,"difficult","English",1,3.344,1,57
"1122",18,"31A2",1,"easy","English",1,2.495,0,58
"1123",18,"33A2",1,"easy","English",0,1.988,0,59
"1124",18,"46A2",1,"easy","English",0,1.2,0,60
"1125",18,"90B2",1,"easy","English",1,2.13,1,61
"1126",18,"94B2",1,"difficult","English",1,1.81,1,62
"1127",18,"48A2",1,"easy","English",0,0.564,0,63
"1128",18,"111B2",1,"difficult","English",1,0.985,1,64
"1129",18,"101B2",1,"easy","English",1,0.58,1,65
"1130",18,"108B2",1,"difficult","English",1,1.075,1,66
"1131",18,"99B2",1,"easy","English",0,2.999,1,68
"1132",18,"54A2",1,"difficult","English",1,2.365,0,69
"1133",18,"52A2",1,"difficult","English",0,1.584,0,70
"1134",18,"45A2",1,"easy","English",0,2.773,0,71
"1135",18,"87B2",1,"easy","English",0,1.778,1,72
"1136",18,"103B2",1,"easy","English",1,1.999,1,73
"1137",18,"110B2",1,"difficult","English",1,2.098,1,74
"1138",18,"43A2",1,"easy","English",0,16.483,0,75
"1139",18,"36A2",1,"difficult","English",0,3.428,0,76
"1140",18,"30A2",1,"easy","English",1,6.192,0,77
"1141",18,"102B2",1,"easy","English",0,2.046,1,78
"1142",18,"50A2",1,"difficult","English",0,1.643,0,79
"1143",18,"107B2",1,"difficult","English",1,0.566,1,80
"1144",18,"98B2",1,"difficult","English",0,1.652,1,81
"1145",18,"86B2",1,"easy","English",1,1.279,1,82
"1146",18,"51A2",1,"difficult","English",0,1.345,0,83
"1147",18,"49A2",1,"easy","English",0,1.14,0,84
"1148",18,"85B2",1,"easy","English",1,4.13,1,85
"1149",18,"35A2",1,"easy","English",0,1.679,0,86
"1150",18,"29A2",1,"easy","English",1,1.199,0,87
"1151",18,"91B2",1,"easy","English",1,1.411,1,88
"1152",18,"96B2",1,"difficult","English",1,1.527,1,89
"1153",18,"106B2",1,"difficult","English",1,0.399,1,90
"1154",18,"104B2",1,"easy","English",1,1.815,1,91
"1155",18,"42A2",1,"difficult","English",0,1.55,0,92
"1156",18,"112B2",1,"difficult","English",1,11.932,1,94
"1157",18,"40A2",1,"difficult","English",0,1.837,0,95
"1158",18,"37A2",1,"difficult","English",0,1.07,0,96
"1159",18,"100B2",1,"easy","English",0,2.105,1,97
"1160",18,"105B2",1,"easy","English",0,5.729,1,98
"1161",18,"53A2",1,"difficult","English",0,2.025,0,99
"1162",18,"38A2",1,"difficult","English",0,2.95,0,100
"1163",18,"97B2",1,"difficult","English",1,1.19,1,102
"1164",18,"56A2",1,"difficult","English",1,1.354,0,103
"1165",18,"93B2",1,"difficult","English",1,1.458,1,104
"1166",18,"55A2",1,"difficult","English",0,0.853,0,105
"1167",18,"34A2",1,"easy","English",1,1.905,0,106
"1168",18,"88B2",1,"easy","English",1,2.514,1,107
"1169",18,"95B2",1,"difficult","English",0,2.626,1,108
"1170",18,"44A2",1,"easy","English",0,1.774,0,109
"1171",18,"47A2",1,"easy","English",0,4.021,0,110
"1172",18,"32A2",1,"easy","English",1,1.794,0,111
"1173",18,"41A2",1,"difficult","English",1,6.972,0,113
"1174",18,"92B2",1,"difficult","English",1,2.572,1,114
"1175",18,"39A2",1,"difficult","English",1,1.44,0,115
"1176",18,"89B2",1,"easy","English",0,2.051,1,116
"1177",18,"8A1",1,"difficult","English",0,4.058,0,1
"1178",18,"22A1",1,"difficult","English",1,0.804,0,2
"1179",18,"5A1",1,"easy","English",1,0.849,0,3
"1180",18,"80B1",1,"difficult","English",0,0.612,1,4
"1181",18,"59B1",1,"easy","English",0,0.993,1,5
"1182",18,"57B1",1,"easy","English",0,0.717,1,6
"1183",18,"58B1",1,"easy","English",0,0.854,1,7
"1184",18,"75B1",1,"easy","English",0,1.472,1,8
"1185",18,"14A1",1,"difficult","English",1,0.985,0,9
"1186",18,"20A1",1,"easy","English",1,1.039,0,10
"1187",18,"11A1",1,"difficult","English",1,0.706,0,11
"1188",18,"78B1",1,"difficult","English",1,0.787,1,12
"1189",18,"84B1",1,"difficult","English",1,1.103,1,13
"1190",18,"16A1",1,"easy","English",0,1.272,0,14
"1191",18,"15A1",1,"easy","English",1,1.065,0,15
"1192",18,"7A1",1,"easy","English",1,2.468,0,16
"1193",18,"4A1",1,"easy","English",0,0.853,0,17
"1194",18,"81B1",1,"difficult","English",0,0.601,1,18
"1195",18,"9A1",1,"difficult","English",0,2.515,0,19
"1196",18,"76B1",1,"easy","English",0,1.66,1,20
"1197",18,"17A1",1,"easy","English",0,1.236,0,22
"1198",18,"28A1",1,"difficult","English",1,1.008,0,23
"1199",18,"27A1",1,"difficult","English",1,1.22,0,24
"1200",18,"18A1",1,"easy","English",1,1.599,0,25
"1201",18,"62B1",1,"easy","English",1,0.827,1,26
"1202",18,"66B1",1,"difficult","English",0,1.095,1,27
"1203",18,"23A1",1,"difficult","English",1,2.008,0,28
"1204",18,"74B1",1,"easy","English",1,1.785,1,29
"1205",18,"60B1",1,"easy","English",0,0.798,1,30
"1206",18,"67B1",1,"difficult","English",0,0.675,1,31
"1207",18,"68B1",1,"difficult","English",0,0.87,1,32
"1208",18,"2A1",1,"easy","English",1,0.961,0,33
"1209",18,"71B1",1,"easy","English",0,2.199,1,34
"1210",18,"77B1",1,"easy","English",1,3.347,1,36
"1211",18,"83B1",1,"difficult","English",0,0.895,1,37
"1212",18,"1A1",1,"easy","English",1,0.845,0,38
"1213",18,"24A1",1,"difficult","English",1,0.662,0,39
"1214",18,"19A1",1,"easy","English",0,1.102,0,40
"1215",18,"61B1",1,"easy","English",0,2.58,1,42
"1216",18,"63B1",1,"easy","English",1,0.718,1,43
"1217",18,"26A1",1,"difficult","English",1,0.956,0,44
"1218",18,"73B1",1,"easy","English",1,1.087,1,45
"1219",18,"82B1",1,"difficult","English",0,0.885,1,46
"1220",18,"10A1",1,"difficult","English",0,2.313,0,47
"1221",18,"65B1",1,"difficult","English",1,0.707,1,48
"1222",18,"21A1",1,"easy","English",0,1.346,0,49
"1223",18,"69B1",1,"difficult","English",0,1.023,1,50
"1224",18,"72B1",1,"easy","English",1,0.712,1,51
"1225",18,"79B1",1,"difficult","English",0,1.038,1,52
"1226",18,"70B1",1,"difficult","English",1,0.8,1,53
"1227",18,"13A1",1,"difficult","English",1,0.467,0,54
"1228",18,"12A1",1,"difficult","English",1,1.326,0,55
"1229",18,"3A1",1,"easy","English",0,0.466,0,56
"1230",18,"64B1",1,"difficult","English",0,3.805,1,57
"1231",18,"25A1",1,"difficult","English",0,1.065,0,58
"1232",18,"6A1",1,"easy","English",1,2.193,0,60
"1233",19,"59B1",1,"easy","English",0,11.143,0,57
"1234",19,"76B1",1,"easy","English",1,14.366,0,58
"1235",19,"28A1",1,"difficult","English",1,5.804,1,59
"1236",19,"13A1",1,"difficult","English",1,4.034,1,60
"1237",19,"12A1",1,"difficult","English",0,12.025,1,62
"1238",19,"71B1",1,"easy","English",0,8.629,0,63
"1239",19,"72B1",1,"easy","English",0,6.596,0,64
"1240",19,"20A1",1,"easy","English",1,9.986,1,65
"1241",19,"17A1",1,"easy","English",0,3.407,1,66
"1242",19,"67B1",1,"difficult","English",1,5.629,0,67
"1243",19,"21A1",1,"easy","English",1,3.664,1,68
"1244",19,"2A1",1,"easy","English",0,5.753,1,69
"1245",19,"3A1",1,"easy","English",1,3.029,1,71
"1246",19,"19A1",1,"easy","English",1,9.596,1,72
"1247",19,"73B1",1,"easy","English",0,4.922,0,73
"1248",19,"22A1",1,"difficult","English",1,4.358,1,74
"1249",19,"25A1",1,"difficult","English",1,1.829,1,75
"1250",19,"82B1",1,"difficult","English",1,7.223,0,76
"1251",19,"10A1",1,"difficult","English",1,7.204,1,77
"1252",19,"61B1",1,"easy","English",0,8.846,0,78
"1253",19,"60B1",1,"easy","English",1,7.825,0,79
"1254",19,"6A1",1,"easy","English",1,8.628,1,80
"1255",19,"15A1",1,"easy","English",0,10.471,1,81
"1256",19,"64B1",1,"difficult","English",0,5.586,0,82
"1257",19,"26A1",1,"difficult","English",1,2.503,1,83
"1258",19,"70B1",1,"difficult","English",1,8.91,0,84
"1259",19,"75B1",1,"easy","English",0,3.052,0,85
"1260",19,"81B1",1,"difficult","English",1,6.852,0,86
"1261",19,"66B1",1,"difficult","English",1,7.318,0,87
"1262",19,"69B1",1,"difficult","English",1,7.11,0,88
"1263",19,"18A1",1,"easy","English",0,6.974,1,89
"1264",19,"74B1",1,"easy","English",1,6.188,0,90
"1265",19,"79B1",1,"difficult","English",1,10.082,0,91
"1266",19,"24A1",1,"difficult","English",1,8.332,1,92
"1267",19,"68B1",1,"difficult","English",0,9.243,0,93
"1268",19,"57B1",1,"easy","English",1,4.668,0,95
"1269",19,"9A1",1,"difficult","English",0,0.453,1,96
"1270",19,"77B1",1,"easy","English",0,7.375,0,97
"1271",19,"1A1",1,"easy","English",1,3.64,1,98
"1272",19,"5A1",1,"easy","English",0,3.044,1,99
"1273",19,"58B1",1,"easy","English",1,9.275,0,100
"1274",19,"65B1",1,"difficult","English",1,9.237,0,101
"1275",19,"4A1",1,"easy","English",1,0.731,1,102
"1276",19,"11A1",1,"difficult","English",0,5.583,1,103
"1277",19,"80B1",1,"difficult","English",0,9.373,0,104
"1278",19,"84B1",1,"difficult","English",1,6.087,0,106
"1279",19,"14A1",1,"difficult","English",1,7.209,1,107
"1280",19,"7A1",1,"easy","English",1,6.159,1,108
"1281",19,"83B1",1,"difficult","English",1,11.988,0,109
"1282",19,"78B1",1,"difficult","English",1,9.451,0,110
"1283",19,"23A1",1,"difficult","English",1,8.239,1,111
"1284",19,"62B1",1,"easy","English",1,3.599,0,112
"1285",19,"16A1",1,"easy","English",1,6.804,1,113
"1286",19,"27A1",1,"difficult","English",0,12.025,1,114
"1287",19,"63B1",1,"easy","English",1,4.661,0,115
"1288",19,"8A1",1,"difficult","English",1,3.271,1,116
"1289",19,"49A2",1,"easy","English",1,11.539,1,1
"1290",19,"48A2",1,"easy","English",1,6.092,1,2
"1291",19,"46A2",1,"easy","English",1,8.198,1,3
"1292",19,"97B2",1,"difficult","English",1,6.5,0,4
"1293",19,"40A2",1,"difficult","English",0,9.662,1,5
"1294",19,"91B2",1,"easy","English",1,8.64,0,6
"1295",19,"41A2",1,"difficult","English",0,12.612,1,7
"1296",19,"42A2",1,"difficult","English",1,7.177,1,8
"1297",19,"106B2",1,"difficult","English",1,8.448,0,9
"1298",19,"95B2",1,"difficult","English",1,6.563,0,10
"1299",19,"96B2",1,"difficult","English",0,6.659,0,11
"1300",19,"108B2",1,"difficult","English",1,4.293,0,12
"1301",19,"38A2",1,"difficult","English",1,8.071,1,13
"1302",19,"99B2",1,"easy","English",0,3.891,0,14
"1303",19,"100B2",1,"easy","English",0,3.709,0,15
"1304",19,"43A2",1,"easy","English",0,9.214,1,16
"1305",19,"86B2",1,"easy","English",1,3.324,0,17
"1306",19,"89B2",1,"easy","English",1,6.948,0,18
"1307",19,"35A2",1,"easy","English",0,5.468,1,19
"1308",19,"47A2",1,"easy","English",1,4.096,1,20
"1309",19,"45A2",1,"easy","English",0,3.658,1,21
"1310",19,"88B2",1,"easy","English",1,6.62,0,22
"1311",19,"94B2",1,"difficult","English",1,4.89,0,23
"1312",19,"112B2",1,"difficult","English",0,5.492,0,24
"1313",19,"30A2",1,"easy","English",0,4.196,1,26
"1314",19,"107B2",1,"difficult","English",1,6.674,0,27
"1315",19,"44A2",1,"easy","English",0,5.796,1,30
"1316",19,"55A2",1,"difficult","English",1,5.515,1,31
"1317",19,"85B2",1,"easy","English",1,8.212,0,32
"1318",19,"105B2",1,"easy","English",0,5.657,0,33
"1319",19,"52A2",1,"difficult","English",0,5.365,1,34
"1320",19,"92B2",1,"difficult","English",1,8.932,0,35
"1321",19,"98B2",1,"difficult","English",0,4.341,0,36
"1322",19,"50A2",1,"difficult","English",1,7.413,1,37
"1323",19,"109B2",1,"difficult","English",1,8.642,0,38
"1324",19,"37A2",1,"difficult","English",0,7.286,1,39
"1325",19,"110B2",1,"difficult","English",0,8.009,0,40
"1326",19,"103B2",1,"easy","English",1,4.223,0,41
"1327",19,"104B2",1,"easy","English",1,0.65,0,42
"1328",19,"39A2",1,"difficult","English",1,2.868,1,43
"1329",19,"87B2",1,"easy","English",0,6.2,0,44
"1330",19,"36A2",1,"difficult","English",1,4.221,1,45
"1331",19,"54A2",1,"difficult","English",0,6.658,1,46
"1332",19,"111B2",1,"difficult","English",1,4.318,0,47
"1333",19,"51A2",1,"difficult","English",1,3.679,1,48
"1334",19,"32A2",1,"easy","English",1,3.346,1,49
"1335",19,"102B2",1,"easy","English",1,5.786,0,50
"1336",19,"53A2",1,"difficult","English",1,3.096,1,51
"1337",19,"29A2",1,"easy","English",0,2.794,1,52
"1338",19,"34A2",1,"easy","English",1,4.296,1,53
"1339",19,"33A2",1,"easy","English",1,4.665,1,54
"1340",19,"31A2",1,"easy","English",0,5.156,1,55
"1341",19,"93B2",1,"difficult","English",1,0.55,0,57
"1342",19,"101B2",1,"easy","English",1,3.469,0,58
"1343",19,"56A2",1,"difficult","English",1,4.016,1,59
"1344",19,"90B2",1,"easy","English",1,4.165,0,60
"1345",25,"87B2",1,"easy","English",0,9.436,1,58
"1346",25,"29A2",1,"easy","English",1,3.209,0,59
"1347",25,"110B2",1,"difficult","English",1,7.767,1,60
"1348",25,"92B2",1,"difficult","English",0,12.247,1,61
"1349",25,"100B2",1,"easy","English",0,3.212,1,62
"1350",25,"41A2",1,"difficult","English",0,10.65,0,63
"1351",25,"51A2",1,"difficult","English",1,4.862,0,64
"1352",25,"101B2",1,"easy","English",0,3.098,1,65
"1353",25,"48A2",1,"easy","English",0,4.525,0,66
"1354",25,"86B2",1,"easy","English",1,7.567,1,67
"1355",25,"105B2",1,"easy","English",0,4.038,1,68
"1356",25,"103B2",1,"easy","English",0,12.915,1,69
"1357",25,"34A2",1,"easy","English",0,8.476,0,70
"1358",25,"56A2",1,"difficult","English",1,6.511,0,71
"1359",25,"42A2",1,"difficult","English",0,11.76,0,72
"1360",25,"107B2",1,"difficult","English",0,8.207,1,73
"1361",25,"93B2",1,"difficult","English",1,4.534,1,74
"1362",25,"50A2",1,"difficult","English",0,12.023,0,75
"1363",25,"111B2",1,"difficult","English",1,6.533,1,76
"1364",25,"102B2",1,"easy","English",0,9.902,1,77
"1365",25,"30A2",1,"easy","English",0,8.191,0,78
"1366",25,"98B2",1,"difficult","English",1,3.126,1,79
"1367",25,"104B2",1,"easy","English",0,7.775,1,81
"1368",25,"54A2",1,"difficult","English",1,6.903,0,82
"1369",25,"40A2",1,"difficult","English",0,10.881,0,83
"1370",25,"44A2",1,"easy","English",0,14.293,0,84
"1371",25,"97B2",1,"difficult","English",1,2.016,1,85
"1372",25,"95B2",1,"difficult","English",1,2.486,1,86
"1373",25,"31A2",1,"easy","English",1,21.135,0,87
"1374",25,"88B2",1,"easy","English",1,2.752,1,88
"1375",25,"46A2",1,"easy","English",0,4.993,0,89
"1376",25,"52A2",1,"difficult","English",0,12.088,0,90
"1377",25,"89B2",1,"easy","English",1,3.763,1,91
"1378",25,"39A2",1,"difficult","English",1,6.819,0,92
"1379",25,"99B2",1,"easy","English",0,3.853,1,94
"1380",25,"91B2",1,"easy","English",0,7.089,1,95
"1381",25,"90B2",1,"easy","English",1,17.452,1,96
"1382",25,"109B2",1,"difficult","English",1,6.457,1,97
"1383",25,"45A2",1,"easy","English",0,4.845,0,98
"1384",25,"53A2",1,"difficult","English",1,3.362,0,99
"1385",25,"47A2",1,"easy","English",0,6.945,0,100
"1386",25,"35A2",1,"easy","English",0,7.426,0,101
"1387",25,"106B2",1,"difficult","English",0,7.758,1,102
"1388",25,"55A2",1,"difficult","English",0,5.879,0,103
"1389",25,"49A2",1,"easy","English",1,6.867,0,104
"1390",25,"33A2",1,"easy","English",1,2.455,0,105
"1391",25,"96B2",1,"difficult","English",1,2.994,1,107
"1392",25,"38A2",1,"difficult","English",0,6.294,0,108
"1393",25,"37A2",1,"difficult","English",1,9.057,0,109
"1394",25,"32A2",1,"easy","English",1,6.013,0,110
"1395",25,"85B2",1,"easy","English",0,9.266,1,111
"1396",25,"94B2",1,"difficult","English",0,5.365,1,112
"1397",25,"112B2",1,"difficult","English",0,5.772,1,113
"1398",25,"108B2",1,"difficult","English",1,12.308,1,114
"1399",25,"36A2",1,"difficult","English",0,8.982,0,115
"1400",25,"43A2",1,"easy","English",1,8.109,0,116
"1401",25,"8A1",1,"difficult","English",1,15.221,0,1
"1402",25,"22A1",1,"difficult","English",1,8.906,0,2
"1403",25,"76B1",1,"easy","English",0,7.619,1,3
"1404",25,"12A1",1,"difficult","English",1,3.992,0,4
"1405",25,"72B1",1,"easy","English",0,3.166,1,5
"1406",25,"82B1",1,"difficult","English",1,2.95,1,6
"1407",25,"10A1",1,"difficult","English",0,5.494,0,7
"1408",25,"79B1",1,"difficult","English",1,7.376,1,8
"1409",25,"77B1",1,"easy","English",1,6.695,1,9
"1410",25,"19A1",1,"easy","English",0,4.36,0,10
"1411",25,"25A1",1,"difficult","English",0,6.383,0,11
"1412",25,"24A1",1,"difficult","English",1,4.589,0,13
"1413",25,"18A1",1,"easy","English",0,5.892,0,14
"1414",25,"84B1",1,"difficult","English",0,3.358,1,15
"1415",25,"74B1",1,"easy","English",1,7.494,1,16
"1416",25,"63B1",1,"easy","English",1,6.623,1,17
"1417",25,"1A1",1,"easy","English",1,2.693,0,18
"1418",25,"5A1",1,"easy","English",1,3.695,0,19
"1419",25,"13A1",1,"difficult","English",1,11.401,0,20
"1420",25,"9A1",1,"difficult","English",0,7.175,0,21
"1421",25,"80B1",1,"difficult","English",0,6.445,1,22
"1422",25,"28A1",1,"difficult","English",0,5.513,0,23
"1423",25,"11A1",1,"difficult","English",0,8.298,0,24
"1424",25,"17A1",1,"easy","English",0,3.748,0,25
"1425",25,"78B1",1,"difficult","English",1,5.564,1,26
"1426",25,"58B1",1,"easy","English",1,5.588,1,27
"1427",25,"4A1",1,"easy","English",1,4.474,0,28
"1428",25,"27A1",1,"difficult","English",0,6.453,0,29
"1429",25,"64B1",1,"difficult","English",0,7.641,1,30
"1430",25,"60B1",1,"easy","English",1,3.453,1,31
"1431",25,"7A1",1,"easy","English",1,6.569,0,32
"1432",25,"15A1",1,"easy","English",0,4.896,0,33
"1433",25,"14A1",1,"difficult","English",1,6.073,0,34
"1434",25,"65B1",1,"difficult","English",0,6.284,1,35
"1435",25,"16A1",1,"easy","English",0,13.463,0,36
"1436",25,"75B1",1,"easy","English",0,2.626,1,37
"1437",25,"69B1",1,"difficult","English",1,6.254,1,38
"1438",25,"68B1",1,"difficult","English",0,3.994,1,39
"1439",25,"6A1",1,"easy","English",1,3.281,0,40
"1440",25,"81B1",1,"difficult","English",1,10.951,1,42
"1441",25,"59B1",1,"easy","English",1,3.368,1,43
"1442",25,"66B1",1,"difficult","English",0,5.184,1,44
"1443",25,"21A1",1,"easy","English",0,3.52,0,45
"1444",25,"57B1",1,"easy","English",1,4.505,1,46
"1445",25,"3A1",1,"easy","English",1,5.027,0,47
"1446",25,"62B1",1,"easy","English",0,1.049,1,48
"1447",25,"61B1",1,"easy","English",1,3.029,1,50
"1448",25,"67B1",1,"difficult","English",0,4.114,1,51
"1449",25,"71B1",1,"easy","English",0,3.524,1,52
"1450",25,"23A1",1,"difficult","English",0,4.878,0,53
"1451",25,"20A1",1,"easy","English",0,8.369,0,54
"1452",25,"73B1",1,"easy","English",0,6.929,1,55
"1453",25,"2A1",1,"easy","English",1,2.939,0,56
"1454",25,"26A1",1,"difficult","English",0,9.388,0,57
"1455",25,"83B1",1,"difficult","English",0,8.994,1,58
"1456",25,"70B1",1,"difficult","English",0,7.553,1,59
"1457",26,"86B2",1,"easy","English",1,3.362,0,57
"1458",26,"35A2",1,"easy","English",1,4.617,1,58
"1459",26,"96B2",1,"difficult","English",0,4.999,0,59
"1460",26,"94B2",1,"difficult","English",1,7.196,0,60
"1461",26,"111B2",1,"difficult","English",0,4.242,0,61
"1462",26,"53A2",1,"difficult","English",1,2.175,1,62
"1463",26,"90B2",1,"easy","English",1,3.479,0,63
"1464",26,"42A2",1,"difficult","English",0,4.642,1,64
"1465",26,"109B2",1,"difficult","English",1,0.768,0,65
"1466",26,"36A2",1,"difficult","English",0,5.742,1,66
"1467",26,"91B2",1,"easy","English",0,11.686,0,67
"1468",26,"103B2",1,"easy","English",0,2.77,0,68
"1469",26,"100B2",1,"easy","English",0,2.186,0,69
"1470",26,"55A2",1,"difficult","English",0,5.377,1,70
"1471",26,"89B2",1,"easy","English",1,5.985,0,71
"1472",26,"93B2",1,"difficult","English",1,3.999,0,72
"1473",26,"49A2",1,"easy","English",0,2.686,1,73
"1474",26,"105B2",1,"easy","English",0,3.64,0,74
"1475",26,"56A2",1,"difficult","English",0,13.524,1,75
"1476",26,"51A2",1,"difficult","English",0,3.213,1,76
"1477",26,"45A2",1,"easy","English",0,3.683,1,77
"1478",26,"87B2",1,"easy","English",1,3.712,0,79
"1479",26,"39A2",1,"difficult","English",1,2.69,1,80
"1480",26,"98B2",1,"difficult","English",1,3.413,0,82
"1481",26,"41A2",1,"difficult","English",1,2.05,1,83
"1482",26,"38A2",1,"difficult","English",1,2.134,1,84
"1483",26,"88B2",1,"easy","English",1,4.032,0,85
"1484",26,"112B2",1,"difficult","English",0,5.572,0,86
"1485",26,"110B2",1,"difficult","English",1,8.387,0,87
"1486",26,"32A2",1,"easy","English",1,2.435,1,88
"1487",26,"106B2",1,"difficult","English",0,8.088,0,89
"1488",26,"29A2",1,"easy","English",1,3.146,1,90
"1489",26,"31A2",1,"easy","English",1,12.186,1,91
"1490",26,"107B2",1,"difficult","English",0,7.058,0,92
"1491",26,"52A2",1,"difficult","English",0,3.742,1,93
"1492",26,"47A2",1,"easy","English",0,2.919,1,94
"1493",26,"101B2",1,"easy","English",0,2.257,0,95
"1494",26,"104B2",1,"easy","English",1,4.085,0,96
"1495",26,"40A2",1,"difficult","English",1,4.086,1,97
"1496",26,"37A2",1,"difficult","English",1,7.785,1,98
"1497",26,"43A2",1,"easy","English",0,3.734,1,100
"1498",26,"33A2",1,"easy","English",1,2.643,1,102
"1499",26,"30A2",1,"easy","English",0,2.342,1,103
"1500",26,"92B2",1,"difficult","English",0,7.143,0,104
"1501",26,"44A2",1,"easy","English",0,1.944,1,105
"1502",26,"34A2",1,"easy","English",1,1.839,1,106
"1503",26,"108B2",1,"difficult","English",1,5.229,0,107
"1504",26,"102B2",1,"easy","English",0,4.865,0,108
"1505",26,"50A2",1,"difficult","English",0,2.828,1,109
"1506",26,"97B2",1,"difficult","English",0,2.954,0,110
"1507",26,"48A2",1,"easy","English",1,2.811,1,111
"1508",26,"46A2",1,"easy","English",1,2.457,1,112
"1509",26,"95B2",1,"difficult","English",0,3.085,0,113
"1510",26,"54A2",1,"difficult","English",1,4.871,1,114
"1511",26,"85B2",1,"easy","English",1,4.81,0,115
"1512",26,"99B2",1,"easy","English",0,3.503,0,116
"1513",26,"15A1",1,"easy","English",1,3.18,1,1
"1514",26,"8A1",1,"difficult","English",0,5.85,1,2
"1515",26,"68B1",1,"difficult","English",0,2.694,0,3
"1516",26,"60B1",1,"easy","English",1,3.864,0,4
"1517",26,"62B1",1,"easy","English",1,3.611,0,5
"1518",26,"16A1",1,"easy","English",0,3.793,1,6
"1519",26,"79B1",1,"difficult","English",0,3.774,0,7
"1520",26,"70B1",1,"difficult","English",1,3.797,0,8
"1521",26,"20A1",1,"easy","English",1,3.202,1,9
"1522",26,"84B1",1,"difficult","English",1,5.519,0,10
"1523",26,"2A1",1,"easy","English",1,0.681,1,11
"1524",26,"4A1",1,"easy","English",1,3.114,1,12
"1525",26,"12A1",1,"difficult","English",1,5.307,1,13
"1526",26,"18A1",1,"easy","English",1,3.949,1,14
"1527",26,"82B1",1,"difficult","English",1,2.541,0,16
"1528",26,"63B1",1,"easy","English",1,2.981,0,17
"1529",26,"10A1",1,"difficult","English",0,4.004,1,18
"1530",26,"65B1",1,"difficult","English",0,4.849,0,19
"1531",26,"11A1",1,"difficult","English",1,3.277,1,20
"1532",26,"57B1",1,"easy","English",1,4.36,0,21
"1533",26,"25A1",1,"difficult","English",1,8.711,1,22
"1534",26,"23A1",1,"difficult","English",0,4.128,1,23
"1535",26,"27A1",1,"difficult","English",1,2.665,1,24
"1536",26,"9A1",1,"difficult","English",0,5.716,1,25
"1537",26,"74B1",1,"easy","English",1,4.413,0,26
"1538",26,"66B1",1,"difficult","English",0,2.723,0,27
"1539",26,"69B1",1,"difficult","English",0,5.57,0,28
"1540",26,"76B1",1,"easy","English",0,2.961,0,30
"1541",26,"64B1",1,"difficult","English",0,2.121,0,31
"1542",26,"72B1",1,"easy","English",0,3.633,0,32
"1543",26,"21A1",1,"easy","English",1,4.685,1,34
"1544",26,"14A1",1,"difficult","English",1,3.919,1,35
"1545",26,"17A1",1,"easy","English",0,2.12,1,36
"1546",26,"61B1",1,"easy","English",1,4.201,0,37
"1547",26,"19A1",1,"easy","English",0,3.071,1,38
"1548",26,"71B1",1,"easy","English",0,2.522,0,39
"1549",26,"13A1",1,"difficult","English",0,3.082,1,40
"1550",26,"67B1",1,"difficult","English",1,3.556,0,41
"1551",26,"7A1",1,"easy","English",1,2.844,1,42
"1552",26,"80B1",1,"difficult","English",0,4.488,0,43
"1553",26,"3A1",1,"easy","English",1,2.818,1,44
"1554",26,"1A1",1,"easy","English",0,2.831,1,45
"1555",26,"24A1",1,"difficult","English",1,10.883,1,46
"1556",26,"6A1",1,"easy","English",1,5.205,1,47
"1557",26,"5A1",1,"easy","English",1,2.467,1,48
"1558",26,"26A1",1,"difficult","English",0,4.029,1,49
"1559",26,"73B1",1,"easy","English",1,0.685,0,50
"1560",26,"81B1",1,"difficult","English",1,6.816,0,51
"1561",26,"75B1",1,"easy","English",0,2.301,0,52
"1562",26,"78B1",1,"difficult","English",1,2.655,0,53
"1563",26,"83B1",1,"difficult","English",1,4.819,0,54
"1564",26,"77B1",1,"easy","English",0,3.384,0,55
"1565",26,"22A1",1,"difficult","English",0,7.103,1,56
"1566",26,"59B1",1,"easy","English",1,3.137,0,57
"1567",26,"28A1",1,"difficult","English",1,3.073,1,59
"1568",26,"58B1",1,"easy","English",1,2.596,0,60
"1569",28,"15A1",1,"easy","English",0,5.822,0,57
"1570",28,"62B1",1,"easy","English",1,5.021,1,58
"1571",28,"66B1",1,"difficult","English",1,3.283,1,59
"1572",28,"59B1",1,"easy","English",1,1.925,1,60
"1573",28,"23A1",1,"difficult","English",0,8.535,0,61
"1574",28,"69B1",1,"difficult","English",1,10.256,1,62
"1575",28,"13A1",1,"difficult","English",0,5.476,0,63
"1576",28,"1A1",1,"easy","English",1,3.535,0,64
"1577",28,"7A1",1,"easy","English",1,5.615,0,65
"1578",28,"65B1",1,"difficult","English",0,1.676,1,66
"1579",28,"76B1",1,"easy","English",0,1.845,1,67
"1580",28,"58B1",1,"easy","English",0,3.664,1,68
"1581",28,"10A1",1,"difficult","English",0,5.596,0,69
"1582",28,"19A1",1,"easy","English",1,6.443,0,70
"1583",28,"4A1",1,"easy","English",1,4.519,0,71
"1584",28,"70B1",1,"difficult","English",1,3.279,1,72
"1585",28,"8A1",1,"difficult","English",1,3.145,0,73
"1586",28,"6A1",1,"easy","English",1,5.49,0,74
"1587",28,"2A1",1,"easy","English",1,3.613,0,75
"1588",28,"73B1",1,"easy","English",1,1.978,1,76
"1589",28,"60B1",1,"easy","English",1,4.393,1,77
"1590",28,"64B1",1,"difficult","English",0,2.168,1,78
"1591",28,"9A1",1,"difficult","English",0,13.744,0,79
"1592",28,"20A1",1,"easy","English",0,15.335,0,81
"1593",28,"74B1",1,"easy","English",1,2.001,1,82
"1594",28,"68B1",1,"difficult","English",0,5.311,1,83
"1595",28,"83B1",1,"difficult","English",1,2.977,1,84
"1596",28,"24A1",1,"difficult","English",0,15.169,0,85
"1597",28,"80B1",1,"difficult","English",0,6.296,1,86
"1598",28,"14A1",1,"difficult","English",1,9.147,0,87
"1599",28,"57B1",1,"easy","English",1,2.9,1,88
"1600",28,"61B1",1,"easy","English",1,3.013,1,90
"1601",28,"78B1",1,"difficult","English",0,7.811,1,91
"1602",28,"22A1",1,"difficult","English",0,15.488,0,92
"1603",28,"81B1",1,"difficult","English",1,4.979,1,93
"1604",28,"16A1",1,"easy","English",1,7.298,0,94
"1605",28,"67B1",1,"difficult","English",1,2.261,1,95
"1606",28,"5A1",1,"easy","English",0,4.977,0,96
"1607",28,"82B1",1,"difficult","English",0,6.04,1,97
"1608",28,"21A1",1,"easy","English",1,5.67,0,98
"1609",28,"84B1",1,"difficult","English",1,6.673,1,99
"1610",28,"71B1",1,"easy","English",1,10.108,1,100
"1611",28,"79B1",1,"difficult","English",1,6.374,1,101
"1612",28,"18A1",1,"easy","English",1,10.95,0,102
"1613",28,"75B1",1,"easy","English",1,2.711,1,103
"1614",28,"77B1",1,"easy","English",0,4.369,1,104
"1615",28,"28A1",1,"difficult","English",1,5.025,0,105
"1616",28,"72B1",1,"easy","English",0,4.814,1,106
"1617",28,"12A1",1,"difficult","English",0,8.364,0,107
"1618",28,"3A1",1,"easy","English",1,3.06,0,108
"1619",28,"63B1",1,"easy","English",1,2.64,1,109
"1620",28,"11A1",1,"difficult","English",0,8.571,0,111
"1621",28,"27A1",1,"difficult","English",0,5.651,0,112
"1622",28,"17A1",1,"easy","English",0,2.096,0,114
"1623",28,"26A1",1,"difficult","English",0,4.129,0,115
"1624",28,"25A1",1,"difficult","English",0,3.69,0,116
"1625",28,"103B2",1,"easy","English",0,6.903,1,1
"1626",28,"33A2",1,"easy","English",1,3.698,0,2
"1627",28,"95B2",1,"difficult","English",1,2.316,1,3
"1628",28,"56A2",1,"difficult","English",1,2.67,0,4
"1629",28,"42A2",1,"difficult","English",0,10.554,0,5
"1630",28,"93B2",1,"difficult","English",1,4.448,1,7
"1631",28,"30A2",1,"easy","English",1,7.396,0,8
"1632",28,"94B2",1,"difficult","English",1,5.218,1,9
"1633",28,"29A2",1,"easy","English",0,3.537,0,10
"1634",28,"100B2",1,"easy","English",1,5.729,1,11
"1635",28,"38A2",1,"difficult","English",0,6.439,0,13
"1636",28,"39A2",1,"difficult","English",0,1.773,0,14
"1637",28,"45A2",1,"easy","English",0,1.358,0,15
"1638",28,"52A2",1,"difficult","English",1,8.302,0,16
"1639",28,"110B2",1,"difficult","English",1,5.152,1,17
"1640",28,"85B2",1,"easy","English",1,14.169,1,18
"1641",28,"96B2",1,"difficult","English",1,2.953,1,19
"1642",28,"53A2",1,"difficult","English",1,4.13,0,20
"1643",28,"101B2",1,"easy","English",0,2.714,1,21
"1644",28,"32A2",1,"easy","English",1,3.578,0,22
"1645",28,"105B2",1,"easy","English",1,10.601,1,23
"1646",28,"55A2",1,"difficult","English",1,0.617,0,24
"1647",28,"49A2",1,"easy","English",1,9.198,0,25
"1648",28,"31A2",1,"easy","English",0,4.453,0,26
"1649",28,"47A2",1,"easy","English",0,2.208,0,27
"1650",28,"91B2",1,"easy","English",1,3.934,1,28
"1651",28,"98B2",1,"difficult","English",1,8.456,1,29
"1652",28,"48A2",1,"easy","English",0,2.733,0,30
"1653",28,"89B2",1,"easy","English",1,4.062,1,31
"1654",28,"35A2",1,"easy","English",1,3.002,0,32
"1655",28,"46A2",1,"easy","English",0,4.032,0,33
"1656",28,"106B2",1,"difficult","English",1,13.729,1,35
"1657",28,"109B2",1,"difficult","English",0,4.866,1,36
"1658",28,"102B2",1,"easy","English",0,4.158,1,37
"1659",28,"54A2",1,"difficult","English",1,5.677,0,38
"1660",28,"87B2",1,"easy","English",1,2.235,1,39
"1661",28,"37A2",1,"difficult","English",1,4.704,0,40
"1662",28,"92B2",1,"difficult","English",0,8.889,1,41
"1663",28,"34A2",1,"easy","English",1,3.427,0,42
"1664",28,"90B2",1,"easy","English",1,4.352,1,43
"1665",28,"86B2",1,"easy","English",0,7.679,1,44
"1666",28,"111B2",1,"difficult","English",1,4.171,1,45
"1667",28,"99B2",1,"easy","English",0,2.706,1,46
"1668",28,"50A2",1,"difficult","English",1,1.83,0,47
"1669",28,"97B2",1,"difficult","English",1,2.13,1,48
"1670",28,"36A2",1,"difficult","English",0,4.338,0,49
"1671",28,"104B2",1,"easy","English",0,7.01,1,50
"1672",28,"88B2",1,"easy","English",1,4.721,1,51
"1673",28,"44A2",1,"easy","English",0,3.051,0,52
"1674",28,"108B2",1,"difficult","English",0,9.799,1,53
"1675",28,"40A2",1,"difficult","English",0,6.404,0,55
"1676",28,"43A2",1,"easy","English",0,0.809,0,56
"1677",28,"107B2",1,"difficult","English",1,4.999,1,57
"1678",28,"41A2",1,"difficult","English",1,8.989,0,58
"1679",28,"112B2",1,"difficult","English",0,10.162,1,59
"1680",28,"51A2",1,"difficult","English",1,3.01,0,60
"1681",32,"58B1",1,"easy","English",1,3.923,0,57
"1682",32,"28A1",1,"difficult","English",1,3.616,1,58
"1683",32,"6A1",1,"easy","English",1,4.224,1,59
"1684",32,"79B1",1,"difficult","English",1,5.61,0,60
"1685",32,"13A1",1,"difficult","English",1,1.964,1,61
"1686",32,"14A1",1,"difficult","English",1,3.194,1,62
"1687",32,"64B1",1,"difficult","English",0,1.822,0,63
"1688",32,"24A1",1,"difficult","English",1,7.73,1,64
"1689",32,"1A1",1,"easy","English",1,1.705,1,65
"1690",32,"25A1",1,"difficult","English",0,7.256,1,67
"1691",32,"65B1",1,"difficult","English",0,4.931,0,68
"1692",32,"76B1",1,"easy","English",0,5.283,0,69
"1693",32,"62B1",1,"easy","English",1,2.911,0,70
"1694",32,"66B1",1,"difficult","English",1,7.108,0,71
"1695",32,"22A1",1,"difficult","English",1,4.764,1,72
"1696",32,"20A1",1,"easy","English",1,6.203,1,73
"1697",32,"17A1",1,"easy","English",0,1.504,1,74
"1698",32,"23A1",1,"difficult","English",1,2.441,1,75
"1699",32,"77B1",1,"easy","English",0,2.597,0,76
"1700",32,"26A1",1,"difficult","English",1,2.454,1,77
"1701",32,"21A1",1,"easy","English",0,1.384,1,78
"1702",32,"8A1",1,"difficult","English",0,2.859,1,79
"1703",32,"71B1",1,"easy","English",0,2.156,0,80
"1704",32,"78B1",1,"difficult","English",1,8.802,0,81
"1705",32,"63B1",1,"easy","English",1,3.307,0,84
"1706",32,"69B1",1,"difficult","English",1,5.813,0,85
"1707",32,"70B1",1,"difficult","English",0,3.291,0,86
"1708",32,"72B1",1,"easy","English",0,0.669,0,87
"1709",32,"60B1",1,"easy","English",1,0.624,0,88
"1710",32,"18A1",1,"easy","English",0,2.397,1,89
"1711",32,"27A1",1,"difficult","English",1,2.16,1,90
"1712",32,"19A1",1,"easy","English",0,0.587,1,91
"1713",32,"2A1",1,"easy","English",1,1.646,1,92
"1714",32,"83B1",1,"difficult","English",1,4.728,0,93
"1715",32,"10A1",1,"difficult","English",1,4.167,1,94
"1716",32,"3A1",1,"easy","English",0,6.709,1,95
"1717",32,"11A1",1,"difficult","English",0,1.894,1,96
"1718",32,"80B1",1,"difficult","English",0,3.475,0,97
"1719",32,"81B1",1,"difficult","English",1,4.469,0,98
"1720",32,"7A1",1,"easy","English",1,5.092,1,99
"1721",32,"68B1",1,"difficult","English",1,1.82,0,100
"1722",32,"15A1",1,"easy","English",0,1.52,1,101
"1723",32,"4A1",1,"easy","English",1,2.848,1,102
"1724",32,"74B1",1,"easy","English",1,1.995,0,103
"1725",32,"67B1",1,"difficult","English",1,2.736,0,104
"1726",32,"82B1",1,"difficult","English",1,3.117,0,106
"1727",32,"12A1",1,"difficult","English",1,5.181,1,107
"1728",32,"5A1",1,"easy","English",1,1.394,1,108
"1729",32,"75B1",1,"easy","English",0,4.886,0,109
"1730",32,"9A1",1,"difficult","English",0,3.232,1,110
"1731",32,"57B1",1,"easy","English",1,3.155,0,111
"1732",32,"73B1",1,"easy","English",0,0.71,0,112
"1733",32,"61B1",1,"easy","English",1,2.639,0,113
"1734",32,"59B1",1,"easy","English",1,3.649,0,114
"1735",32,"16A1",1,"easy","English",0,2.3,1,115
"1736",32,"84B1",1,"difficult","English",0,6.549,0,116
"1737",32,"56A2",1,"difficult","English",0,12.423,1,2
"1738",32,"93B2",1,"difficult","English",0,8.434,0,3
"1739",32,"99B2",1,"easy","English",0,2.194,0,4
"1740",32,"101B2",1,"easy","English",0,2.167,0,5
"1741",32,"105B2",1,"easy","English",0,3.045,0,6
"1742",32,"46A2",1,"easy","English",0,3.351,1,7
"1743",32,"95B2",1,"difficult","English",1,14.291,0,8
"1744",32,"107B2",1,"difficult","English",0,3.42,0,9
"1745",32,"89B2",1,"easy","English",1,4.989,0,10
"1746",32,"100B2",1,"easy","English",0,2.371,0,11
"1747",32,"37A2",1,"difficult","English",1,2.145,1,12
"1748",32,"38A2",1,"difficult","English",1,4.839,1,13
"1749",32,"43A2",1,"easy","English",1,4.107,1,14
"1750",32,"33A2",1,"easy","English",1,1.949,1,15
"1751",32,"48A2",1,"easy","English",1,5.189,1,16
"1752",32,"35A2",1,"easy","English",1,2.803,1,17
"1753",32,"97B2",1,"difficult","English",0,6.992,0,18
"1754",32,"104B2",1,"easy","English",1,6.422,0,19
"1755",32,"111B2",1,"difficult","English",1,1.45,0,20
"1756",32,"98B2",1,"difficult","English",0,0.903,0,21
"1757",32,"51A2",1,"difficult","English",1,3.023,1,23
"1758",32,"34A2",1,"easy","English",1,3.563,1,24
"1759",32,"94B2",1,"difficult","English",1,4.315,0,25
"1760",32,"88B2",1,"easy","English",1,2.114,0,26
"1761",32,"52A2",1,"difficult","English",0,5.083,1,27
"1762",32,"85B2",1,"easy","English",1,3.918,0,28
"1763",32,"87B2",1,"easy","English",1,2.791,0,29
"1764",32,"110B2",1,"difficult","English",1,8.093,0,30
"1765",32,"96B2",1,"difficult","English",1,3.239,0,31
"1766",32,"45A2",1,"easy","English",0,2.747,1,32
"1767",32,"106B2",1,"difficult","English",1,3.859,0,33
"1768",32,"36A2",1,"difficult","English",0,2.695,1,34
"1769",32,"102B2",1,"easy","English",1,3.785,0,35
"1770",32,"31A2",1,"easy","English",0,7.623,1,36
"1771",32,"92B2",1,"difficult","English",0,3.7,0,37
"1772",32,"55A2",1,"difficult","English",1,5.646,1,38
"1773",32,"42A2",1,"difficult","English",1,0.78,1,39
"1774",32,"29A2",1,"easy","English",1,4.393,1,40
"1775",32,"109B2",1,"difficult","English",0,8.247,0,41
"1776",32,"49A2",1,"easy","English",1,6.035,1,42
"1777",32,"53A2",1,"difficult","English",1,3.879,1,43
"1778",32,"41A2",1,"difficult","English",0,7.649,1,44
"1779",32,"91B2",1,"easy","English",1,8.845,0,45
"1780",32,"32A2",1,"easy","English",1,3.113,1,46
"1781",32,"86B2",1,"easy","English",1,2.41,0,47
"1782",32,"44A2",1,"easy","English",0,3.086,1,49
"1783",32,"50A2",1,"difficult","English",1,3.968,1,50
"1784",32,"40A2",1,"difficult","English",1,5.854,1,51
"1785",32,"54A2",1,"difficult","English",1,0.645,1,52
"1786",32,"30A2",1,"easy","English",1,2.385,1,53
"1787",32,"90B2",1,"easy","English",1,2.838,0,54
"1788",32,"47A2",1,"easy","English",0,6.866,1,55
"1789",32,"108B2",1,"difficult","English",0,6.517,0,56
"1790",32,"112B2",1,"difficult","English",1,6.036,0,58
"1791",32,"103B2",1,"easy","English",0,2.848,0,59
"1792",32,"39A2",1,"difficult","English",1,2.851,1,60
"1793",35,"77B1",1,"easy","English",0,3.38,0,57
"1794",35,"3A1",1,"easy","English",0,7.003,1,58
"1795",35,"23A1",1,"difficult","English",0,4.322,1,59
"1796",35,"79B1",1,"difficult","English",0,5.628,0,60
"1797",35,"4A1",1,"easy","English",1,2.39,1,62
"1798",35,"5A1",1,"easy","English",1,1.973,1,63
"1799",35,"16A1",1,"easy","English",0,3.596,1,64
"1800",35,"84B1",1,"difficult","English",0,4.395,0,65
"1801",35,"11A1",1,"difficult","English",1,4.154,1,66
"1802",35,"81B1",1,"difficult","English",0,4.963,0,67
"1803",35,"13A1",1,"difficult","English",1,4.209,1,68
"1804",35,"18A1",1,"easy","English",0,4.36,1,69
"1805",35,"57B1",1,"easy","English",0,5.272,0,70
"1806",35,"70B1",1,"difficult","English",0,5.179,0,71
"1807",35,"60B1",1,"easy","English",0,7.369,0,72
"1808",35,"65B1",1,"difficult","English",0,2.969,0,73
"1809",35,"75B1",1,"easy","English",1,5.224,0,74
"1810",35,"8A1",1,"difficult","English",0,6.429,1,75
"1811",35,"24A1",1,"difficult","English",0,4.609,1,76
"1812",35,"69B1",1,"difficult","English",0,5.727,0,77
"1813",35,"10A1",1,"difficult","English",1,2.768,1,78
"1814",35,"80B1",1,"difficult","English",0,8.583,0,79
"1815",35,"21A1",1,"easy","English",0,3.582,1,80
"1816",35,"19A1",1,"easy","English",0,2.661,1,81
"1817",35,"17A1",1,"easy","English",0,4.065,1,82
"1818",35,"78B1",1,"difficult","English",0,6.615,0,84
"1819",35,"12A1",1,"difficult","English",0,1.146,1,85
"1820",35,"61B1",1,"easy","English",1,4.602,0,86
"1821",35,"1A1",1,"easy","English",1,7.127,1,87
"1822",35,"62B1",1,"easy","English",1,5.321,0,88
"1823",35,"68B1",1,"difficult","English",0,2.284,0,90
"1824",35,"63B1",1,"easy","English",1,6.934,0,91
"1825",35,"82B1",1,"difficult","English",0,3,0,92
"1826",35,"66B1",1,"difficult","English",1,3.814,0,93
"1827",35,"6A1",1,"easy","English",1,4.22,1,94
"1828",35,"71B1",1,"easy","English",0,3.849,0,95
"1829",35,"58B1",1,"easy","English",0,6.244,0,96
"1830",35,"7A1",1,"easy","English",1,4.473,1,97
"1831",35,"74B1",1,"easy","English",0,5.852,0,98
"1832",35,"9A1",1,"difficult","English",0,5.785,1,99
"1833",35,"28A1",1,"difficult","English",1,1.967,1,100
"1834",35,"26A1",1,"difficult","English",1,2.311,1,101
"1835",35,"22A1",1,"difficult","English",0,5.073,1,102
"1836",35,"76B1",1,"easy","English",0,9.394,0,103
"1837",35,"64B1",1,"difficult","English",0,9.729,0,104
"1838",35,"27A1",1,"difficult","English",0,5.586,1,105
"1839",35,"14A1",1,"difficult","English",0,5.81,1,106
"1840",35,"15A1",1,"easy","English",1,4.44,1,107
"1841",35,"72B1",1,"easy","English",0,3.621,0,108
"1842",35,"59B1",1,"easy","English",0,5.034,0,109
"1843",35,"83B1",1,"difficult","English",1,6.511,0,110
"1844",35,"2A1",1,"easy","English",0,7.898,1,111
"1845",35,"20A1",1,"easy","English",0,4.965,1,113
"1846",35,"25A1",1,"difficult","English",0,2.429,1,114
"1847",35,"67B1",1,"difficult","English",0,5.107,0,115
"1848",35,"73B1",1,"easy","English",0,2.341,0,116
"1849",35,"87B2",1,"easy","English",1,6.176,0,1
"1850",35,"112B2",1,"difficult","English",0,10.039,0,2
"1851",35,"104B2",1,"easy","English",0,5.923,0,3
"1852",35,"56A2",1,"difficult","English",1,16.764,1,4
"1853",35,"94B2",1,"difficult","English",0,4.963,0,5
"1854",35,"108B2",1,"difficult","English",0,8.202,0,6
"1855",35,"95B2",1,"difficult","English",1,4.295,0,7
"1856",35,"38A2",1,"difficult","English",1,3.808,1,8
"1857",35,"54A2",1,"difficult","English",1,0.833,1,9
"1858",35,"43A2",1,"easy","English",1,5.693,1,10
"1859",35,"91B2",1,"easy","English",1,4.431,0,11
"1860",35,"29A2",1,"easy","English",1,3.604,1,12
"1861",35,"33A2",1,"easy","English",0,7.314,1,13
"1862",35,"90B2",1,"easy","English",1,4.547,0,14
"1863",35,"105B2",1,"easy","English",1,11.187,0,15
"1864",35,"42A2",1,"difficult","English",1,6.274,1,16
"1865",35,"30A2",1,"easy","English",1,3.013,1,17
"1866",35,"92B2",1,"difficult","English",0,8.331,0,18
"1867",35,"36A2",1,"difficult","English",0,4.62,1,19
"1868",35,"46A2",1,"easy","English",0,7.097,1,20
"1869",35,"96B2",1,"difficult","English",1,4.347,0,21
"1870",35,"31A2",1,"easy","English",1,8.162,1,22
"1871",35,"88B2",1,"easy","English",0,6.113,0,24
"1872",35,"41A2",1,"difficult","English",0,4.72,1,26
"1873",35,"93B2",1,"difficult","English",1,4.817,0,27
"1874",35,"110B2",1,"difficult","English",1,4.862,0,28
"1875",35,"45A2",1,"easy","English",0,2.361,1,29
"1876",35,"111B2",1,"difficult","English",0,3.753,0,30
"1877",35,"100B2",1,"easy","English",0,4.449,0,31
"1878",35,"34A2",1,"easy","English",1,4.301,1,32
"1879",35,"98B2",1,"difficult","English",0,2.144,0,34
"1880",35,"99B2",1,"easy","English",0,3.929,0,35
"1881",35,"85B2",1,"easy","English",1,3.914,0,36
"1882",35,"48A2",1,"easy","English",1,2.308,1,37
"1883",35,"101B2",1,"easy","English",0,3.294,0,38
"1884",35,"103B2",1,"easy","English",0,4.929,0,39
"1885",35,"102B2",1,"easy","English",0,3.602,0,40
"1886",35,"40A2",1,"difficult","English",0,5.961,1,41
"1887",35,"39A2",1,"difficult","English",1,3.616,1,42
"1888",35,"107B2",1,"difficult","English",0,4.99,0,43
"1889",35,"44A2",1,"easy","English",0,8.061,1,44
"1890",35,"51A2",1,"difficult","English",0,2.505,1,45
"1891",35,"89B2",1,"easy","English",1,4.732,0,46
"1892",35,"52A2",1,"difficult","English",0,5.741,1,47
"1893",35,"37A2",1,"difficult","English",0,5.545,1,49
"1894",35,"86B2",1,"easy","English",1,3.562,0,50
"1895",35,"50A2",1,"difficult","English",1,5.378,1,51
"1896",35,"47A2",1,"easy","English",0,4.305,1,52
"1897",35,"106B2",1,"difficult","English",0,3.908,0,53
"1898",35,"49A2",1,"easy","English",1,3.374,1,54
"1899",35,"32A2",1,"easy","English",1,1.742,1,55
"1900",35,"35A2",1,"easy","English",1,2.607,1,56
"1901",35,"55A2",1,"difficult","English",1,3.205,1,57
"1902",35,"97B2",1,"difficult","English",1,5.66,0,58
"1903",35,"109B2",1,"difficult","English",0,3.52,0,59
"1904",35,"53A2",1,"difficult","English",0,0.632,1,60
"1905",36,"14A1",1,"difficult","English",1,3.383,1,57
"1906",36,"26A1",1,"difficult","English",1,2.341,1,58
"1907",36,"5A1",1,"easy","English",0,1.581,1,59
"1908",36,"80B1",1,"difficult","English",0,4.989,0,60
"1909",36,"65B1",1,"difficult","English",0,5.46,0,61
"1910",36,"68B1",1,"difficult","English",0,2.888,0,62
"1911",36,"8A1",1,"difficult","English",1,1.651,1,63
"1912",36,"18A1",1,"easy","English",0,3.2,1,64
"1913",36,"82B1",1,"difficult","English",1,3.293,0,65
"1914",36,"58B1",1,"easy","English",1,2.464,0,66
"1915",36,"78B1",1,"difficult","English",1,3.204,0,67
"1916",36,"12A1",1,"difficult","English",1,2.867,1,68
"1917",36,"72B1",1,"easy","English",1,3.034,0,70
"1918",36,"69B1",1,"difficult","English",0,7.343,0,71
"1919",36,"25A1",1,"difficult","English",1,2.2,1,72
"1920",36,"62B1",1,"easy","English",1,3.046,0,73
"1921",36,"83B1",1,"difficult","English",0,6.306,0,74
"1922",36,"22A1",1,"difficult","English",1,3.613,1,75
"1923",36,"84B1",1,"difficult","English",0,3.086,0,77
"1924",36,"71B1",1,"easy","English",1,1.929,0,78
"1925",36,"6A1",1,"easy","English",1,1.97,1,79
"1926",36,"63B1",1,"easy","English",1,4.09,0,80
"1927",36,"70B1",1,"difficult","English",1,4.309,0,81
"1928",36,"66B1",1,"difficult","English",1,3.279,0,82
"1929",36,"61B1",1,"easy","English",1,2.626,0,83
"1930",36,"19A1",1,"easy","English",1,3.359,1,84
"1931",36,"57B1",1,"easy","English",1,3.623,0,85
"1932",36,"2A1",1,"easy","English",1,2.324,1,86
"1933",36,"28A1",1,"difficult","English",1,5.524,1,87
"1934",36,"11A1",1,"difficult","English",0,6.16,1,90
"1935",36,"13A1",1,"difficult","English",1,3.767,1,91
"1936",36,"64B1",1,"difficult","English",0,4.255,0,92
"1937",36,"3A1",1,"easy","English",1,2.444,1,93
"1938",36,"23A1",1,"difficult","English",1,1.976,1,94
"1939",36,"15A1",1,"easy","English",0,1.672,1,95
"1940",36,"75B1",1,"easy","English",0,2.34,0,96
"1941",36,"21A1",1,"easy","English",0,3.036,1,97
"1942",36,"67B1",1,"difficult","English",1,2.184,0,98
"1943",36,"17A1",1,"easy","English",0,2.368,1,99
"1944",36,"77B1",1,"easy","English",0,3.328,0,100
"1945",36,"24A1",1,"difficult","English",1,4.697,1,101
"1946",36,"1A1",1,"easy","English",1,2.132,1,102
"1947",36,"10A1",1,"difficult","English",1,3.516,1,103
"1948",36,"7A1",1,"easy","English",1,1.934,1,104
"1949",36,"16A1",1,"easy","English",1,2.103,1,105
"1950",36,"73B1",1,"easy","English",1,3.962,0,106
"1951",36,"81B1",1,"difficult","English",0,3.705,0,107
"1952",36,"76B1",1,"easy","English",0,3.523,0,108
"1953",36,"60B1",1,"easy","English",1,2.157,0,109
"1954",36,"79B1",1,"difficult","English",1,2.734,0,110
"1955",36,"4A1",1,"easy","English",1,2.015,1,111
"1956",36,"59B1",1,"easy","English",0,4.573,0,112
"1957",36,"9A1",1,"difficult","English",0,3.917,1,113
"1958",36,"74B1",1,"easy","English",0,2.726,0,114
"1959",36,"27A1",1,"difficult","English",0,4.136,1,115
"1960",36,"20A1",1,"easy","English",1,2.328,1,116
"1961",36,"96B2",1,"difficult","English",1,7.566,0,1
"1962",36,"109B2",1,"difficult","English",1,4.742,0,2
"1963",36,"31A2",1,"easy","English",0,5.998,1,3
"1964",36,"93B2",1,"difficult","English",0,7.796,0,4
"1965",36,"86B2",1,"easy","English",0,2.179,0,5
"1966",36,"101B2",1,"easy","English",0,2.778,0,6
"1967",36,"90B2",1,"easy","English",1,4.226,0,7
"1968",36,"32A2",1,"easy","English",1,1.975,1,8
"1969",36,"112B2",1,"difficult","English",0,5.214,0,9
"1970",36,"98B2",1,"difficult","English",1,5.651,0,10
"1971",36,"38A2",1,"difficult","English",0,4.44,1,11
"1972",36,"48A2",1,"easy","English",0,2.004,1,12
"1973",36,"102B2",1,"easy","English",1,5.133,0,14
"1974",36,"53A2",1,"difficult","English",0,2.63,1,15
