"","subject","between_identifier","statement_identifier","presentation_identifier","within_identifier","response","repeated","rt","trial"
"1",47,"second",1,1,1,6,1,NA,NA
"2",47,"second",2,1,1,6,1,NA,NA
"3",47,"second",3,1,1,4,1,NA,NA
"4",47,"second",4,1,1,5,1,NA,NA
"5",47,"second",5,1,1,2,1,NA,NA
"6",47,"second",6,1,1,5,1,NA,NA
"7",47,"second",7,1,1,4,1,NA,NA
"8",47,"second",8,1,1,3,1,NA,NA
"9",47,"second",9,1,1,4,1,NA,NA
"10",47,"second",10,1,1,2,1,NA,NA
"11",47,"second",11,1,1,5,1,NA,NA
"12",47,"second",12,1,1,5,1,NA,NA
"13",47,"second",13,1,1,5,1,NA,NA
"14",47,"second",14,1,1,3,1,NA,NA
"15",47,"second",15,1,1,5,1,NA,NA
"16",47,"second",16,1,1,4,1,NA,NA
"17",47,"second",17,1,1,4,1,NA,NA
"18",47,"second",18,1,1,6,1,NA,NA
"19",47,"second",19,1,1,3,1,NA,NA
"20",47,"second",20,1,1,4,1,NA,NA
"21",47,"second",21,1,1,4,0,NA,NA
"22",47,"second",22,1,1,3,0,NA,NA
"23",47,"second",23,1,1,4,0,NA,NA
"24",47,"second",24,1,1,3,0,NA,NA
"25",47,"second",25,1,1,5,0,NA,NA
"26",47,"second",26,1,1,4,0,NA,NA
"27",47,"second",27,1,1,6,0,NA,NA
"28",47,"second",28,1,1,4,0,NA,NA
"29",47,"second",29,1,1,4,0,NA,NA
"30",47,"second",30,1,1,2,0,NA,NA
"31",47,"second",31,1,1,2,0,NA,NA
"32",47,"second",32,1,1,4,0,NA,NA
"33",47,"second",33,1,1,5,0,NA,NA
"34",47,"second",34,1,1,5,0,NA,NA
"35",47,"second",35,1,1,4,0,NA,NA
"36",47,"second",36,1,1,5,0,NA,NA
"37",47,"second",37,1,1,2,0,NA,NA
"38",47,"second",38,1,1,3,0,NA,NA
"39",47,"second",39,1,1,4,0,NA,NA
"40",47,"second",40,1,1,5,0,NA,NA
"41",139,"native",1,1,1,4,1,NA,NA
"42",139,"native",2,1,1,6,1,NA,NA
"43",139,"native",3,1,1,5,1,NA,NA
"44",139,"native",4,1,1,4,1,NA,NA
"45",139,"native",5,1,1,3,1,NA,NA
"46",139,"native",6,1,1,6,1,NA,NA
"47",139,"native",7,1,1,5,1,NA,NA
"48",139,"native",8,1,1,6,1,NA,NA
"49",139,"native",9,1,1,6,1,NA,NA
"50",139,"native",10,1,1,6,1,NA,NA
"51",139,"native",11,1,1,6,1,NA,NA
"52",139,"native",12,1,1,6,1,NA,NA
"53",139,"native",13,1,1,6,1,NA,NA
"54",139,"native",14,1,1,6,1,NA,NA
"55",139,"native",15,1,1,5,1,NA,NA
"56",139,"native",16,1,1,4,1,NA,NA
"57",139,"native",17,1,1,6,1,NA,NA
"58",139,"native",18,1,1,6,1,NA,NA
"59",139,"native",19,1,1,6,1,NA,NA
"60",139,"native",20,1,1,6,1,NA,NA
"61",139,"native",21,1,1,5,0,NA,NA
"62",139,"native",22,1,1,3,0,NA,NA
"63",139,"native",23,1,1,2,0,NA,NA
"64",139,"native",24,1,1,4,0,NA,NA
"65",139,"native",25,1,1,3,0,NA,NA
"66",139,"native",26,1,1,5,0,NA,NA
"67",139,"native",27,1,1,4,0,NA,NA
"68",139,"native",28,1,1,6,0,NA,NA
"69",139,"native",29,1,1,5,0,NA,NA
"70",139,"native",30,1,1,6,0,NA,NA
"71",139,"native",31,1,1,4,0,NA,NA
"72",139,"native",32,1,1,4,0,NA,NA
"73",139,"native",33,1,1,5,0,NA,NA
"74",139,"native",34,1,1,4,0,NA,NA
"75",139,"native",35,1,1,6,0,NA,NA
"76",139,"native",36,1,1,5,0,NA,NA
"77",139,"native",37,1,1,2,0,NA,NA
"78",139,"native",38,1,1,2,0,NA,NA
"79",139,"native",39,1,1,5,0,NA,NA
"80",139,"native",40,1,1,6,0,NA,NA
"81",11,"second",1,1,1,6,1,NA,NA
"82",11,"second",2,1,1,6,1,NA,NA
"83",11,"second",3,1,1,6,1,NA,NA
"84",11,"second",4,1,1,5,1,NA,NA
"85",11,"second",5,1,1,6,1,NA,NA
"86",11,"second",6,1,1,6,1,NA,NA
"87",11,"second",7,1,1,6,1,NA,NA
"88",11,"second",8,1,1,5,1,NA,NA
"89",11,"second",9,1,1,6,1,NA,NA
"90",11,"second",10,1,1,6,1,NA,NA
"91",11,"second",11,1,1,5,1,NA,NA
"92",11,"second",12,1,1,6,1,NA,NA
"93",11,"second",13,1,1,6,1,NA,NA
"94",11,"second",14,1,1,6,1,NA,NA
"95",11,"second",15,1,1,6,1,NA,NA
"96",11,"second",16,1,1,6,1,NA,NA
"97",11,"second",17,1,1,6,1,NA,NA
"98",11,"second",18,1,1,6,1,NA,NA
"99",11,"second",19,1,1,6,1,NA,NA
"100",11,"second",20,1,1,4,1,NA,NA
"101",11,"second",21,1,1,5,0,NA,NA
"102",11,"second",22,1,1,5,0,NA,NA
"103",11,"second",23,1,1,3,0,NA,NA
"104",11,"second",24,1,1,3,0,NA,NA
"105",11,"second",25,1,1,4,0,NA,NA
"106",11,"second",26,1,1,4,0,NA,NA
"107",11,"second",27,1,1,4,0,NA,NA
"108",11,"second",28,1,1,5,0,NA,NA
"109",11,"second",29,1,1,5,0,NA,NA
"110",11,"second",30,1,1,3,0,NA,NA
"111",11,"second",31,1,1,3,0,NA,NA
"112",11,"second",32,1,1,4,0,NA,NA
"113",11,"second",33,1,1,3,0,NA,NA
"114",11,"second",34,1,1,4,0,NA,NA
"115",11,"second",35,1,1,5,0,NA,NA
"116",11,"second",36,1,1,4,0,NA,NA
"117",11,"second",37,1,1,2,0,NA,NA
"118",11,"second",38,1,1,4,0,NA,NA
"119",11,"second",39,1,1,4,0,NA,NA
"120",11,"second",40,1,1,5,0,NA,NA
"121",19,"second",1,1,1,5,1,NA,NA
"122",19,"second",2,1,1,6,1,NA,NA
"123",19,"second",3,1,1,6,1,NA,NA
"124",19,"second",4,1,1,3,1,NA,NA
"125",19,"second",5,1,1,6,1,NA,NA
"126",19,"second",6,1,1,6,1,NA,NA
"127",19,"second",7,1,1,6,1,NA,NA
"128",19,"second",8,1,1,6,1,NA,NA
"129",19,"second",9,1,1,6,1,NA,NA
"130",19,"second",10,1,1,6,1,NA,NA
"131",19,"second",11,1,1,6,1,NA,NA
"132",19,"second",12,1,1,6,1,NA,NA
"133",19,"second",13,1,1,6,1,NA,NA
"134",19,"second",14,1,1,6,1,NA,NA
"135",19,"second",15,1,1,6,1,NA,NA
"136",19,"second",16,1,1,2,1,NA,NA
"137",19,"second",17,1,1,6,1,NA,NA
"138",19,"second",18,1,1,5,1,NA,NA
"139",19,"second",19,1,1,6,1,NA,NA
"140",19,"second",20,1,1,5,1,NA,NA
"141",19,"second",21,1,1,3,0,NA,NA
"142",19,"second",22,1,1,4,0,NA,NA
"143",19,"second",23,1,1,2,0,NA,NA
"144",19,"second",24,1,1,4,0,NA,NA
"145",19,"second",25,1,1,3,0,NA,NA
"146",19,"second",26,1,1,3,0,NA,NA
"147",19,"second",27,1,1,5,0,NA,NA
"148",19,"second",28,1,1,4,0,NA,NA
"149",19,"second",29,1,1,3,0,NA,NA
"150",19,"second",30,1,1,6,0,NA,NA
"151",19,"second",31,1,1,5,0,NA,NA
"152",19,"second",32,1,1,3,0,NA,NA
"153",19,"second",33,1,1,3,0,NA,NA
"154",19,"second",34,1,1,2,0,NA,NA
"155",19,"second",35,1,1,2,0,NA,NA
"156",19,"second",36,1,1,4,0,NA,NA
"157",19,"second",37,1,1,5,0,NA,NA
"158",19,"second",38,1,1,5,0,NA,NA
"159",19,"second",39,1,1,3,0,NA,NA
"160",19,"second",40,1,1,4,0,NA,NA
"161",28,"second",1,1,1,4,1,NA,NA
"162",28,"second",2,1,1,2,1,NA,NA
"163",28,"second",3,1,1,5,1,NA,NA
"164",28,"second",4,1,1,4,1,NA,NA
"165",28,"second",5,1,1,2,1,NA,NA
"166",28,"second",6,1,1,5,1,NA,NA
"167",28,"second",7,1,1,5,1,NA,NA
"168",28,"second",8,1,1,6,1,NA,NA
"169",28,"second",9,1,1,5,1,NA,NA
"170",28,"second",10,1,1,3,1,NA,NA
"171",28,"second",11,1,1,6,1,NA,NA
"172",28,"second",12,1,1,5,1,NA,NA
"173",28,"second",13,1,1,6,1,NA,NA
"174",28,"second",14,1,1,5,1,NA,NA
"175",28,"second",15,1,1,5,1,NA,NA
"176",28,"second",16,1,1,6,1,NA,NA
"177",28,"second",17,1,1,5,1,NA,NA
"178",28,"second",18,1,1,5,1,NA,NA
"179",28,"second",19,1,1,5,1,NA,NA
"180",28,"second",20,1,1,5,1,NA,NA
"181",28,"second",21,1,1,3,0,NA,NA
"182",28,"second",22,1,1,5,0,NA,NA
"183",28,"second",23,1,1,4,0,NA,NA
"184",28,"second",24,1,1,3,0,NA,NA
"185",28,"second",25,1,1,3,0,NA,NA
"186",28,"second",26,1,1,2,0,NA,NA
"187",28,"second",27,1,1,5,0,NA,NA
"188",28,"second",28,1,1,5,0,NA,NA
"189",28,"second",29,1,1,4,0,NA,NA
"190",28,"second",30,1,1,5,0,NA,NA
"191",28,"second",31,1,1,5,0,NA,NA
"192",28,"second",32,1,1,5,0,NA,NA
"193",28,"second",33,1,1,4,0,NA,NA
"194",28,"second",34,1,1,4,0,NA,NA
"195",28,"second",35,1,1,4,0,NA,NA
"196",28,"second",36,1,1,5,0,NA,NA
"197",28,"second",37,1,1,1,0,NA,NA
"198",28,"second",38,1,1,4,0,NA,NA
"199",28,"second",39,1,1,2,0,NA,NA
"200",28,"second",40,1,1,4,0,NA,NA
"201",44,"second",1,1,1,6,1,NA,NA
"202",44,"second",2,1,1,6,1,NA,NA
"203",44,"second",3,1,1,6,1,NA,NA
"204",44,"second",4,1,1,6,1,NA,NA
"205",44,"second",5,1,1,6,1,NA,NA
"206",44,"second",6,1,1,6,1,NA,NA
"207",44,"second",7,1,1,6,1,NA,NA
"208",44,"second",8,1,1,6,1,NA,NA
"209",44,"second",9,1,1,6,1,NA,NA
"210",44,"second",10,1,1,1,1,NA,NA
"211",44,"second",11,1,1,6,1,NA,NA
"212",44,"second",12,1,1,6,1,NA,NA
"213",44,"second",13,1,1,6,1,NA,NA
"214",44,"second",14,1,1,6,1,NA,NA
"215",44,"second",15,1,1,6,1,NA,NA
"216",44,"second",16,1,1,6,1,NA,NA
"217",44,"second",17,1,1,6,1,NA,NA
"218",44,"second",18,1,1,6,1,NA,NA
"219",44,"second",19,1,1,6,1,NA,NA
"220",44,"second",20,1,1,1,1,NA,NA
"221",44,"second",21,1,1,1,0,NA,NA
"222",44,"second",22,1,1,1,0,NA,NA
"223",44,"second",23,1,1,1,0,NA,NA
"224",44,"second",24,1,1,1,0,NA,NA
"225",44,"second",25,1,1,6,0,NA,NA
"226",44,"second",26,1,1,1,0,NA,NA
"227",44,"second",27,1,1,6,0,NA,NA
"228",44,"second",28,1,1,6,0,NA,NA
"229",44,"second",29,1,1,6,0,NA,NA
"230",44,"second",30,1,1,3,0,NA,NA
"231",44,"second",31,1,1,1,0,NA,NA
"232",44,"second",32,1,1,6,0,NA,NA
"233",44,"second",33,1,1,1,0,NA,NA
"234",44,"second",34,1,1,1,0,NA,NA
"235",44,"second",35,1,1,1,0,NA,NA
"236",44,"second",36,1,1,6,0,NA,NA
"237",44,"second",37,1,1,1,0,NA,NA
"238",44,"second",38,1,1,6,0,NA,NA
"239",44,"second",39,1,1,6,0,NA,NA
"240",44,"second",40,1,1,6,0,NA,NA
"241",77,"second",1,1,1,6,1,NA,NA
"242",77,"second",2,1,1,1,1,NA,NA
"243",77,"second",3,1,1,6,1,NA,NA
"244",77,"second",4,1,1,6,1,NA,NA
"245",77,"second",5,1,1,1,1,NA,NA
"246",77,"second",6,1,1,6,1,NA,NA
"247",77,"second",7,1,1,6,1,NA,NA
"248",77,"second",8,1,1,5,1,NA,NA
"249",77,"second",9,1,1,1,1,NA,NA
"250",77,"second",10,1,1,5,1,NA,NA
"251",77,"second",11,1,1,6,1,NA,NA
"252",77,"second",12,1,1,5,1,NA,NA
"253",77,"second",13,1,1,6,1,NA,NA
"254",77,"second",14,1,1,6,1,NA,NA
"255",77,"second",15,1,1,6,1,NA,NA
"256",77,"second",16,1,1,5,1,NA,NA
"257",77,"second",17,1,1,6,1,NA,NA
"258",77,"second",18,1,1,6,1,NA,NA
"259",77,"second",19,1,1,2,1,NA,NA
"260",77,"second",20,1,1,6,1,NA,NA
"261",77,"second",21,1,1,2,0,NA,NA
"262",77,"second",22,1,1,6,0,NA,NA
"263",77,"second",23,1,1,2,0,NA,NA
"264",77,"second",24,1,1,1,0,NA,NA
"265",77,"second",25,1,1,1,0,NA,NA
"266",77,"second",26,1,1,5,0,NA,NA
"267",77,"second",27,1,1,2,0,NA,NA
"268",77,"second",28,1,1,6,0,NA,NA
"269",77,"second",29,1,1,6,0,NA,NA
"270",77,"second",30,1,1,4,0,NA,NA
"271",77,"second",31,1,1,6,0,NA,NA
"272",77,"second",32,1,1,2,0,NA,NA
"273",77,"second",33,1,1,5,0,NA,NA
"274",77,"second",34,1,1,4,0,NA,NA
"275",77,"second",35,1,1,1,0,NA,NA
"276",77,"second",36,1,1,1,0,NA,NA
"277",77,"second",37,1,1,1,0,NA,NA
"278",77,"second",38,1,1,2,0,NA,NA
"279",77,"second",39,1,1,2,0,NA,NA
"280",77,"second",40,1,1,2,0,NA,NA
"281",111,"second",1,1,1,6,1,NA,NA
"282",111,"second",2,1,1,6,1,NA,NA
"283",111,"second",3,1,1,3,1,NA,NA
"284",111,"second",4,1,1,4,1,NA,NA
"285",111,"second",5,1,1,3,1,NA,NA
"286",111,"second",6,1,1,6,1,NA,NA
"287",111,"second",7,1,1,5,1,NA,NA
"288",111,"second",8,1,1,4,1,NA,NA
"289",111,"second",9,1,1,5,1,NA,NA
"290",111,"second",10,1,1,4,1,NA,NA
"291",111,"second",11,1,1,5,1,NA,NA
"292",111,"second",12,1,1,6,1,NA,NA
"293",111,"second",13,1,1,5,1,NA,NA
"294",111,"second",14,1,1,6,1,NA,NA
"295",111,"second",15,1,1,6,1,NA,NA
"296",111,"second",16,1,1,5,1,NA,NA
"297",111,"second",17,1,1,5,1,NA,NA
"298",111,"second",18,1,1,6,1,NA,NA
"299",111,"second",19,1,1,4,1,NA,NA
"300",111,"second",20,1,1,4,1,NA,NA
"301",111,"second",21,1,1,1,0,NA,NA
"302",111,"second",22,1,1,4,0,NA,NA
"303",111,"second",23,1,1,5,0,NA,NA
"304",111,"second",24,1,1,3,0,NA,NA
"305",111,"second",25,1,1,6,0,NA,NA
"306",111,"second",26,1,1,4,0,NA,NA
"307",111,"second",27,1,1,3,0,NA,NA
"308",111,"second",28,1,1,4,0,NA,NA
"309",111,"second",29,1,1,5,0,NA,NA
"310",111,"second",30,1,1,2,0,NA,NA
"311",111,"second",31,1,1,4,0,NA,NA
"312",111,"second",32,1,1,3,0,NA,NA
"313",111,"second",33,1,1,4,0,NA,NA
"314",111,"second",34,1,1,5,0,NA,NA
"315",111,"second",35,1,1,4,0,NA,NA
"316",111,"second",36,1,1,4,0,NA,NA
"317",111,"second",37,1,1,2,0,NA,NA
"318",111,"second",38,1,1,4,0,NA,NA
"319",111,"second",39,1,1,3,0,NA,NA
"320",111,"second",40,1,1,6,0,NA,NA
"321",131,"second",1,1,1,6,1,NA,NA
"322",131,"second",2,1,1,1,1,NA,NA
"323",131,"second",3,1,1,6,1,NA,NA
"324",131,"second",4,1,1,6,1,NA,NA
"325",131,"second",5,1,1,6,1,NA,NA
"326",131,"second",6,1,1,6,1,NA,NA
"327",131,"second",7,1,1,6,1,NA,NA
"328",131,"second",8,1,1,6,1,NA,NA
"329",131,"second",9,1,1,6,1,NA,NA
"330",131,"second",10,1,1,1,1,NA,NA
"331",131,"second",11,1,1,6,1,NA,NA
"332",131,"second",12,1,1,6,1,NA,NA
"333",131,"second",13,1,1,6,1,NA,NA
"334",131,"second",14,1,1,6,1,NA,NA
"335",131,"second",15,1,1,1,1,NA,NA
"336",131,"second",16,1,1,6,1,NA,NA
"337",131,"second",17,1,1,3,1,NA,NA
"338",131,"second",18,1,1,6,1,NA,NA
"339",131,"second",19,1,1,6,1,NA,NA
"340",131,"second",20,1,1,6,1,NA,NA
"341",131,"second",21,1,1,5,0,NA,NA
"342",131,"second",22,1,1,4,0,NA,NA
"343",131,"second",23,1,1,6,0,NA,NA
"344",131,"second",24,1,1,6,0,NA,NA
"345",131,"second",25,1,1,5,0,NA,NA
"346",131,"second",26,1,1,6,0,NA,NA
"347",131,"second",27,1,1,6,0,NA,NA
"348",131,"second",28,1,1,3,0,NA,NA
"349",131,"second",29,1,1,3,0,NA,NA
"350",131,"second",30,1,1,6,0,NA,NA
"351",131,"second",31,1,1,3,0,NA,NA
"352",131,"second",32,1,1,3,0,NA,NA
"353",131,"second",33,1,1,6,0,NA,NA
"354",131,"second",34,1,1,4,0,NA,NA
"355",131,"second",35,1,1,3,0,NA,NA
"356",131,"second",36,1,1,4,0,NA,NA
"357",131,"second",37,1,1,1,0,NA,NA
"358",131,"second",38,1,1,4,0,NA,NA
"359",131,"second",39,1,1,1,0,NA,NA
"360",131,"second",40,1,1,6,0,NA,NA
"361",148,"second",1,1,1,4,1,NA,NA
"362",148,"second",2,1,1,1,1,NA,NA
"363",148,"second",3,1,1,5,1,NA,NA
"364",148,"second",4,1,1,4,1,NA,NA
"365",148,"second",5,1,1,5,1,NA,NA
"366",148,"second",6,1,1,6,1,NA,NA
"367",148,"second",7,1,1,6,1,NA,NA
"368",148,"second",8,1,1,6,1,NA,NA
"369",148,"second",9,1,1,6,1,NA,NA
"370",148,"second",10,1,1,2,1,NA,NA
"371",148,"second",11,1,1,5,1,NA,NA
"372",148,"second",12,1,1,6,1,NA,NA
"373",148,"second",13,1,1,4,1,NA,NA
"374",148,"second",14,1,1,5,1,NA,NA
"375",148,"second",15,1,1,5,1,NA,NA
"376",148,"second",16,1,1,6,1,NA,NA
"377",148,"second",17,1,1,5,1,NA,NA
"378",148,"second",18,1,1,5,1,NA,NA
"379",148,"second",19,1,1,2,1,NA,NA
"380",148,"second",20,1,1,6,1,NA,NA
"381",148,"second",21,1,1,4,0,NA,NA
"382",148,"second",22,1,1,6,0,NA,NA
"383",148,"second",23,1,1,3,0,NA,NA
"384",148,"second",24,1,1,3,0,NA,NA
"385",148,"second",25,1,1,4,0,NA,NA
"386",148,"second",26,1,1,5,0,NA,NA
"387",148,"second",27,1,1,5,0,NA,NA
"388",148,"second",28,1,1,5,0,NA,NA
"389",148,"second",29,1,1,6,0,NA,NA
"390",148,"second",30,1,1,3,0,NA,NA
"391",148,"second",31,1,1,4,0,NA,NA
"392",148,"second",32,1,1,6,0,NA,NA
"393",148,"second",33,1,1,5,0,NA,NA
"394",148,"second",34,1,1,6,0,NA,NA
"395",148,"second",35,1,1,4,0,NA,NA
"396",148,"second",36,1,1,4,0,NA,NA
"397",148,"second",37,1,1,6,0,NA,NA
"398",148,"second",38,1,1,4,0,NA,NA
"399",148,"second",39,1,1,4,0,NA,NA
"400",148,"second",40,1,1,6,0,NA,NA
"401",163,"second",1,1,1,6,1,NA,NA
"402",163,"second",2,1,1,5,1,NA,NA
"403",163,"second",3,1,1,6,1,NA,NA
"404",163,"second",4,1,1,6,1,NA,NA
"405",163,"second",5,1,1,6,1,NA,NA
"406",163,"second",6,1,1,6,1,NA,NA
"407",163,"second",7,1,1,3,1,NA,NA
"408",163,"second",8,1,1,3,1,NA,NA
"409",163,"second",9,1,1,4,1,NA,NA
"410",163,"second",10,1,1,3,1,NA,NA
"411",163,"second",11,1,1,4,1,NA,NA
"412",163,"second",12,1,1,6,1,NA,NA
"413",163,"second",13,1,1,4,1,NA,NA
"414",163,"second",14,1,1,5,1,NA,NA
"415",163,"second",15,1,1,1,1,NA,NA
"416",163,"second",16,1,1,5,1,NA,NA
"417",163,"second",17,1,1,6,1,NA,NA
"418",163,"second",18,1,1,5,1,NA,NA
"419",163,"second",19,1,1,4,1,NA,NA
"420",163,"second",20,1,1,6,1,NA,NA
"421",163,"second",21,1,1,1,0,NA,NA
"422",163,"second",22,1,1,3,0,NA,NA
"423",163,"second",23,1,1,4,0,NA,NA
"424",163,"second",24,1,1,1,0,NA,NA
"425",163,"second",25,1,1,6,0,NA,NA
"426",163,"second",26,1,1,5,0,NA,NA
"427",163,"second",27,1,1,4,0,NA,NA
"428",163,"second",28,1,1,5,0,NA,NA
"429",163,"second",29,1,1,4,0,NA,NA
"430",163,"second",30,1,1,5,0,NA,NA
"431",163,"second",31,1,1,4,0,NA,NA
"432",163,"second",32,1,1,6,0,NA,NA
"433",163,"second",33,1,1,4,0,NA,NA
"434",163,"second",34,1,1,5,0,NA,NA
"435",163,"second",35,1,1,3,0,NA,NA
"436",163,"second",36,1,1,3,0,NA,NA
"437",163,"second",37,1,1,1,0,NA,NA
"438",163,"second",38,1,1,3,0,NA,NA
"439",163,"second",39,1,1,2,0,NA,NA
"440",163,"second",40,1,1,3,0,NA,NA
"441",165,"second",1,1,1,4,1,NA,NA
"442",165,"second",2,1,1,6,1,NA,NA
"443",165,"second",3,1,1,2,1,NA,NA
"444",165,"second",4,1,1,3,1,NA,NA
"445",165,"second",5,1,1,3,1,NA,NA
"446",165,"second",6,1,1,6,1,NA,NA
"447",165,"second",7,1,1,6,1,NA,NA
"448",165,"second",8,1,1,4,1,NA,NA
"449",165,"second",9,1,1,4,1,NA,NA
"450",165,"second",10,1,1,6,1,NA,NA
"451",165,"second",11,1,1,6,1,NA,NA
"452",165,"second",12,1,1,6,1,NA,NA
"453",165,"second",13,1,1,6,1,NA,NA
"454",165,"second",14,1,1,6,1,NA,NA
"455",165,"second",15,1,1,6,1,NA,NA
"456",165,"second",16,1,1,6,1,NA,NA
"457",165,"second",17,1,1,6,1,NA,NA
"458",165,"second",18,1,1,6,1,NA,NA
"459",165,"second",19,1,1,2,1,NA,NA
"460",165,"second",20,1,1,6,1,NA,NA
"461",165,"second",21,1,1,1,0,NA,NA
"462",165,"second",22,1,1,3,0,NA,NA
"463",165,"second",23,1,1,6,0,NA,NA
"464",165,"second",24,1,1,3,0,NA,NA
"465",165,"second",25,1,1,1,0,NA,NA
"466",165,"second",26,1,1,6,0,NA,NA
"467",165,"second",27,1,1,3,0,NA,NA
"468",165,"second",28,1,1,5,0,NA,NA
"469",165,"second",29,1,1,1,0,NA,NA
"470",165,"second",30,1,1,2,0,NA,NA
"471",165,"second",31,1,1,3,0,NA,NA
"472",165,"second",32,1,1,1,0,NA,NA
"473",165,"second",33,1,1,6,0,NA,NA
"474",165,"second",34,1,1,3,0,NA,NA
"475",165,"second",35,1,1,4,0,NA,NA
"476",165,"second",36,1,1,3,0,NA,NA
"477",165,"second",37,1,1,1,0,NA,NA
"478",165,"second",38,1,1,4,0,NA,NA
"479",165,"second",39,1,1,5,0,NA,NA
"480",165,"second",40,1,1,6,0,NA,NA
"481",173,"second",1,1,1,6,1,NA,NA
"482",173,"second",2,1,1,5,1,NA,NA
"483",173,"second",3,1,1,2,1,NA,NA
"484",173,"second",4,1,1,6,1,NA,NA
"485",173,"second",5,1,1,1,1,NA,NA
"486",173,"second",6,1,1,4,1,NA,NA
"487",173,"second",7,1,1,4,1,NA,NA
"488",173,"second",8,1,1,5,1,NA,NA
"489",173,"second",9,1,1,4,1,NA,NA
"490",173,"second",10,1,1,1,1,NA,NA
"491",173,"second",11,1,1,4,1,NA,NA
"492",173,"second",12,1,1,5,1,NA,NA
"493",173,"second",13,1,1,5,1,NA,NA
"494",173,"second",14,1,1,5,1,NA,NA
"495",173,"second",15,1,1,5,1,NA,NA
"496",173,"second",16,1,1,5,1,NA,NA
"497",173,"second",17,1,1,3,1,NA,NA
"498",173,"second",18,1,1,5,1,NA,NA
"499",173,"second",19,1,1,3,1,NA,NA
"500",173,"second",20,1,1,4,1,NA,NA
"501",173,"second",21,1,1,1,0,NA,NA
"502",173,"second",22,1,1,5,0,NA,NA
"503",173,"second",23,1,1,3,0,NA,NA
"504",173,"second",24,1,1,4,0,NA,NA
"505",173,"second",25,1,1,5,0,NA,NA
"506",173,"second",26,1,1,1,0,NA,NA
"507",173,"second",27,1,1,3,0,NA,NA
"508",173,"second",28,1,1,6,0,NA,NA
"509",173,"second",29,1,1,5,0,NA,NA
"510",173,"second",30,1,1,5,0,NA,NA
"511",173,"second",31,1,1,3,0,NA,NA
"512",173,"second",32,1,1,5,0,NA,NA
"513",173,"second",33,1,1,3,0,NA,NA
"514",173,"second",34,1,1,2,0,NA,NA
"515",173,"second",35,1,1,5,0,NA,NA
"516",173,"second",36,1,1,3,0,NA,NA
"517",173,"second",37,1,1,3,0,NA,NA
"518",173,"second",38,1,1,5,0,NA,NA
"519",173,"second",39,1,1,4,0,NA,NA
"520",173,"second",40,1,1,5,0,NA,NA
"521",209,"second",1,1,1,6,1,NA,NA
"522",209,"second",2,1,1,1,1,NA,NA
"523",209,"second",3,1,1,6,1,NA,NA
"524",209,"second",4,1,1,6,1,NA,NA
"525",209,"second",5,1,1,5,1,NA,NA
"526",209,"second",6,1,1,4,1,NA,NA
"527",209,"second",7,1,1,6,1,NA,NA
"528",209,"second",8,1,1,6,1,NA,NA
"529",209,"second",9,1,1,1,1,NA,NA
"530",209,"second",10,1,1,4,1,NA,NA
"531",209,"second",11,1,1,4,1,NA,NA
"532",209,"second",12,1,1,5,1,NA,NA
"533",209,"second",13,1,1,6,1,NA,NA
"534",209,"second",14,1,1,5,1,NA,NA
"535",209,"second",15,1,1,1,1,NA,NA
"536",209,"second",16,1,1,4,1,NA,NA
"537",209,"second",17,1,1,5,1,NA,NA
"538",209,"second",18,1,1,5,1,NA,NA
"539",209,"second",19,1,1,2,1,NA,NA
"540",209,"second",20,1,1,1,1,NA,NA
"541",209,"second",21,1,1,1,0,NA,NA
"542",209,"second",22,1,1,6,0,NA,NA
"543",209,"second",23,1,1,4,0,NA,NA
"544",209,"second",24,1,1,2,0,NA,NA
"545",209,"second",25,1,1,5,0,NA,NA
"546",209,"second",26,1,1,6,0,NA,NA
"547",209,"second",27,1,1,5,0,NA,NA
"548",209,"second",28,1,1,6,0,NA,NA
"549",209,"second",29,1,1,5,0,NA,NA
"550",209,"second",30,1,1,5,0,NA,NA
"551",209,"second",31,1,1,5,0,NA,NA
"552",209,"second",32,1,1,2,0,NA,NA
"553",209,"second",33,1,1,5,0,NA,NA
"554",209,"second",34,1,1,5,0,NA,NA
"555",209,"second",35,1,1,2,0,NA,NA
"556",209,"second",36,1,1,5,0,NA,NA
"557",209,"second",37,1,1,1,0,NA,NA
"558",209,"second",38,1,1,4,0,NA,NA
"559",209,"second",39,1,1,5,0,NA,NA
"560",209,"second",40,1,1,6,0,NA,NA
"561",213,"second",1,1,1,6,1,NA,NA
"562",213,"second",2,1,1,6,1,NA,NA
"563",213,"second",3,1,1,4,1,NA,NA
"564",213,"second",4,1,1,5,1,NA,NA
"565",213,"second",5,1,1,5,1,NA,NA
"566",213,"second",6,1,1,5,1,NA,NA
"567",213,"second",7,1,1,5,1,NA,NA
"568",213,"second",8,1,1,3,1,NA,NA
"569",213,"second",9,1,1,6,1,NA,NA
"570",213,"second",10,1,1,5,1,NA,NA
"571",213,"second",11,1,1,6,1,NA,NA
"572",213,"second",12,1,1,6,1,NA,NA
"573",213,"second",13,1,1,3,1,NA,NA
"574",213,"second",14,1,1,5,1,NA,NA
"575",213,"second",15,1,1,5,1,NA,NA
"576",213,"second",16,1,1,3,1,NA,NA
"577",213,"second",17,1,1,6,1,NA,NA
"578",213,"second",18,1,1,4,1,NA,NA
"579",213,"second",19,1,1,5,1,NA,NA
"580",213,"second",20,1,1,5,1,NA,NA
"581",213,"second",21,1,1,5,0,NA,NA
"582",213,"second",22,1,1,3,0,NA,NA
"583",213,"second",23,1,1,3,0,NA,NA
"584",213,"second",24,1,1,3,0,NA,NA
"585",213,"second",25,1,1,3,0,NA,NA
"586",213,"second",26,1,1,3,0,NA,NA
"587",213,"second",27,1,1,3,0,NA,NA
"588",213,"second",28,1,1,3,0,NA,NA
"589",213,"second",29,1,1,3,0,NA,NA
"590",213,"second",30,1,1,3,0,NA,NA
"591",213,"second",31,1,1,3,0,NA,NA
"592",213,"second",32,1,1,3,0,NA,NA
"593",213,"second",33,1,1,3,0,NA,NA
"594",213,"second",34,1,1,3,0,NA,NA
"595",213,"second",35,1,1,3,0,NA,NA
"596",213,"second",36,1,1,3,0,NA,NA
"597",213,"second",37,1,1,3,0,NA,NA
"598",213,"second",38,1,1,3,0,NA,NA
"599",213,"second",39,1,1,3,0,NA,NA
"600",213,"second",40,1,1,5,0,NA,NA
"601",219,"second",1,1,1,5,1,NA,NA
"602",219,"second",2,1,1,6,1,NA,NA
"603",219,"second",3,1,1,6,1,NA,NA
"604",219,"second",4,1,1,6,1,NA,NA
"605",219,"second",5,1,1,3,1,NA,NA
"606",219,"second",6,1,1,6,1,NA,NA
"607",219,"second",7,1,1,5,1,NA,NA
"608",219,"second",8,1,1,5,1,NA,NA
"609",219,"second",9,1,1,4,1,NA,NA
"610",219,"second",10,1,1,5,1,NA,NA
"611",219,"second",11,1,1,6,1,NA,NA
"612",219,"second",12,1,1,6,1,NA,NA
"613",219,"second",13,1,1,6,1,NA,NA
"614",219,"second",14,1,1,5,1,NA,NA
"615",219,"second",15,1,1,2,1,NA,NA
"616",219,"second",16,1,1,6,1,NA,NA
"617",219,"second",17,1,1,5,1,NA,NA
"618",219,"second",18,1,1,6,1,NA,NA
"619",219,"second",19,1,1,6,1,NA,NA
"620",219,"second",20,1,1,4,1,NA,NA
"621",219,"second",21,1,1,1,0,NA,NA
"622",219,"second",22,1,1,4,0,NA,NA
"623",219,"second",23,1,1,3,0,NA,NA
"624",219,"second",24,1,1,3,0,NA,NA
"625",219,"second",25,1,1,6,0,NA,NA
"626",219,"second",26,1,1,4,0,NA,NA
"627",219,"second",27,1,1,4,0,NA,NA
"628",219,"second",28,1,1,6,0,NA,NA
"629",219,"second",29,1,1,4,0,NA,NA
"630",219,"second",30,1,1,5,0,NA,NA
"631",219,"second",31,1,1,2,0,NA,NA
"632",219,"second",32,1,1,4,0,NA,NA
"633",219,"second",33,1,1,3,0,NA,NA
"634",219,"second",34,1,1,1,0,NA,NA
"635",219,"second",35,1,1,3,0,NA,NA
"636",219,"second",36,1,1,4,0,NA,NA
"637",219,"second",37,1,1,3,0,NA,NA
"638",219,"second",38,1,1,2,0,NA,NA
"639",219,"second",39,1,1,5,0,NA,NA
"640",219,"second",40,1,1,4,0,NA,NA
"641",221,"second",1,1,1,6,1,NA,NA
"642",221,"second",2,1,1,6,1,NA,NA
"643",221,"second",3,1,1,3,1,NA,NA
"644",221,"second",4,1,1,6,1,NA,NA
"645",221,"second",5,1,1,6,1,NA,NA
"646",221,"second",6,1,1,1,1,NA,NA
"647",221,"second",7,1,1,6,1,NA,NA
"648",221,"second",8,1,1,1,1,NA,NA
"649",221,"second",9,1,1,1,1,NA,NA
"650",221,"second",10,1,1,1,1,NA,NA
"651",221,"second",11,1,1,4,1,NA,NA
"652",221,"second",12,1,1,6,1,NA,NA
"653",221,"second",13,1,1,1,1,NA,NA
"654",221,"second",14,1,1,6,1,NA,NA
"655",221,"second",15,1,1,1,1,NA,NA
"656",221,"second",16,1,1,1,1,NA,NA
"657",221,"second",17,1,1,1,1,NA,NA
"658",221,"second",18,1,1,6,1,NA,NA
"659",221,"second",19,1,1,6,1,NA,NA
"660",221,"second",20,1,1,1,1,NA,NA
"661",221,"second",21,1,1,6,0,NA,NA
"662",221,"second",22,1,1,6,0,NA,NA
"663",221,"second",23,1,1,5,0,NA,NA
"664",221,"second",24,1,1,3,0,NA,NA
"665",221,"second",25,1,1,1,0,NA,NA
"666",221,"second",26,1,1,4,0,NA,NA
"667",221,"second",27,1,1,6,0,NA,NA
"668",221,"second",28,1,1,6,0,NA,NA
"669",221,"second",29,1,1,1,0,NA,NA
"670",221,"second",30,1,1,6,0,NA,NA
"671",221,"second",31,1,1,1,0,NA,NA
"672",221,"second",32,1,1,6,0,NA,NA
"673",221,"second",33,1,1,1,0,NA,NA
"674",221,"second",34,1,1,1,0,NA,NA
"675",221,"second",35,1,1,2,0,NA,NA
"676",221,"second",36,1,1,2,0,NA,NA
"677",221,"second",37,1,1,6,0,NA,NA
"678",221,"second",38,1,1,6,0,NA,NA
"679",221,"second",39,1,1,3,0,NA,NA
"680",221,"second",40,1,1,4,0,NA,NA
"681",264,"second",1,1,1,5,1,NA,NA
"682",264,"second",2,1,1,6,1,NA,NA
"683",264,"second",3,1,1,6,1,NA,NA
"684",264,"second",4,1,1,6,1,NA,NA
"685",264,"second",5,1,1,6,1,NA,NA
"686",264,"second",6,1,1,6,1,NA,NA
"687",264,"second",7,1,1,5,1,NA,NA
"688",264,"second",8,1,1,6,1,NA,NA
"689",264,"second",9,1,1,6,1,NA,NA
"690",264,"second",10,1,1,6,1,NA,NA
"691",264,"second",11,1,1,6,1,NA,NA
"692",264,"second",12,1,1,5,1,NA,NA
"693",264,"second",13,1,1,6,1,NA,NA
"694",264,"second",14,1,1,6,1,NA,NA
"695",264,"second",15,1,1,6,1,NA,NA
"696",264,"second",16,1,1,4,1,NA,NA
"697",264,"second",17,1,1,6,1,NA,NA
"698",264,"second",18,1,1,6,1,NA,NA
"699",264,"second",19,1,1,6,1,NA,NA
"700",264,"second",20,1,1,4,1,NA,NA
"701",264,"second",21,1,1,1,0,NA,NA
"702",264,"second",22,1,1,4,0,NA,NA
"703",264,"second",23,1,1,5,0,NA,NA
"704",264,"second",24,1,1,4,0,NA,NA
"705",264,"second",25,1,1,3,0,NA,NA
"706",264,"second",26,1,1,5,0,NA,NA
"707",264,"second",27,1,1,3,0,NA,NA
"708",264,"second",28,1,1,6,0,NA,NA
"709",264,"second",29,1,1,6,0,NA,NA
"710",264,"second",30,1,1,5,0,NA,NA
"711",264,"second",31,1,1,5,0,NA,NA
"712",264,"second",32,1,1,5,0,NA,NA
"713",264,"second",33,1,1,4,0,NA,NA
"714",264,"second",34,1,1,1,0,NA,NA
"715",264,"second",35,1,1,4,0,NA,NA
"716",264,"second",36,1,1,5,0,NA,NA
"717",264,"second",37,1,1,4,0,NA,NA
"718",264,"second",38,1,1,4,0,NA,NA
"719",264,"second",39,1,1,5,0,NA,NA
"720",264,"second",40,1,1,4,0,NA,NA
"721",277,"second",1,1,1,6,1,NA,NA
"722",277,"second",2,1,1,5,1,NA,NA
"723",277,"second",3,1,1,2,1,NA,NA
"724",277,"second",4,1,1,3,1,NA,NA
"725",277,"second",5,1,1,1,1,NA,NA
"726",277,"second",6,1,1,4,1,NA,NA
"727",277,"second",7,1,1,5,1,NA,NA
"728",277,"second",8,1,1,3,1,NA,NA
"729",277,"second",9,1,1,4,1,NA,NA
"730",277,"second",10,1,1,3,1,NA,NA
"731",277,"second",11,1,1,5,1,NA,NA
"732",277,"second",12,1,1,3,1,NA,NA
"733",277,"second",13,1,1,4,1,NA,NA
"734",277,"second",14,1,1,5,1,NA,NA
"735",277,"second",15,1,1,6,1,NA,NA
"736",277,"second",16,1,1,4,1,NA,NA
"737",277,"second",17,1,1,3,1,NA,NA
"738",277,"second",18,1,1,6,1,NA,NA
"739",277,"second",19,1,1,4,1,NA,NA
"740",277,"second",20,1,1,5,1,NA,NA
"741",277,"second",21,1,1,3,0,NA,NA
"742",277,"second",22,1,1,4,0,NA,NA
"743",277,"second",23,1,1,4,0,NA,NA
"744",277,"second",24,1,1,5,0,NA,NA
"745",277,"second",25,1,1,5,0,NA,NA
"746",277,"second",26,1,1,2,0,NA,NA
"747",277,"second",27,1,1,1,0,NA,NA
"748",277,"second",28,1,1,4,0,NA,NA
"749",277,"second",29,1,1,5,0,NA,NA
"750",277,"second",30,1,1,2,0,NA,NA
"751",277,"second",31,1,1,4,0,NA,NA
"752",277,"second",32,1,1,3,0,NA,NA
"753",277,"second",33,1,1,5,0,NA,NA
"754",277,"second",34,1,1,4,0,NA,NA
"755",277,"second",35,1,1,5,0,NA,NA
"756",277,"second",36,1,1,4,0,NA,NA
"757",277,"second",37,1,1,3,0,NA,NA
"758",277,"second",38,1,1,4,0,NA,NA
"759",277,"second",39,1,1,3,0,NA,NA
"760",277,"second",40,1,1,2,0,NA,NA
"761",6,"second",1,1,1,5,0,NA,NA
"762",6,"second",2,1,1,2,0,NA,NA
"763",6,"second",3,1,1,2,0,NA,NA
"764",6,"second",4,1,1,6,0,NA,NA
"765",6,"second",5,1,1,5,0,NA,NA
"766",6,"second",6,1,1,5,0,NA,NA
"767",6,"second",7,1,1,5,0,NA,NA
"768",6,"second",8,1,1,5,0,NA,NA
"769",6,"second",9,1,1,3,0,NA,NA
"770",6,"second",10,1,1,5,0,NA,NA
"771",6,"second",11,1,1,3,0,NA,NA
"772",6,"second",12,1,1,5,0,NA,NA
"773",6,"second",13,1,1,5,0,NA,NA
"774",6,"second",14,1,1,5,0,NA,NA
"775",6,"second",15,1,1,2,0,NA,NA
"776",6,"second",16,1,1,5,0,NA,NA
"777",6,"second",17,1,1,5,0,NA,NA
"778",6,"second",18,1,1,4,0,NA,NA
"779",6,"second",19,1,1,3,0,NA,NA
"780",6,"second",20,1,1,4,0,NA,NA
"781",6,"second",21,1,1,2,1,NA,NA
"782",6,"second",22,1,1,5,1,NA,NA
"783",6,"second",23,1,1,5,1,NA,NA
"784",6,"second",24,1,1,4,1,NA,NA
"785",6,"second",25,1,1,5,1,NA,NA
"786",6,"second",26,1,1,6,1,NA,NA
"787",6,"second",27,1,1,5,1,NA,NA
"788",6,"second",28,1,1,5,1,NA,NA
"789",6,"second",29,1,1,5,1,NA,NA
"790",6,"second",30,1,1,5,1,NA,NA
"791",6,"second",31,1,1,4,1,NA,NA
"792",6,"second",32,1,1,5,1,NA,NA
"793",6,"second",33,1,1,4,1,NA,NA
"794",6,"second",34,1,1,2,1,NA,NA
"795",6,"second",35,1,1,6,1,NA,NA
"796",6,"second",36,1,1,4,1,NA,NA
"797",6,"second",37,1,1,4,1,NA,NA
"798",6,"second",38,1,1,4,1,NA,NA
"799",6,"second",39,1,1,3,1,NA,NA
"800",6,"second",40,1,1,5,1,NA,NA
"801",45,"second",1,1,1,5,0,NA,NA
"802",45,"second",2,1,1,5,0,NA,NA
"803",45,"second",3,1,1,5,0,NA,NA
"804",45,"second",4,1,1,5,0,NA,NA
"805",45,"second",5,1,1,4,0,NA,NA
"806",45,"second",6,1,1,5,0,NA,NA
"807",45,"second",7,1,1,4,0,NA,NA
"808",45,"second",8,1,1,3,0,NA,NA
"809",45,"second",9,1,1,3,0,NA,NA
"810",45,"second",10,1,1,3,0,NA,NA
"811",45,"second",11,1,1,2,0,NA,NA
"812",45,"second",12,1,1,6,0,NA,NA
"813",45,"second",13,1,1,6,0,NA,NA
"814",45,"second",14,1,1,3,0,NA,NA
"815",45,"second",15,1,1,2,0,NA,NA
"816",45,"second",16,1,1,2,0,NA,NA
"817",45,"second",17,1,1,4,0,NA,NA
"818",45,"second",18,1,1,5,0,NA,NA
"819",45,"second",19,1,1,3,0,NA,NA
"820",45,"second",20,1,1,5,0,NA,NA
"821",45,"second",21,1,1,2,1,NA,NA
"822",45,"second",22,1,1,5,1,NA,NA
"823",45,"second",23,1,1,5,1,NA,NA
"824",45,"second",24,1,1,4,1,NA,NA
"825",45,"second",25,1,1,5,1,NA,NA
"826",45,"second",26,1,1,5,1,NA,NA
"827",45,"second",27,1,1,3,1,NA,NA
"828",45,"second",28,1,1,5,1,NA,NA
"829",45,"second",29,1,1,6,1,NA,NA
"830",45,"second",30,1,1,5,1,NA,NA
"831",45,"second",31,1,1,5,1,NA,NA
"832",45,"second",32,1,1,6,1,NA,NA
"833",45,"second",33,1,1,4,1,NA,NA
"834",45,"second",34,1,1,5,1,NA,NA
"835",45,"second",35,1,1,5,1,NA,NA
"836",45,"second",36,1,1,4,1,NA,NA
"837",45,"second",37,1,1,5,1,NA,NA
"838",45,"second",38,1,1,2,1,NA,NA
"839",45,"second",39,1,1,4,1,NA,NA
"840",45,"second",40,1,1,5,1,NA,NA
"841",99,"second",1,1,1,6,0,NA,NA
"842",99,"second",2,1,1,4,0,NA,NA
"843",99,"second",3,1,1,3,0,NA,NA
"844",99,"second",4,1,1,3,0,NA,NA
"845",99,"second",5,1,1,6,0,NA,NA
"846",99,"second",6,1,1,3,0,NA,NA
"847",99,"second",7,1,1,3,0,NA,NA
"848",99,"second",8,1,1,5,0,NA,NA
"849",99,"second",9,1,1,3,0,NA,NA
"850",99,"second",10,1,1,4,0,NA,NA
"851",99,"second",11,1,1,3,0,NA,NA
"852",99,"second",12,1,1,3,0,NA,NA
"853",99,"second",13,1,1,6,0,NA,NA
"854",99,"second",14,1,1,5,0,NA,NA
"855",99,"second",15,1,1,6,0,NA,NA
"856",99,"second",16,1,1,3,0,NA,NA
"857",99,"second",17,1,1,3,0,NA,NA
"858",99,"second",18,1,1,5,0,NA,NA
"859",99,"second",19,1,1,3,0,NA,NA
"860",99,"second",20,1,1,3,0,NA,NA
"861",99,"second",21,1,1,6,1,NA,NA
"862",99,"second",22,1,1,6,1,NA,NA
"863",99,"second",23,1,1,4,1,NA,NA
"864",99,"second",24,1,1,5,1,NA,NA
"865",99,"second",25,1,1,3,1,NA,NA
"866",99,"second",26,1,1,6,1,NA,NA
"867",99,"second",27,1,1,6,1,NA,NA
"868",99,"second",28,1,1,5,1,NA,NA
"869",99,"second",29,1,1,5,1,NA,NA
"870",99,"second",30,1,1,6,1,NA,NA
"871",99,"second",31,1,1,5,1,NA,NA
"872",99,"second",32,1,1,6,1,NA,NA
"873",99,"second",33,1,1,3,1,NA,NA
"874",99,"second",34,1,1,6,1,NA,NA
"875",99,"second",35,1,1,6,1,NA,NA
"876",99,"second",36,1,1,6,1,NA,NA
"877",99,"second",37,1,1,6,1,NA,NA
"878",99,"second",38,1,1,5,1,NA,NA
"879",99,"second",39,1,1,5,1,NA,NA
"880",99,"second",40,1,1,3,1,NA,NA
"881",108,"second",1,1,1,5,0,NA,NA
"882",108,"second",2,1,1,2,0,NA,NA
"883",108,"second",3,1,1,3,0,NA,NA
"884",108,"second",4,1,1,4,0,NA,NA
"885",108,"second",5,1,1,2,0,NA,NA
"886",108,"second",6,1,1,4,0,NA,NA
"887",108,"second",7,1,1,3,0,NA,NA
"888",108,"second",8,1,1,3,0,NA,NA
"889",108,"second",9,1,1,2,0,NA,NA
"890",108,"second",10,1,1,4,0,NA,NA
"891",108,"second",11,1,1,4,0,NA,NA
"892",108,"second",12,1,1,6,0,NA,NA
"893",108,"second",13,1,1,5,0,NA,NA
"894",108,"second",14,1,1,3,0,NA,NA
"895",108,"second",15,1,1,3,0,NA,NA
"896",108,"second",16,1,1,3,0,NA,NA
"897",108,"second",17,1,1,5,0,NA,NA
"898",108,"second",18,1,1,3,0,NA,NA
"899",108,"second",19,1,1,4,0,NA,NA
"900",108,"second",20,1,1,3,0,NA,NA
"901",108,"second",21,1,1,4,1,NA,NA
"902",108,"second",22,1,1,5,1,NA,NA
"903",108,"second",23,1,1,6,1,NA,NA
"904",108,"second",24,1,1,5,1,NA,NA
"905",108,"second",25,1,1,5,1,NA,NA
"906",108,"second",26,1,1,5,1,NA,NA
"907",108,"second",27,1,1,6,1,NA,NA
"908",108,"second",28,1,1,6,1,NA,NA
"909",108,"second",29,1,1,6,1,NA,NA
"910",108,"second",30,1,1,6,1,NA,NA
"911",108,"second",31,1,1,6,1,NA,NA
"912",108,"second",32,1,1,6,1,NA,NA
"913",108,"second",33,1,1,6,1,NA,NA
"914",108,"second",34,1,1,6,1,NA,NA
"915",108,"second",35,1,1,3,1,NA,NA
"916",108,"second",36,1,1,6,1,NA,NA
"917",108,"second",37,1,1,6,1,NA,NA
"918",108,"second",38,1,1,6,1,NA,NA
"919",108,"second",39,1,1,6,1,NA,NA
"920",108,"second",40,1,1,5,1,NA,NA
"921",109,"second",1,1,1,4,0,NA,NA
"922",109,"second",2,1,1,6,0,NA,NA
"923",109,"second",3,1,1,3,0,NA,NA
"924",109,"second",4,1,1,4,0,NA,NA
"925",109,"second",5,1,1,1,0,NA,NA
"926",109,"second",6,1,1,3,0,NA,NA
"927",109,"second",7,1,1,3,0,NA,NA
"928",109,"second",8,1,1,4,0,NA,NA
"929",109,"second",9,1,1,4,0,NA,NA
"930",109,"second",10,1,1,4,0,NA,NA
"931",109,"second",11,1,1,3,0,NA,NA
"932",109,"second",12,1,1,3,0,NA,NA
"933",109,"second",13,1,1,3,0,NA,NA
"934",109,"second",14,1,1,3,0,NA,NA
"935",109,"second",15,1,1,4,0,NA,NA
"936",109,"second",16,1,1,3,0,NA,NA
"937",109,"second",17,1,1,4,0,NA,NA
"938",109,"second",18,1,1,4,0,NA,NA
"939",109,"second",19,1,1,4,0,NA,NA
"940",109,"second",20,1,1,3,0,NA,NA
"941",109,"second",21,1,1,3,1,NA,NA
"942",109,"second",22,1,1,4,1,NA,NA
"943",109,"second",23,1,1,4,1,NA,NA
"944",109,"second",24,1,1,3,1,NA,NA
"945",109,"second",25,1,1,3,1,NA,NA
"946",109,"second",26,1,1,3,1,NA,NA
"947",109,"second",27,1,1,3,1,NA,NA
"948",109,"second",28,1,1,5,1,NA,NA
"949",109,"second",29,1,1,3,1,NA,NA
"950",109,"second",30,1,1,3,1,NA,NA
"951",109,"second",31,1,1,4,1,NA,NA
"952",109,"second",32,1,1,3,1,NA,NA
"953",109,"second",33,1,1,3,1,NA,NA
"954",109,"second",34,1,1,6,1,NA,NA
"955",109,"second",35,1,1,6,1,NA,NA
"956",109,"second",36,1,1,6,1,NA,NA
"957",109,"second",37,1,1,6,1,NA,NA
"958",109,"second",38,1,1,4,1,NA,NA
"959",109,"second",39,1,1,4,1,NA,NA
"960",109,"second",40,1,1,4,1,NA,NA
"961",178,"second",1,1,1,4,0,NA,NA
"962",178,"second",2,1,1,5,0,NA,NA
"963",178,"second",3,1,1,4,0,NA,NA
"964",178,"second",4,1,1,4,0,NA,NA
"965",178,"second",5,1,1,2,0,NA,NA
"966",178,"second",6,1,1,3,0,NA,NA
"967",178,"second",7,1,1,3,0,NA,NA
"968",178,"second",8,1,1,3,0,NA,NA
"969",178,"second",9,1,1,2,0,NA,NA
"970",178,"second",10,1,1,2,0,NA,NA
"971",178,"second",11,1,1,5,0,NA,NA
"972",178,"second",12,1,1,3,0,NA,NA
"973",178,"second",13,1,1,5,0,NA,NA
"974",178,"second",14,1,1,3,0,NA,NA
"975",178,"second",15,1,1,3,0,NA,NA
"976",178,"second",16,1,1,3,0,NA,NA
"977",178,"second",17,1,1,4,0,NA,NA
"978",178,"second",18,1,1,3,0,NA,NA
"979",178,"second",19,1,1,3,0,NA,NA
"980",178,"second",20,1,1,3,0,NA,NA
"981",178,"second",21,1,1,2,1,NA,NA
"982",178,"second",22,1,1,5,1,NA,NA
"983",178,"second",23,1,1,4,1,NA,NA
"984",178,"second",24,1,1,3,1,NA,NA
"985",178,"second",25,1,1,2,1,NA,NA
"986",178,"second",26,1,1,4,1,NA,NA
"987",178,"second",27,1,1,4,1,NA,NA
"988",178,"second",28,1,1,5,1,NA,NA
"989",178,"second",29,1,1,6,1,NA,NA
"990",178,"second",30,1,1,5,1,NA,NA
"991",178,"second",31,1,1,2,1,NA,NA
"992",178,"second",32,1,1,6,1,NA,NA
"993",178,"second",33,1,1,4,1,NA,NA
"994",178,"second",34,1,1,5,1,NA,NA
"995",178,"second",35,1,1,4,1,NA,NA
"996",178,"second",36,1,1,4,1,NA,NA
"997",178,"second",37,1,1,4,1,NA,NA
"998",178,"second",38,1,1,3,1,NA,NA
"999",178,"second",39,1,1,5,1,NA,NA
"1000",178,"second",40,1,1,2,1,NA,NA
"1001",184,"second",1,1,1,5,0,NA,NA
"1002",184,"second",2,1,1,1,0,NA,NA
"1003",184,"second",3,1,1,6,0,NA,NA
"1004",184,"second",4,1,1,4,0,NA,NA
"1005",184,"second",5,1,1,5,0,NA,NA
"1006",184,"second",6,1,1,5,0,NA,NA
"1007",184,"second",7,1,1,3,0,NA,NA
"1008",184,"second",8,1,1,3,0,NA,NA
"1009",184,"second",9,1,1,4,0,NA,NA
"1010",184,"second",10,1,1,1,0,NA,NA
"1011",184,"second",11,1,1,4,0,NA,NA
"1012",184,"second",12,1,1,4,0,NA,NA
"1013",184,"second",13,1,1,5,0,NA,NA
"1014",184,"second",14,1,1,1,0,NA,NA
"1015",184,"second",15,1,1,1,0,NA,NA
"1016",184,"second",16,1,1,3,0,NA,NA
"1017",184,"second",17,1,1,2,0,NA,NA
"1018",184,"second",18,1,1,4,0,NA,NA
"1019",184,"second",19,1,1,3,0,NA,NA
"1020",184,"second",20,1,1,4,0,NA,NA
"1021",184,"second",21,1,1,6,1,NA,NA
"1022",184,"second",22,1,1,6,1,NA,NA
"1023",184,"second",23,1,1,6,1,NA,NA
"1024",184,"second",24,1,1,6,1,NA,NA
"1025",184,"second",25,1,1,6,1,NA,NA
"1026",184,"second",26,1,1,6,1,NA,NA
"1027",184,"second",27,1,1,6,1,NA,NA
"1028",184,"second",28,1,1,6,1,NA,NA
"1029",184,"second",29,1,1,6,1,NA,NA
"1030",184,"second",30,1,1,6,1,NA,NA
"1031",184,"second",31,1,1,6,1,NA,NA
"1032",184,"second",32,1,1,6,1,NA,NA
"1033",184,"second",33,1,1,6,1,NA,NA
"1034",184,"second",34,1,1,6,1,NA,NA
"1035",184,"second",35,1,1,6,1,NA,NA
"1036",184,"second",36,1,1,6,1,NA,NA
"1037",184,"second",37,1,1,6,1,NA,NA
"1038",184,"second",38,1,1,4,1,NA,NA
"1039",184,"second",39,1,1,6,1,NA,NA
"1040",184,"second",40,1,1,6,1,NA,NA
"1041",188,"second",1,1,1,6,0,NA,NA
"1042",188,"second",2,1,1,1,0,NA,NA
"1043",188,"second",3,1,1,4,0,NA,NA
"1044",188,"second",4,1,1,6,0,NA,NA
"1045",188,"second",5,1,1,4,0,NA,NA
"1046",188,"second",6,1,1,3,0,NA,NA
"1047",188,"second",7,1,1,3,0,NA,NA
"1048",188,"second",8,1,1,1,0,NA,NA
"1049",188,"second",9,1,1,4,0,NA,NA
"1050",188,"second",10,1,1,4,0,NA,NA
"1051",188,"second",11,1,1,5,0,NA,NA
"1052",188,"second",12,1,1,1,0,NA,NA
"1053",188,"second",13,1,1,4,0,NA,NA
"1054",188,"second",14,1,1,4,0,NA,NA
"1055",188,"second",15,1,1,6,0,NA,NA
"1056",188,"second",16,1,1,6,0,NA,NA
"1057",188,"second",17,1,1,4,0,NA,NA
"1058",188,"second",18,1,1,6,0,NA,NA
"1059",188,"second",19,1,1,6,0,NA,NA
"1060",188,"second",20,1,1,6,0,NA,NA
"1061",188,"second",21,1,1,6,1,NA,NA
"1062",188,"second",22,1,1,1,1,NA,NA
"1063",188,"second",23,1,1,6,1,NA,NA
"1064",188,"second",24,1,1,4,1,NA,NA
"1065",188,"second",25,1,1,3,1,NA,NA
"1066",188,"second",26,1,1,6,1,NA,NA
"1067",188,"second",27,1,1,5,1,NA,NA
"1068",188,"second",28,1,1,6,1,NA,NA
"1069",188,"second",29,1,1,6,1,NA,NA
"1070",188,"second",30,1,1,6,1,NA,NA
"1071",188,"second",31,1,1,4,1,NA,NA
"1072",188,"second",32,1,1,6,1,NA,NA
"1073",188,"second",33,1,1,6,1,NA,NA
"1074",188,"second",34,1,1,4,1,NA,NA
"1075",188,"second",35,1,1,6,1,NA,NA
"1076",188,"second",36,1,1,5,1,NA,NA
"1077",188,"second",37,1,1,6,1,NA,NA
"1078",188,"second",38,1,1,6,1,NA,NA
"1079",188,"second",39,1,1,5,1,NA,NA
"1080",188,"second",40,1,1,4,1,NA,NA
"1081",190,"second",1,1,1,3,0,NA,NA
"1082",190,"second",2,1,1,6,0,NA,NA
"1083",190,"second",3,1,1,3,0,NA,NA
"1084",190,"second",4,1,1,2,0,NA,NA
"1085",190,"second",5,1,1,2,0,NA,NA
"1086",190,"second",6,1,1,6,0,NA,NA
"1087",190,"second",7,1,1,3,0,NA,NA
"1088",190,"second",8,1,1,4,0,NA,NA
"1089",190,"second",9,1,1,4,0,NA,NA
"1090",190,"second",10,1,1,3,0,NA,NA
"1091",190,"second",11,1,1,5,0,NA,NA
"1092",190,"second",12,1,1,5,0,NA,NA
"1093",190,"second",13,1,1,4,0,NA,NA
"1094",190,"second",14,1,1,3,0,NA,NA
"1095",190,"second",15,1,1,4,0,NA,NA
"1096",190,"second",16,1,1,3,0,NA,NA
"1097",190,"second",17,1,1,4,0,NA,NA
"1098",190,"second",18,1,1,5,0,NA,NA
"1099",190,"second",19,1,1,5,0,NA,NA
"1100",190,"second",20,1,1,3,0,NA,NA
"1101",190,"second",21,1,1,4,1,NA,NA
"1102",190,"second",22,1,1,4,1,NA,NA
"1103",190,"second",23,1,1,3,1,NA,NA
"1104",190,"second",24,1,1,3,1,NA,NA
"1105",190,"second",25,1,1,5,1,NA,NA
"1106",190,"second",26,1,1,5,1,NA,NA
"1107",190,"second",27,1,1,4,1,NA,NA
"1108",190,"second",28,1,1,5,1,NA,NA
"1109",190,"second",29,1,1,4,1,NA,NA
"1110",190,"second",30,1,1,5,1,NA,NA
"1111",190,"second",31,1,1,3,1,NA,NA
"1112",190,"second",32,1,1,5,1,NA,NA
"1113",190,"second",33,1,1,5,1,NA,NA
"1114",190,"second",34,1,1,2,1,NA,NA
"1115",190,"second",35,1,1,5,1,NA,NA
"1116",190,"second",36,1,1,4,1,NA,NA
"1117",190,"second",37,1,1,3,1,NA,NA
"1118",190,"second",38,1,1,4,1,NA,NA
"1119",190,"second",39,1,1,4,1,NA,NA
"1120",190,"second",40,1,1,3,1,NA,NA
"1121",205,"second",1,1,1,6,0,NA,NA
"1122",205,"second",2,1,1,2,0,NA,NA
"1123",205,"second",3,1,1,5,0,NA,NA
"1124",205,"second",4,1,1,4,0,NA,NA
"1125",205,"second",5,1,1,6,0,NA,NA
"1126",205,"second",6,1,1,5,0,NA,NA
"1127",205,"second",7,1,1,3,0,NA,NA
"1128",205,"second",8,1,1,3,0,NA,NA
"1129",205,"second",9,1,1,1,0,NA,NA
"1130",205,"second",10,1,1,1,0,NA,NA
"1131",205,"second",11,1,1,5,0,NA,NA
"1132",205,"second",12,1,1,5,0,NA,NA
"1133",205,"second",13,1,1,1,0,NA,NA
"1134",205,"second",14,1,1,5,0,NA,NA
"1135",205,"second",15,1,1,1,0,NA,NA
"1136",205,"second",16,1,1,1,0,NA,NA
"1137",205,"second",17,1,1,5,0,NA,NA
"1138",205,"second",18,1,1,5,0,NA,NA
"1139",205,"second",19,1,1,4,0,NA,NA
"1140",205,"second",20,1,1,3,0,NA,NA
"1141",205,"second",21,1,1,2,1,NA,NA
"1142",205,"second",22,1,1,3,1,NA,NA
"1143",205,"second",23,1,1,5,1,NA,NA
"1144",205,"second",24,1,1,3,1,NA,NA
"1145",205,"second",25,1,1,3,1,NA,NA
"1146",205,"second",26,1,1,6,1,NA,NA
"1147",205,"second",27,1,1,6,1,NA,NA
"1148",205,"second",28,1,1,6,1,NA,NA
"1149",205,"second",29,1,1,5,1,NA,NA
"1150",205,"second",30,1,1,4,1,NA,NA
"1151",205,"second",31,1,1,3,1,NA,NA
"1152",205,"second",32,1,1,5,1,NA,NA
"1153",205,"second",33,1,1,5,1,NA,NA
"1154",205,"second",34,1,1,4,1,NA,NA
"1155",205,"second",35,1,1,6,1,NA,NA
"1156",205,"second",36,1,1,6,1,NA,NA
"1157",205,"second",37,1,1,1,1,NA,NA
"1158",205,"second",38,1,1,3,1,NA,NA
"1159",205,"second",39,1,1,4,1,NA,NA
"1160",205,"second",40,1,1,5,1,NA,NA
"1161",246,"second",1,1,1,3,0,NA,NA
"1162",246,"second",2,1,1,2,0,NA,NA
"1163",246,"second",3,1,1,3,0,NA,NA
"1164",246,"second",4,1,1,4,0,NA,NA
"1165",246,"second",5,1,1,2,0,NA,NA
"1166",246,"second",6,1,1,5,0,NA,NA
"1167",246,"second",7,1,1,3,0,NA,NA
"1168",246,"second",8,1,1,5,0,NA,NA
"1169",246,"second",9,1,1,2,0,NA,NA
"1170",246,"second",10,1,1,2,0,NA,NA
"1171",246,"second",11,1,1,1,0,NA,NA
"1172",246,"second",12,1,1,5,0,NA,NA
"1173",246,"second",13,1,1,5,0,NA,NA
"1174",246,"second",14,1,1,3,0,NA,NA
"1175",246,"second",15,1,1,1,0,NA,NA
"1176",246,"second",16,1,1,3,0,NA,NA
"1177",246,"second",17,1,1,1,0,NA,NA
"1178",246,"second",18,1,1,2,0,NA,NA
"1179",246,"second",19,1,1,1,0,NA,NA
"1180",246,"second",20,1,1,3,0,NA,NA
"1181",246,"second",21,1,1,1,1,NA,NA
"1182",246,"second",22,1,1,2,1,NA,NA
"1183",246,"second",23,1,1,5,1,NA,NA
"1184",246,"second",24,1,1,3,1,NA,NA
"1185",246,"second",25,1,1,4,1,NA,NA
"1186",246,"second",26,1,1,2,1,NA,NA
"1187",246,"second",27,1,1,5,1,NA,NA
"1188",246,"second",28,1,1,5,1,NA,NA
"1189",246,"second",29,1,1,3,1,NA,NA
"1190",246,"second",30,1,1,2,1,NA,NA
"1191",246,"second",31,1,1,4,1,NA,NA
"1192",246,"second",32,1,1,5,1,NA,NA
"1193",246,"second",33,1,1,5,1,NA,NA
"1194",246,"second",34,1,1,5,1,NA,NA
"1195",246,"second",35,1,1,5,1,NA,NA
"1196",246,"second",36,1,1,2,1,NA,NA
"1197",246,"second",37,1,1,4,1,NA,NA
"1198",246,"second",38,1,1,5,1,NA,NA
"1199",246,"second",39,1,1,3,1,NA,NA
"1200",246,"second",40,1,1,4,1,NA,NA
"1201",271,"second",1,1,1,4,0,NA,NA
"1202",271,"second",2,1,1,1,0,NA,NA
"1203",271,"second",3,1,1,4,0,NA,NA
"1204",271,"second",4,1,1,3,0,NA,NA
"1205",271,"second",5,1,1,1,0,NA,NA
"1206",271,"second",6,1,1,4,0,NA,NA
"1207",271,"second",7,1,1,4,0,NA,NA
"1208",271,"second",8,1,1,4,0,NA,NA
"1209",271,"second",9,1,1,3,0,NA,NA
"1210",271,"second",10,1,1,3,0,NA,NA
"1211",271,"second",11,1,1,5,0,NA,NA
"1212",271,"second",12,1,1,3,0,NA,NA
"1213",271,"second",13,1,1,5,0,NA,NA
"1214",271,"second",14,1,1,4,0,NA,NA
"1215",271,"second",15,1,1,5,0,NA,NA
"1216",271,"second",16,1,1,4,0,NA,NA
"1217",271,"second",17,1,1,3,0,NA,NA
"1218",271,"second",18,1,1,5,0,NA,NA
"1219",271,"second",19,1,1,4,0,NA,NA
"1220",271,"second",20,1,1,4,0,NA,NA
"1221",271,"second",21,1,1,2,1,NA,NA
"1222",271,"second",22,1,1,4,1,NA,NA
"1223",271,"second",23,1,1,4,1,NA,NA
"1224",271,"second",24,1,1,4,1,NA,NA
"1225",271,"second",25,1,1,6,1,NA,NA
"1226",271,"second",26,1,1,4,1,NA,NA
"1227",271,"second",27,1,1,3,1,NA,NA
"1228",271,"second",28,1,1,6,1,NA,NA
"1229",271,"second",29,1,1,5,1,NA,NA
"1230",271,"second",30,1,1,5,1,NA,NA
"1231",271,"second",31,1,1,5,1,NA,NA
"1232",271,"second",32,1,1,4,1,NA,NA
"1233",271,"second",33,1,1,5,1,NA,NA
"1234",271,"second",34,1,1,4,1,NA,NA
"1235",271,"second",35,1,1,5,1,NA,NA
"1236",271,"second",36,1,1,4,1,NA,NA
"1237",271,"second",37,1,1,5,1,NA,NA
"1238",271,"second",38,1,1,5,1,NA,NA
"1239",271,"second",39,1,1,5,1,NA,NA
"1240",271,"second",40,1,1,4,1,NA,NA
"1241",283,"second",1,1,1,6,0,NA,NA
"1242",283,"second",2,1,1,3,0,NA,NA
"1243",283,"second",3,1,1,3,0,NA,NA
"1244",283,"second",4,1,1,3,0,NA,NA
"1245",283,"second",5,1,1,3,0,NA,NA
"1246",283,"second",6,1,1,3,0,NA,NA
"1247",283,"second",7,1,1,3,0,NA,NA
"1248",283,"second",8,1,1,3,0,NA,NA
"1249",283,"second",9,1,1,3,0,NA,NA
"1250",283,"second",10,1,1,3,0,NA,NA
"1251",283,"second",11,1,1,3,0,NA,NA
"1252",283,"second",12,1,1,6,0,NA,NA
"1253",283,"second",13,1,1,4,0,NA,NA
"1254",283,"second",14,1,1,3,0,NA,NA
"1255",283,"second",15,1,1,3,0,NA,NA
"1256",283,"second",16,1,1,3,0,NA,NA
"1257",283,"second",17,1,1,3,0,NA,NA
"1258",283,"second",18,1,1,3,0,NA,NA
"1259",283,"second",19,1,1,3,0,NA,NA
"1260",283,"second",20,1,1,3,0,NA,NA
"1261",283,"second",21,1,1,5,1,NA,NA
"1262",283,"second",22,1,1,6,1,NA,NA
"1263",283,"second",23,1,1,1,1,NA,NA
"1264",283,"second",24,1,1,1,1,NA,NA
"1265",283,"second",25,1,1,3,1,NA,NA
"1266",283,"second",26,1,1,6,1,NA,NA
"1267",283,"second",27,1,1,1,1,NA,NA
"1268",283,"second",28,1,1,6,1,NA,NA
"1269",283,"second",29,1,1,3,1,NA,NA
"1270",283,"second",30,1,1,6,1,NA,NA
"1271",283,"second",31,1,1,1,1,NA,NA
"1272",283,"second",32,1,1,6,1,NA,NA
"1273",283,"second",33,1,1,3,1,NA,NA
"1274",283,"second",34,1,1,6,1,NA,NA
"1275",283,"second",35,1,1,6,1,NA,NA
"1276",283,"second",36,1,1,6,1,NA,NA
"1277",283,"second",37,1,1,1,1,NA,NA
"1278",283,"second",38,1,1,6,1,NA,NA
"1279",283,"second",39,1,1,6,1,NA,NA
"1280",283,"second",40,1,1,3,1,NA,NA
"1281",289,"second",1,1,1,5,0,NA,NA
"1282",289,"second",2,1,1,5,0,NA,NA
"1283",289,"second",3,1,1,4,0,NA,NA
"1284",289,"second",4,1,1,4,0,NA,NA
"1285",289,"second",5,1,1,5,0,NA,NA
"1286",289,"second",6,1,1,5,0,NA,NA
"1287",289,"second",7,1,1,5,0,NA,NA
"1288",289,"second",8,1,1,4,0,NA,NA
"1289",289,"second",9,1,1,3,0,NA,NA
"1290",289,"second",10,1,1,4,0,NA,NA
"1291",289,"second",11,1,1,4,0,NA,NA
"1292",289,"second",12,1,1,3,0,NA,NA
"1293",289,"second",13,1,1,5,0,NA,NA
"1294",289,"second",14,1,1,3,0,NA,NA
"1295",289,"second",15,1,1,5,0,NA,NA
"1296",289,"second",16,1,1,5,0,NA,NA
"1297",289,"second",17,1,1,5,0,NA,NA
"1298",289,"second",18,1,1,4,0,NA,NA
"1299",289,"second",19,1,1,4,0,NA,NA
"1300",289,"second",20,1,1,3,0,NA,NA
"1301",289,"second",21,1,1,3,1,NA,NA
"1302",289,"second",22,1,1,4,1,NA,NA
"1303",289,"second",23,1,1,4,1,NA,NA
"1304",289,"second",24,1,1,4,1,NA,NA
"1305",289,"second",25,1,1,4,1,NA,NA
"1306",289,"second",26,1,1,5,1,NA,NA
"1307",289,"second",27,1,1,5,1,NA,NA
"1308",289,"second",28,1,1,5,1,NA,NA
"1309",289,"second",29,1,1,5,1,NA,NA
"1310",289,"second",30,1,1,5,1,NA,NA
"1311",289,"second",31,1,1,5,1,NA,NA
"1312",289,"second",32,1,1,5,1,NA,NA
"1313",289,"second",33,1,1,4,1,NA,NA
"1314",289,"second",34,1,1,4,1,NA,NA
"1315",289,"second",35,1,1,5,1,NA,NA
"1316",289,"second",36,1,1,4,1,NA,NA
"1317",289,"second",37,1,1,5,1,NA,NA
"1318",289,"second",38,1,1,3,1,NA,NA
"1319",289,"second",39,1,1,4,1,NA,NA
"1320",289,"second",40,1,1,5,1,NA,NA
"1321",34,"native",1,1,1,6,1,NA,NA
"1322",34,"native",2,1,1,6,1,NA,NA
"1323",34,"native",3,1,1,6,1,NA,NA
"1324",34,"native",4,1,1,5,1,NA,NA
"1325",34,"native",5,1,1,3,1,NA,NA
"1326",34,"native",6,1,1,6,1,NA,NA
"1327",34,"native",7,1,1,5,1,NA,NA
"1328",34,"native",8,1,1,5,1,NA,NA
"1329",34,"native",9,1,1,4,1,NA,NA
"1330",34,"native",10,1,1,2,1,NA,NA
"1331",34,"native",11,1,1,5,1,NA,NA
"1332",34,"native",12,1,1,6,1,NA,NA
"1333",34,"native",13,1,1,6,1,NA,NA
"1334",34,"native",14,1,1,6,1,NA,NA
"1335",34,"native",15,1,1,6,1,NA,NA
"1336",34,"native",16,1,1,6,1,NA,NA
"1337",34,"native",17,1,1,3,1,NA,NA
"1338",34,"native",18,1,1,6,1,NA,NA
"1339",34,"native",19,1,1,3,1,NA,NA
"1340",34,"native",20,1,1,6,1,NA,NA
"1341",34,"native",21,1,1,1,0,NA,NA
"1342",34,"native",22,1,1,6,0,NA,NA
"1343",34,"native",23,1,1,5,0,NA,NA
"1344",34,"native",24,1,1,4,0,NA,NA
"1345",34,"native",25,1,1,4,0,NA,NA
"1346",34,"native",26,1,1,5,0,NA,NA
"1347",34,"native",27,1,1,4,0,NA,NA
"1348",34,"native",28,1,1,5,0,NA,NA
"1349",34,"native",29,1,1,5,0,NA,NA
"1350",34,"native",30,1,1,4,0,NA,NA
"1351",34,"native",31,1,1,3,0,NA,NA
"1352",34,"native",32,1,1,2,0,NA,NA
"1353",34,"native",33,1,1,3,0,NA,NA
"1354",34,"native",34,1,1,1,0,NA,NA
"1355",34,"native",35,1,1,4,0,NA,NA
"1356",34,"native",36,1,1,4,0,NA,NA
"1357",34,"native",37,1,1,6,0,NA,NA
"1358",34,"native",38,1,1,5,0,NA,NA
"1359",34,"native",39,1,1,1,0,NA,NA
"1360",34,"native",40,1,1,2,0,NA,NA
"1361",40,"native",1,1,1,6,1,NA,NA
"1362",40,"native",2,1,1,6,1,NA,NA
"1363",40,"native",3,1,1,6,1,NA,NA
"1364",40,"native",4,1,1,6,1,NA,NA
"1365",40,"native",5,1,1,6,1,NA,NA
"1366",40,"native",6,1,1,6,1,NA,NA
"1367",40,"native",7,1,1,6,1,NA,NA
"1368",40,"native",8,1,1,6,1,NA,NA
"1369",40,"native",9,1,1,5,1,NA,NA
"1370",40,"native",10,1,1,6,1,NA,NA
"1371",40,"native",11,1,1,6,1,NA,NA
"1372",40,"native",12,1,1,6,1,NA,NA
"1373",40,"native",13,1,1,6,1,NA,NA
"1374",40,"native",14,1,1,6,1,NA,NA
"1375",40,"native",15,1,1,6,1,NA,NA
"1376",40,"native",16,1,1,6,1,NA,NA
"1377",40,"native",17,1,1,6,1,NA,NA
"1378",40,"native",18,1,1,6,1,NA,NA
"1379",40,"native",19,1,1,4,1,NA,NA
"1380",40,"native",20,1,1,6,1,NA,NA
"1381",40,"native",21,1,1,3,0,NA,NA
"1382",40,"native",22,1,1,4,0,NA,NA
"1383",40,"native",23,1,1,3,0,NA,NA
"1384",40,"native",24,1,1,3,0,NA,NA
"1385",40,"native",25,1,1,6,0,NA,NA
"1386",40,"native",26,1,1,3,0,NA,NA
"1387",40,"native",27,1,1,6,0,NA,NA
"1388",40,"native",28,1,1,6,0,NA,NA
"1389",40,"native",29,1,1,3,0,NA,NA
"1390",40,"native",30,1,1,4,0,NA,NA
"1391",40,"native",31,1,1,2,0,NA,NA
"1392",40,"native",32,1,1,5,0,NA,NA
"1393",40,"native",33,1,1,5,0,NA,NA
"1394",40,"native",34,1,1,4,0,NA,NA
"1395",40,"native",35,1,1,4,0,NA,NA
"1396",40,"native",36,1,1,4,0,NA,NA
"1397",40,"native",37,1,1,4,0,NA,NA
"1398",40,"native",38,1,1,4,0,NA,NA
"1399",40,"native",39,1,1,4,0,NA,NA
"1400",40,"native",40,1,1,6,0,NA,NA
"1401",63,"native",1,1,1,6,1,NA,NA
"1402",63,"native",2,1,1,6,1,NA,NA
"1403",63,"native",3,1,1,6,1,NA,NA
"1404",63,"native",4,1,1,6,1,NA,NA
"1405",63,"native",5,1,1,6,1,NA,NA
"1406",63,"native",6,1,1,6,1,NA,NA
"1407",63,"native",7,1,1,6,1,NA,NA
"1408",63,"native",8,1,1,6,1,NA,NA
"1409",63,"native",9,1,1,6,1,NA,NA
"1410",63,"native",10,1,1,6,1,NA,NA
"1411",63,"native",11,1,1,6,1,NA,NA
"1412",63,"native",12,1,1,6,1,NA,NA
"1413",63,"native",13,1,1,6,1,NA,NA
"1414",63,"native",14,1,1,6,1,NA,NA
"1415",63,"native",15,1,1,6,1,NA,NA
"1416",63,"native",16,1,1,6,1,NA,NA
"1417",63,"native",17,1,1,6,1,NA,NA
"1418",63,"native",18,1,1,6,1,NA,NA
"1419",63,"native",19,1,1,6,1,NA,NA
"1420",63,"native",20,1,1,6,1,NA,NA
"1421",63,"native",21,1,1,2,0,NA,NA
"1422",63,"native",22,1,1,4,0,NA,NA
"1423",63,"native",23,1,1,4,0,NA,NA
"1424",63,"native",24,1,1,4,0,NA,NA
"1425",63,"native",25,1,1,4,0,NA,NA
"1426",63,"native",26,1,1,4,0,NA,NA
"1427",63,"native",27,1,1,1,0,NA,NA
"1428",63,"native",28,1,1,4,0,NA,NA
"1429",63,"native",29,1,1,4,0,NA,NA
"1430",63,"native",30,1,1,4,0,NA,NA
"1431",63,"native",31,1,1,4,0,NA,NA
"1432",63,"native",32,1,1,4,0,NA,NA
"1433",63,"native",33,1,1,4,0,NA,NA
"1434",63,"native",34,1,1,6,0,NA,NA
"1435",63,"native",35,1,1,4,0,NA,NA
"1436",63,"native",36,1,1,4,0,NA,NA
"1437",63,"native",37,1,1,5,0,NA,NA
"1438",63,"native",38,1,1,3,0,NA,NA
"1439",63,"native",39,1,1,3,0,NA,NA
"1440",63,"native",40,1,1,6,0,NA,NA
"1441",70,"native",1,1,1,1,1,NA,NA
"1442",70,"native",2,1,1,6,1,NA,NA
"1443",70,"native",3,1,1,3,1,NA,NA
"1444",70,"native",4,1,1,3,1,NA,NA
"1445",70,"native",5,1,1,6,1,NA,NA
"1446",70,"native",6,1,1,6,1,NA,NA
"1447",70,"native",7,1,1,6,1,NA,NA
"1448",70,"native",8,1,1,6,1,NA,NA
"1449",70,"native",9,1,1,1,1,NA,NA
"1450",70,"native",10,1,1,6,1,NA,NA
"1451",70,"native",11,1,1,4,1,NA,NA
"1452",70,"native",12,1,1,6,1,NA,NA
"1453",70,"native",13,1,1,4,1,NA,NA
"1454",70,"native",14,1,1,6,1,NA,NA
"1455",70,"native",15,1,1,6,1,NA,NA
"1456",70,"native",16,1,1,6,1,NA,NA
"1457",70,"native",17,1,1,6,1,NA,NA
"1458",70,"native",18,1,1,6,1,NA,NA
"1459",70,"native",19,1,1,6,1,NA,NA
"1460",70,"native",20,1,1,1,1,NA,NA
"1461",70,"native",21,1,1,1,0,NA,NA
"1462",70,"native",22,1,1,1,0,NA,NA
"1463",70,"native",23,1,1,1,0,NA,NA
"1464",70,"native",24,1,1,1,0,NA,NA
"1465",70,"native",25,1,1,6,0,NA,NA
"1466",70,"native",26,1,1,1,0,NA,NA
"1467",70,"native",27,1,1,1,0,NA,NA
"1468",70,"native",28,1,1,6,0,NA,NA
"1469",70,"native",29,1,1,4,0,NA,NA
"1470",70,"native",30,1,1,1,0,NA,NA
"1471",70,"native",31,1,1,1,0,NA,NA
"1472",70,"native",32,1,1,4,0,NA,NA
"1473",70,"native",33,1,1,1,0,NA,NA
"1474",70,"native",34,1,1,1,0,NA,NA
"1475",70,"native",35,1,1,1,0,NA,NA
"1476",70,"native",36,1,1,1,0,NA,NA
"1477",70,"native",37,1,1,1,0,NA,NA
"1478",70,"native",38,1,1,1,0,NA,NA
"1479",70,"native",39,1,1,1,0,NA,NA
"1480",70,"native",40,1,1,1,0,NA,NA
"1481",92,"native",1,1,1,6,1,NA,NA
"1482",92,"native",2,1,1,6,1,NA,NA
"1483",92,"native",3,1,1,6,1,NA,NA
"1484",92,"native",4,1,1,6,1,NA,NA
"1485",92,"native",5,1,1,1,1,NA,NA
"1486",92,"native",6,1,1,6,1,NA,NA
"1487",92,"native",7,1,1,6,1,NA,NA
"1488",92,"native",8,1,1,1,1,NA,NA
"1489",92,"native",9,1,1,1,1,NA,NA
"1490",92,"native",10,1,1,1,1,NA,NA
"1491",92,"native",11,1,1,6,1,NA,NA
"1492",92,"native",12,1,1,6,1,NA,NA
"1493",92,"native",13,1,1,6,1,NA,NA
"1494",92,"native",14,1,1,6,1,NA,NA
"1495",92,"native",15,1,1,1,1,NA,NA
"1496",92,"native",16,1,1,1,1,NA,NA
"1497",92,"native",17,1,1,1,1,NA,NA
"1498",92,"native",18,1,1,6,1,NA,NA
"1499",92,"native",19,1,1,1,1,NA,NA
"1500",92,"native",20,1,1,1,1,NA,NA
"1501",92,"native",21,1,1,1,0,NA,NA
"1502",92,"native",22,1,1,1,0,NA,NA
"1503",92,"native",23,1,1,1,0,NA,NA
"1504",92,"native",24,1,1,1,0,NA,NA
"1505",92,"native",25,1,1,1,0,NA,NA
"1506",92,"native",26,1,1,1,0,NA,NA
"1507",92,"native",27,1,1,6,0,NA,NA
"1508",92,"native",28,1,1,6,0,NA,NA
"1509",92,"native",29,1,1,5,0,NA,NA
"1510",92,"native",30,1,1,6,0,NA,NA
"1511",92,"native",31,1,1,1,0,NA,NA
"1512",92,"native",32,1,1,1,0,NA,NA
"1513",92,"native",33,1,1,1,0,NA,NA
"1514",92,"native",34,1,1,1,0,NA,NA
"1515",92,"native",35,1,1,6,0,NA,NA
"1516",92,"native",36,1,1,1,0,NA,NA
"1517",92,"native",37,1,1,1,0,NA,NA
"1518",92,"native",38,1,1,6,0,NA,NA
"1519",92,"native",39,1,1,6,0,NA,NA
"1520",92,"native",40,1,1,6,0,NA,NA
"1521",110,"native",1,1,1,5,1,NA,NA
"1522",110,"native",2,1,1,1,1,NA,NA
"1523",110,"native",3,1,1,3,1,NA,NA
"1524",110,"native",4,1,1,5,1,NA,NA
"1525",110,"native",5,1,1,2,1,NA,NA
"1526",110,"native",6,1,1,6,1,NA,NA
"1527",110,"native",7,1,1,6,1,NA,NA
"1528",110,"native",8,1,1,6,1,NA,NA
"1529",110,"native",9,1,1,6,1,NA,NA
"1530",110,"native",10,1,1,1,1,NA,NA
"1531",110,"native",11,1,1,3,1,NA,NA
"1532",110,"native",12,1,1,6,1,NA,NA
"1533",110,"native",13,1,1,6,1,NA,NA
"1534",110,"native",14,1,1,1,1,NA,NA
"1535",110,"native",15,1,1,5,1,NA,NA
"1536",110,"native",16,1,1,1,1,NA,NA
"1537",110,"native",17,1,1,4,1,NA,NA
"1538",110,"native",18,1,1,4,1,NA,NA
"1539",110,"native",19,1,1,1,1,NA,NA
"1540",110,"native",20,1,1,4,1,NA,NA
"1541",110,"native",21,1,1,2,0,NA,NA
"1542",110,"native",22,1,1,1,0,NA,NA
"1543",110,"native",23,1,1,5,0,NA,NA
"1544",110,"native",24,1,1,2,0,NA,NA
"1545",110,"native",25,1,1,2,0,NA,NA
"1546",110,"native",26,1,1,1,0,NA,NA
"1547",110,"native",27,1,1,4,0,NA,NA
"1548",110,"native",28,1,1,6,0,NA,NA
"1549",110,"native",29,1,1,6,0,NA,NA
"1550",110,"native",30,1,1,4,0,NA,NA
"1551",110,"native",31,1,1,1,0,NA,NA
"1552",110,"native",32,1,1,5,0,NA,NA
"1553",110,"native",33,1,1,4,0,NA,NA
"1554",110,"native",34,1,1,3,0,NA,NA
"1555",110,"native",35,1,1,3,0,NA,NA
"1556",110,"native",36,1,1,3,0,NA,NA
"1557",110,"native",37,1,1,6,0,NA,NA
"1558",110,"native",38,1,1,5,0,NA,NA
"1559",110,"native",39,1,1,4,0,NA,NA
"1560",110,"native",40,1,1,3,0,NA,NA
"1561",164,"native",1,1,1,4,1,NA,NA
"1562",164,"native",2,1,1,4,1,NA,NA
"1563",164,"native",3,1,1,4,1,NA,NA
"1564",164,"native",4,1,1,4,1,NA,NA
"1565",164,"native",5,1,1,4,1,NA,NA
"1566",164,"native",6,1,1,4,1,NA,NA
"1567",164,"native",7,1,1,3,1,NA,NA
"1568",164,"native",8,1,1,4,1,NA,NA
"1569",164,"native",9,1,1,4,1,NA,NA
"1570",164,"native",10,1,1,4,1,NA,NA
"1571",164,"native",11,1,1,4,1,NA,NA
"1572",164,"native",12,1,1,4,1,NA,NA
"1573",164,"native",13,1,1,4,1,NA,NA
"1574",164,"native",14,1,1,4,1,NA,NA
"1575",164,"native",15,1,1,4,1,NA,NA
"1576",164,"native",16,1,1,4,1,NA,NA
"1577",164,"native",17,1,1,4,1,NA,NA
"1578",164,"native",18,1,1,4,1,NA,NA
"1579",164,"native",19,1,1,4,1,NA,NA
"1580",164,"native",20,1,1,5,1,NA,NA
"1581",164,"native",21,1,1,4,0,NA,NA
"1582",164,"native",22,1,1,4,0,NA,NA
"1583",164,"native",23,1,1,4,0,NA,NA
"1584",164,"native",24,1,1,4,0,NA,NA
"1585",164,"native",25,1,1,4,0,NA,NA
"1586",164,"native",26,1,1,4,0,NA,NA
"1587",164,"native",27,1,1,4,0,NA,NA
"1588",164,"native",28,1,1,5,0,NA,NA
"1589",164,"native",29,1,1,4,0,NA,NA
"1590",164,"native",30,1,1,4,0,NA,NA
"1591",164,"native",31,1,1,4,0,NA,NA
"1592",164,"native",32,1,1,4,0,NA,NA
"1593",164,"native",33,1,1,4,0,NA,NA
"1594",164,"native",34,1,1,2,0,NA,NA
"1595",164,"native",35,1,1,5,0,NA,NA
"1596",164,"native",36,1,1,4,0,NA,NA
"1597",164,"native",37,1,1,4,0,NA,NA
"1598",164,"native",38,1,1,4,0,NA,NA
"1599",164,"native",39,1,1,4,0,NA,NA
"1600",164,"native",40,1,1,4,0,NA,NA
"1601",166,"native",1,1,1,6,1,NA,NA
"1602",166,"native",2,1,1,5,1,NA,NA
"1603",166,"native",3,1,1,5,1,NA,NA
"1604",166,"native",4,1,1,6,1,NA,NA
"1605",166,"native",5,1,1,6,1,NA,NA
"1606",166,"native",6,1,1,6,1,NA,NA
"1607",166,"native",7,1,1,4,1,NA,NA
"1608",166,"native",8,1,1,6,1,NA,NA
"1609",166,"native",9,1,1,6,1,NA,NA
"1610",166,"native",10,1,1,6,1,NA,NA
"1611",166,"native",11,1,1,3,1,NA,NA
"1612",166,"native",12,1,1,6,1,NA,NA
"1613",166,"native",13,1,1,6,1,NA,NA
"1614",166,"native",14,1,1,6,1,NA,NA
"1615",166,"native",15,1,1,1,1,NA,NA
"1616",166,"native",16,1,1,6,1,NA,NA
"1617",166,"native",17,1,1,6,1,NA,NA
"1618",166,"native",18,1,1,6,1,NA,NA
"1619",166,"native",19,1,1,4,1,NA,NA
"1620",166,"native",20,1,1,6,1,NA,NA
"1621",166,"native",21,1,1,1,0,NA,NA
"1622",166,"native",22,1,1,5,0,NA,NA
"1623",166,"native",23,1,1,4,0,NA,NA
"1624",166,"native",24,1,1,4,0,NA,NA
"1625",166,"native",25,1,1,4,0,NA,NA
"1626",166,"native",26,1,1,2,0,NA,NA
"1627",166,"native",27,1,1,5,0,NA,NA
"1628",166,"native",28,1,1,6,0,NA,NA
"1629",166,"native",29,1,1,4,0,NA,NA
"1630",166,"native",30,1,1,2,0,NA,NA
"1631",166,"native",31,1,1,4,0,NA,NA
"1632",166,"native",32,1,1,5,0,NA,NA
"1633",166,"native",33,1,1,4,0,NA,NA
"1634",166,"native",34,1,1,3,0,NA,NA
"1635",166,"native",35,1,1,4,0,NA,NA
"1636",166,"native",36,1,1,3,0,NA,NA
"1637",166,"native",37,1,1,1,0,NA,NA
"1638",166,"native",38,1,1,4,0,NA,NA
"1639",166,"native",39,1,1,3,0,NA,NA
"1640",166,"native",40,1,1,5,0,NA,NA
"1641",172,"native",1,1,1,6,1,NA,NA
"1642",172,"native",2,1,1,1,1,NA,NA
"1643",172,"native",3,1,1,6,1,NA,NA
"1644",172,"native",4,1,1,6,1,NA,NA
"1645",172,"native",5,1,1,6,1,NA,NA
"1646",172,"native",6,1,1,6,1,NA,NA
"1647",172,"native",7,1,1,6,1,NA,NA
"1648",172,"native",8,1,1,6,1,NA,NA
"1649",172,"native",9,1,1,6,1,NA,NA
"1650",172,"native",10,1,1,6,1,NA,NA
"1651",172,"native",11,1,1,6,1,NA,NA
"1652",172,"native",12,1,1,6,1,NA,NA
"1653",172,"native",13,1,1,6,1,NA,NA
"1654",172,"native",14,1,1,6,1,NA,NA
"1655",172,"native",15,1,1,6,1,NA,NA
"1656",172,"native",16,1,1,6,1,NA,NA
"1657",172,"native",17,1,1,6,1,NA,NA
"1658",172,"native",18,1,1,1,1,NA,NA
"1659",172,"native",19,1,1,6,1,NA,NA
"1660",172,"native",20,1,1,6,1,NA,NA
"1661",172,"native",21,1,1,1,0,NA,NA
"1662",172,"native",22,1,1,6,0,NA,NA
"1663",172,"native",23,1,1,6,0,NA,NA
"1664",172,"native",24,1,1,6,0,NA,NA
"1665",172,"native",25,1,1,6,0,NA,NA
"1666",172,"native",26,1,1,1,0,NA,NA
"1667",172,"native",27,1,1,5,0,NA,NA
"1668",172,"native",28,1,1,6,0,NA,NA
"1669",172,"native",29,1,1,1,0,NA,NA
"1670",172,"native",30,1,1,6,0,NA,NA
"1671",172,"native",31,1,1,6,0,NA,NA
"1672",172,"native",32,1,1,3,0,NA,NA
"1673",172,"native",33,1,1,1,0,NA,NA
"1674",172,"native",34,1,1,6,0,NA,NA
"1675",172,"native",35,1,1,6,0,NA,NA
"1676",172,"native",36,1,1,5,0,NA,NA
"1677",172,"native",37,1,1,1,0,NA,NA
"1678",172,"native",38,1,1,1,0,NA,NA
"1679",172,"native",39,1,1,1,0,NA,NA
"1680",172,"native",40,1,1,6,0,NA,NA
"1681",195,"native",1,1,1,5,1,NA,NA
"1682",195,"native",2,1,1,6,1,NA,NA
"1683",195,"native",3,1,1,4,1,NA,NA
"1684",195,"native",4,1,1,4,1,NA,NA
"1685",195,"native",5,1,1,3,1,NA,NA
"1686",195,"native",6,1,1,4,1,NA,NA
"1687",195,"native",7,1,1,4,1,NA,NA
"1688",195,"native",8,1,1,3,1,NA,NA
"1689",195,"native",9,1,1,3,1,NA,NA
"1690",195,"native",10,1,1,2,1,NA,NA
"1691",195,"native",11,1,1,5,1,NA,NA
"1692",195,"native",12,1,1,6,1,NA,NA
"1693",195,"native",13,1,1,5,1,NA,NA
"1694",195,"native",14,1,1,4,1,NA,NA
"1695",195,"native",15,1,1,1,1,NA,NA
"1696",195,"native",16,1,1,5,1,NA,NA
"1697",195,"native",17,1,1,3,1,NA,NA
"1698",195,"native",18,1,1,2,1,NA,NA
"1699",195,"native",19,1,1,4,1,NA,NA
"1700",195,"native",20,1,1,3,1,NA,NA
"1701",195,"native",21,1,1,1,0,NA,NA
"1702",195,"native",22,1,1,4,0,NA,NA
"1703",195,"native",23,1,1,3,0,NA,NA
"1704",195,"native",24,1,1,2,0,NA,NA
"1705",195,"native",25,1,1,5,0,NA,NA
"1706",195,"native",26,1,1,2,0,NA,NA
"1707",195,"native",27,1,1,1,0,NA,NA
"1708",195,"native",28,1,1,4,0,NA,NA
"1709",195,"native",29,1,1,4,0,NA,NA
"1710",195,"native",30,1,1,5,0,NA,NA
"1711",195,"native",31,1,1,3,0,NA,NA
"1712",195,"native",32,1,1,2,0,NA,NA
"1713",195,"native",33,1,1,4,0,NA,NA
"1714",195,"native",34,1,1,4,0,NA,NA
"1715",195,"native",35,1,1,2,0,NA,NA
"1716",195,"native",36,1,1,2,0,NA,NA
"1717",195,"native",37,1,1,3,0,NA,NA
"1718",195,"native",38,1,1,4,0,NA,NA
"1719",195,"native",39,1,1,3,0,NA,NA
"1720",195,"native",40,1,1,5,0,NA,NA
"1721",17,"native",1,1,1,3,0,NA,NA
"1722",17,"native",2,1,1,6,0,NA,NA
"1723",17,"native",3,1,1,1,0,NA,NA
"1724",17,"native",4,1,1,2,0,NA,NA
"1725",17,"native",5,1,1,2,0,NA,NA
"1726",17,"native",6,1,1,6,0,NA,NA
"1727",17,"native",7,1,1,4,0,NA,NA
"1728",17,"native",8,1,1,6,0,NA,NA
"1729",17,"native",9,1,1,5,0,NA,NA
"1730",17,"native",10,1,1,1,0,NA,NA
"1731",17,"native",11,1,1,3,0,NA,NA
"1732",17,"native",12,1,1,3,0,NA,NA
"1733",17,"native",13,1,1,6,0,NA,NA
"1734",17,"native",14,1,1,6,0,NA,NA
"1735",17,"native",15,1,1,1,0,NA,NA
"1736",17,"native",16,1,1,6,0,NA,NA
"1737",17,"native",17,1,1,6,0,NA,NA
"1738",17,"native",18,1,1,2,0,NA,NA
"1739",17,"native",19,1,1,6,0,NA,NA
"1740",17,"native",20,1,1,5,0,NA,NA
"1741",17,"native",21,1,1,6,1,NA,NA
"1742",17,"native",22,1,1,6,1,NA,NA
"1743",17,"native",23,1,1,6,1,NA,NA
"1744",17,"native",24,1,1,1,1,NA,NA
"1745",17,"native",25,1,1,6,1,NA,NA
"1746",17,"native",26,1,1,6,1,NA,NA
"1747",17,"native",27,1,1,5,1,NA,NA
"1748",17,"native",28,1,1,6,1,NA,NA
"1749",17,"native",29,1,1,6,1,NA,NA
"1750",17,"native",30,1,1,6,1,NA,NA
"1751",17,"native",31,1,1,6,1,NA,NA
"1752",17,"native",32,1,1,6,1,NA,NA
"1753",17,"native",33,1,1,6,1,NA,NA
"1754",17,"native",34,1,1,6,1,NA,NA
"1755",17,"native",35,1,1,6,1,NA,NA
"1756",17,"native",36,1,1,5,1,NA,NA
"1757",17,"native",37,1,1,6,1,NA,NA
"1758",17,"native",38,1,1,6,1,NA,NA
"1759",17,"native",39,1,1,6,1,NA,NA
"1760",17,"native",40,1,1,6,1,NA,NA
"1761",59,"native",1,1,1,6,0,NA,NA
"1762",59,"native",2,1,1,1,0,NA,NA
"1763",59,"native",3,1,1,4,0,NA,NA
"1764",59,"native",4,1,1,1,0,NA,NA
"1765",59,"native",5,1,1,2,0,NA,NA
"1766",59,"native",6,1,1,5,0,NA,NA
"1767",59,"native",7,1,1,2,0,NA,NA
"1768",59,"native",8,1,1,2,0,NA,NA
"1769",59,"native",9,1,1,3,0,NA,NA
"1770",59,"native",10,1,1,2,0,NA,NA
"1771",59,"native",11,1,1,6,0,NA,NA
"1772",59,"native",12,1,1,6,0,NA,NA
"1773",59,"native",13,1,1,6,0,NA,NA
"1774",59,"native",14,1,1,3,0,NA,NA
"1775",59,"native",15,1,1,2,0,NA,NA
"1776",59,"native",16,1,1,1,0,NA,NA
"1777",59,"native",17,1,1,6,0,NA,NA
"1778",59,"native",18,1,1,1,0,NA,NA
"1779",59,"native",19,1,1,3,0,NA,NA
"1780",59,"native",20,1,1,4,0,NA,NA
"1781",59,"native",21,1,1,4,1,NA,NA
"1782",59,"native",22,1,1,6,1,NA,NA
"1783",59,"native",23,1,1,5,1,NA,NA
"1784",59,"native",24,1,1,1,1,NA,NA
"1785",59,"native",25,1,1,1,1,NA,NA
"1786",59,"native",26,1,1,6,1,NA,NA
"1787",59,"native",27,1,1,1,1,NA,NA
"1788",59,"native",28,1,1,6,1,NA,NA
"1789",59,"native",29,1,1,6,1,NA,NA
"1790",59,"native",30,1,1,6,1,NA,NA
"1791",59,"native",31,1,1,6,1,NA,NA
"1792",59,"native",32,1,1,6,1,NA,NA
"1793",59,"native",33,1,1,6,1,NA,NA
"1794",59,"native",34,1,1,4,1,NA,NA
"1795",59,"native",35,1,1,5,1,NA,NA
"1796",59,"native",36,1,1,6,1,NA,NA
"1797",59,"native",37,1,1,6,1,NA,NA
"1798",59,"native",38,1,1,6,1,NA,NA
"1799",59,"native",39,1,1,4,1,NA,NA
"1800",59,"native",40,1,1,6,1,NA,NA
"1801",62,"native",1,1,1,6,0,NA,NA
"1802",62,"native",2,1,1,1,0,NA,NA
"1803",62,"native",3,1,1,6,0,NA,NA
"1804",62,"native",4,1,1,2,0,NA,NA
"1805",62,"native",5,1,1,1,0,NA,NA
"1806",62,"native",6,1,1,5,0,NA,NA
"1807",62,"native",7,1,1,2,0,NA,NA
"1808",62,"native",8,1,1,1,0,NA,NA
"1809",62,"native",9,1,1,5,0,NA,NA
"1810",62,"native",10,1,1,1,0,NA,NA
"1811",62,"native",11,1,1,2,0,NA,NA
"1812",62,"native",12,1,1,6,0,NA,NA
"1813",62,"native",13,1,1,1,0,NA,NA
"1814",62,"native",14,1,1,2,0,NA,NA
"1815",62,"native",15,1,1,1,0,NA,NA
"1816",62,"native",16,1,1,1,0,NA,NA
"1817",62,"native",17,1,1,1,0,NA,NA
"1818",62,"native",18,1,1,5,0,NA,NA
"1819",62,"native",19,1,1,2,0,NA,NA
"1820",62,"native",20,1,1,2,0,NA,NA
"1821",62,"native",21,1,1,1,1,NA,NA
"1822",62,"native",22,1,1,6,1,NA,NA
"1823",62,"native",23,1,1,5,1,NA,NA
"1824",62,"native",24,1,1,6,1,NA,NA
"1825",62,"native",25,1,1,1,1,NA,NA
"1826",62,"native",26,1,1,5,1,NA,NA
"1827",62,"native",27,1,1,1,1,NA,NA
"1828",62,"native",28,1,1,6,1,NA,NA
"1829",62,"native",29,1,1,6,1,NA,NA
"1830",62,"native",30,1,1,5,1,NA,NA
"1831",62,"native",31,1,1,5,1,NA,NA
"1832",62,"native",32,1,1,5,1,NA,NA
"1833",62,"native",33,1,1,5,1,NA,NA
"1834",62,"native",34,1,1,4,1,NA,NA
"1835",62,"native",35,1,1,5,1,NA,NA
"1836",62,"native",36,1,1,6,1,NA,NA
"1837",62,"native",37,1,1,5,1,NA,NA
"1838",62,"native",38,1,1,5,1,NA,NA
"1839",62,"native",39,1,1,5,1,NA,NA
"1840",62,"native",40,1,1,5,1,NA,NA
"1841",68,"native",1,1,1,6,0,NA,NA
"1842",68,"native",2,1,1,1,0,NA,NA
"1843",68,"native",3,1,1,1,0,NA,NA
"1844",68,"native",4,1,1,6,0,NA,NA
"1845",68,"native",5,1,1,1,0,NA,NA
"1846",68,"native",6,1,1,4,0,NA,NA
"1847",68,"native",7,1,1,5,0,NA,NA
"1848",68,"native",8,1,1,6,0,NA,NA
"1849",68,"native",9,1,1,4,0,NA,NA
"1850",68,"native",10,1,1,1,0,NA,NA
"1851",68,"native",11,1,1,3,0,NA,NA
"1852",68,"native",12,1,1,6,0,NA,NA
"1853",68,"native",13,1,1,6,0,NA,NA
"1854",68,"native",14,1,1,1,0,NA,NA
"1855",68,"native",15,1,1,1,0,NA,NA
"1856",68,"native",16,1,1,2,0,NA,NA
"1857",68,"native",17,1,1,1,0,NA,NA
"1858",68,"native",18,1,1,3,0,NA,NA
"1859",68,"native",19,1,1,4,0,NA,NA
"1860",68,"native",20,1,1,1,0,NA,NA
"1861",68,"native",21,1,1,1,1,NA,NA
"1862",68,"native",22,1,1,6,1,NA,NA
"1863",68,"native",23,1,1,6,1,NA,NA
"1864",68,"native",24,1,1,3,1,NA,NA
"1865",68,"native",25,1,1,3,1,NA,NA
"1866",68,"native",26,1,1,5,1,NA,NA
"1867",68,"native",27,1,1,4,1,NA,NA
"1868",68,"native",28,1,1,5,1,NA,NA
"1869",68,"native",29,1,1,1,1,NA,NA
"1870",68,"native",30,1,1,3,1,NA,NA
"1871",68,"native",31,1,1,6,1,NA,NA
"1872",68,"native",32,1,1,6,1,NA,NA
"1873",68,"native",33,1,1,3,1,NA,NA
"1874",68,"native",34,1,1,2,1,NA,NA
"1875",68,"native",35,1,1,1,1,NA,NA
"1876",68,"native",36,1,1,1,1,NA,NA
"1877",68,"native",37,1,1,2,1,NA,NA
"1878",68,"native",38,1,1,3,1,NA,NA
"1879",68,"native",39,1,1,6,1,NA,NA
"1880",68,"native",40,1,1,5,1,NA,NA
"1881",69,"native",1,1,1,2,0,NA,NA
"1882",69,"native",2,1,1,1,0,NA,NA
"1883",69,"native",3,1,1,3,0,NA,NA
"1884",69,"native",4,1,1,6,0,NA,NA
"1885",69,"native",5,1,1,1,0,NA,NA
"1886",69,"native",6,1,1,4,0,NA,NA
"1887",69,"native",7,1,1,4,0,NA,NA
"1888",69,"native",8,1,1,3,0,NA,NA
"1889",69,"native",9,1,1,1,0,NA,NA
"1890",69,"native",10,1,1,1,0,NA,NA
"1891",69,"native",11,1,1,1,0,NA,NA
"1892",69,"native",12,1,1,6,0,NA,NA
"1893",69,"native",13,1,1,2,0,NA,NA
"1894",69,"native",14,1,1,4,0,NA,NA
"1895",69,"native",15,1,1,2,0,NA,NA
"1896",69,"native",16,1,1,4,0,NA,NA
"1897",69,"native",17,1,1,5,0,NA,NA
"1898",69,"native",18,1,1,4,0,NA,NA
"1899",69,"native",19,1,1,5,0,NA,NA
"1900",69,"native",20,1,1,3,0,NA,NA
"1901",69,"native",21,1,1,3,1,NA,NA
"1902",69,"native",22,1,1,6,1,NA,NA
"1903",69,"native",23,1,1,6,1,NA,NA
"1904",69,"native",24,1,1,3,1,NA,NA
"1905",69,"native",25,1,1,6,1,NA,NA
"1906",69,"native",26,1,1,3,1,NA,NA
"1907",69,"native",27,1,1,3,1,NA,NA
"1908",69,"native",28,1,1,5,1,NA,NA
"1909",69,"native",29,1,1,6,1,NA,NA
"1910",69,"native",30,1,1,1,1,NA,NA
"1911",69,"native",31,1,1,3,1,NA,NA
"1912",69,"native",32,1,1,5,1,NA,NA
"1913",69,"native",33,1,1,3,1,NA,NA
"1914",69,"native",34,1,1,4,1,NA,NA
"1915",69,"native",35,1,1,6,1,NA,NA
"1916",69,"native",36,1,1,1,1,NA,NA
"1917",69,"native",37,1,1,4,1,NA,NA
"1918",69,"native",38,1,1,3,1,NA,NA
"1919",69,"native",39,1,1,5,1,NA,NA
"1920",69,"native",40,1,1,5,1,NA,NA
"1921",95,"native",1,1,1,6,0,NA,NA
"1922",95,"native",2,1,1,6,0,NA,NA
"1923",95,"native",3,1,1,6,0,NA,NA
"1924",95,"native",4,1,1,5,0,NA,NA
"1925",95,"native",5,1,1,5,0,NA,NA
"1926",95,"native",6,1,1,6,0,NA,NA
"1927",95,"native",7,1,1,6,0,NA,NA
"1928",95,"native",8,1,1,5,0,NA,NA
"1929",95,"native",9,1,1,4,0,NA,NA
"1930",95,"native",10,1,1,4,0,NA,NA
"1931",95,"native",11,1,1,6,0,NA,NA
"1932",95,"native",12,1,1,2,0,NA,NA
"1933",95,"native",13,1,1,3,0,NA,NA
"1934",95,"native",14,1,1,3,0,NA,NA
"1935",95,"native",15,1,1,2,0,NA,NA
"1936",95,"native",16,1,1,4,0,NA,NA
"1937",95,"native",17,1,1,6,0,NA,NA
"1938",95,"native",18,1,1,6,0,NA,NA
"1939",95,"native",19,1,1,1,0,NA,NA
"1940",95,"native",20,1,1,5,0,NA,NA
"1941",95,"native",21,1,1,5,1,NA,NA
"1942",95,"native",22,1,1,6,1,NA,NA
"1943",95,"native",23,1,1,5,1,NA,NA
"1944",95,"native",24,1,1,3,1,NA,NA
"1945",95,"native",25,1,1,6,1,NA,NA
"1946",95,"native",26,1,1,6,1,NA,NA
"1947",95,"native",27,1,1,4,1,NA,NA
"1948",95,"native",28,1,1,6,1,NA,NA
"1949",95,"native",29,1,1,6,1,NA,NA
"1950",95,"native",30,1,1,4,1,NA,NA
"1951",95,"native",31,1,1,4,1,NA,NA
"1952",95,"native",32,1,1,6,1,NA,NA
"1953",95,"native",33,1,1,5,1,NA,NA
"1954",95,"native",34,1,1,6,1,NA,NA
"1955",95,"native",35,1,1,4,1,NA,NA
"1956",95,"native",36,1,1,6,1,NA,NA
"1957",95,"native",37,1,1,1,1,NA,NA
"1958",95,"native",38,1,1,5,1,NA,NA
"1959",95,"native",39,1,1,5,1,NA,NA
"1960",95,"native",40,1,1,2,1,NA,NA
"1961",146,"native",1,1,1,6,0,NA,NA
"1962",146,"native",2,1,1,6,0,NA,NA
"1963",146,"native",3,1,1,2,0,NA,NA
"1964",146,"native",4,1,1,1,0,NA,NA
"1965",146,"native",5,1,1,6,0,NA,NA
"1966",146,"native",6,1,1,5,0,NA,NA
"1967",146,"native",7,1,1,1,0,NA,NA
"1968",146,"native",8,1,1,1,0,NA,NA
"1969",146,"native",9,1,1,2,0,NA,NA
"1970",146,"native",10,1,1,1,0,NA,NA
"1971",146,"native",11,1,1,2,0,NA,NA
"1972",146,"native",12,1,1,1,0,NA,NA
"1973",146,"native",13,1,1,1,0,NA,NA
"1974",146,"native",14,1,1,2,0,NA,NA
"1975",146,"native",15,1,1,1,0,NA,NA
"1976",146,"native",16,1,1,1,0,NA,NA
"1977",146,"native",17,1,1,2,0,NA,NA
"1978",146,"native",18,1,1,1,0,NA,NA
"1979",146,"native",19,1,1,1,0,NA,NA
"1980",146,"native",20,1,1,1,0,NA,NA
"1981",146,"native",21,1,1,6,1,NA,NA
"1982",146,"native",22,1,1,6,1,NA,NA
"1983",146,"native",23,1,1,6,1,NA,NA
"1984",146,"native",24,1,1,2,1,NA,NA
"1985",146,"native",25,1,1,6,1,NA,NA
"1986",146,"native",26,1,1,6,1,NA,NA
"1987",146,"native",27,1,1,6,1,NA,NA
"1988",146,"native",28,1,1,6,1,NA,NA
"1989",146,"native",29,1,1,6,1,NA,NA
"1990",146,"native",30,1,1,6,1,NA,NA
"1991",146,"native",31,1,1,6,1,NA,NA
"1992",146,"native",32,1,1,6,1,NA,NA
"1993",146,"native",33,1,1,1,1,NA,NA
"1994",146,"native",34,1,1,6,1,NA,NA
"1995",146,"native",35,1,1,6,1,NA,NA
"1996",146,"native",36,1,1,6,1,NA,NA
"1997",146,"native",37,1,1,6,1,NA,NA
"1998",146,"native",38,1,1,6,1,NA,NA
"1999",146,"native",39,1,1,6,1,NA,NA
"2000",146,"native",40,1,1,6,1,NA,NA
"2001",147,"native",1,1,1,6,0,NA,NA
"2002",147,"native",2,1,1,1,0,NA,NA
"2003",147,"native",3,1,1,3,0,NA,NA
"2004",147,"native",4,1,1,3,0,NA,NA
"2005",147,"native",5,1,1,6,0,NA,NA
"2006",147,"native",6,1,1,5,0,NA,NA
"2007",147,"native",7,1,1,5,0,NA,NA
"2008",147,"native",8,1,1,2,0,NA,NA
"2009",147,"native",9,1,1,2,0,NA,NA
"2010",147,"native",10,1,1,3,0,NA,NA
"2011",147,"native",11,1,1,2,0,NA,NA
"2012",147,"native",12,1,1,6,0,NA,NA
"2013",147,"native",13,1,1,5,0,NA,NA
"2014",147,"native",14,1,1,5,0,NA,NA
"2015",147,"native",15,1,1,1,0,NA,NA
"2016",147,"native",16,1,1,4,0,NA,NA
"2017",147,"native",17,1,1,6,0,NA,NA
"2018",147,"native",18,1,1,5,0,NA,NA
"2019",147,"native",19,1,1,1,0,NA,NA
"2020",147,"native",20,1,1,4,0,NA,NA
"2021",147,"native",21,1,1,5,1,NA,NA
"2022",147,"native",22,1,1,4,1,NA,NA
"2023",147,"native",23,1,1,5,1,NA,NA
"2024",147,"native",24,1,1,2,1,NA,NA
"2025",147,"native",25,1,1,2,1,NA,NA
"2026",147,"native",26,1,1,6,1,NA,NA
"2027",147,"native",27,1,1,5,1,NA,NA
"2028",147,"native",28,1,1,2,1,NA,NA
"2029",147,"native",29,1,1,2,1,NA,NA
"2030",147,"native",30,1,1,6,1,NA,NA
"2031",147,"native",31,1,1,5,1,NA,NA
"2032",147,"native",32,1,1,6,1,NA,NA
"2033",147,"native",33,1,1,6,1,NA,NA
"2034",147,"native",34,1,1,1,1,NA,NA
"2035",147,"native",35,1,1,5,1,NA,NA
"2036",147,"native",36,1,1,6,1,NA,NA
"2037",147,"native",37,1,1,6,1,NA,NA
"2038",147,"native",38,1,1,5,1,NA,NA
"2039",147,"native",39,1,1,2,1,NA,NA
"2040",147,"native",40,1,1,5,1,NA,NA
"2041",154,"native",1,1,1,6,0,NA,NA
"2042",154,"native",2,1,1,6,0,NA,NA
"2043",154,"native",3,1,1,4,0,NA,NA
"2044",154,"native",4,1,1,6,0,NA,NA
"2045",154,"native",5,1,1,6,0,NA,NA
"2046",154,"native",6,1,1,6,0,NA,NA
"2047",154,"native",7,1,1,5,0,NA,NA
"2048",154,"native",8,1,1,3,0,NA,NA
"2049",154,"native",9,1,1,5,0,NA,NA
"2050",154,"native",10,1,1,1,0,NA,NA
"2051",154,"native",11,1,1,6,0,NA,NA
"2052",154,"native",12,1,1,6,0,NA,NA
"2053",154,"native",13,1,1,6,0,NA,NA
"2054",154,"native",14,1,1,4,0,NA,NA
"2055",154,"native",15,1,1,1,0,NA,NA
"2056",154,"native",16,1,1,1,0,NA,NA
"2057",154,"native",17,1,1,1,0,NA,NA
"2058",154,"native",18,1,1,6,0,NA,NA
"2059",154,"native",19,1,1,5,0,NA,NA
"2060",154,"native",20,1,1,3,0,NA,NA
"2061",154,"native",21,1,1,5,1,NA,NA
"2062",154,"native",22,1,1,6,1,NA,NA
"2063",154,"native",23,1,1,4,1,NA,NA
"2064",154,"native",24,1,1,3,1,NA,NA
"2065",154,"native",25,1,1,5,1,NA,NA
"2066",154,"native",26,1,1,6,1,NA,NA
"2067",154,"native",27,1,1,3,1,NA,NA
"2068",154,"native",28,1,1,6,1,NA,NA
"2069",154,"native",29,1,1,6,1,NA,NA
"2070",154,"native",30,1,1,6,1,NA,NA
"2071",154,"native",31,1,1,3,1,NA,NA
"2072",154,"native",32,1,1,6,1,NA,NA
"2073",154,"native",33,1,1,1,1,NA,NA
"2074",154,"native",34,1,1,6,1,NA,NA
"2075",154,"native",35,1,1,6,1,NA,NA
"2076",154,"native",36,1,1,6,1,NA,NA
"2077",154,"native",37,1,1,1,1,NA,NA
"2078",154,"native",38,1,1,6,1,NA,NA
"2079",154,"native",39,1,1,6,1,NA,NA
"2080",154,"native",40,1,1,6,1,NA,NA
"2081",171,"native",1,1,1,4,0,NA,NA
"2082",171,"native",2,1,1,5,0,NA,NA
"2083",171,"native",3,1,1,3,0,NA,NA
"2084",171,"native",4,1,1,5,0,NA,NA
"2085",171,"native",5,1,1,5,0,NA,NA
"2086",171,"native",6,1,1,3,0,NA,NA
"2087",171,"native",7,1,1,2,0,NA,NA
"2088",171,"native",8,1,1,2,0,NA,NA
"2089",171,"native",9,1,1,2,0,NA,NA
"2090",171,"native",10,1,1,4,0,NA,NA
"2091",171,"native",11,1,1,4,0,NA,NA
"2092",171,"native",12,1,1,5,0,NA,NA
"2093",171,"native",13,1,1,4,0,NA,NA
"2094",171,"native",14,1,1,4,0,NA,NA
"2095",171,"native",15,1,1,1,0,NA,NA
"2096",171,"native",16,1,1,3,0,NA,NA
"2097",171,"native",17,1,1,3,0,NA,NA
"2098",171,"native",18,1,1,4,0,NA,NA
"2099",171,"native",19,1,1,3,0,NA,NA
"2100",171,"native",20,1,1,3,0,NA,NA
"2101",171,"native",21,1,1,3,1,NA,NA
"2102",171,"native",22,1,1,4,1,NA,NA
"2103",171,"native",23,1,1,3,1,NA,NA
"2104",171,"native",24,1,1,3,1,NA,NA
"2105",171,"native",25,1,1,5,1,NA,NA
"2106",171,"native",26,1,1,4,1,NA,NA
"2107",171,"native",27,1,1,2,1,NA,NA
"2108",171,"native",28,1,1,5,1,NA,NA
"2109",171,"native",29,1,1,4,1,NA,NA
"2110",171,"native",30,1,1,5,1,NA,NA
"2111",171,"native",31,1,1,2,1,NA,NA
"2112",171,"native",32,1,1,3,1,NA,NA
"2113",171,"native",33,1,1,3,1,NA,NA
"2114",171,"native",34,1,1,2,1,NA,NA
"2115",171,"native",35,1,1,4,1,NA,NA
"2116",171,"native",36,1,1,3,1,NA,NA
"2117",171,"native",37,1,1,1,1,NA,NA
"2118",171,"native",38,1,1,2,1,NA,NA
"2119",171,"native",39,1,1,3,1,NA,NA
"2120",171,"native",40,1,1,3,1,NA,NA
"2121",185,"native",1,1,1,5,0,NA,NA
"2122",185,"native",2,1,1,4,0,NA,NA
"2123",185,"native",3,1,1,6,0,NA,NA
"2124",185,"native",4,1,1,6,0,NA,NA
"2125",185,"native",5,1,1,5,0,NA,NA
"2126",185,"native",6,1,1,3,0,NA,NA
"2127",185,"native",7,1,1,3,0,NA,NA
"2128",185,"native",8,1,1,5,0,NA,NA
"2129",185,"native",9,1,1,4,0,NA,NA
"2130",185,"native",10,1,1,4,0,NA,NA
"2131",185,"native",11,1,1,5,0,NA,NA
"2132",185,"native",12,1,1,4,0,NA,NA
"2133",185,"native",13,1,1,5,0,NA,NA
"2134",185,"native",14,1,1,4,0,NA,NA
"2135",185,"native",15,1,1,4,0,NA,NA
"2136",185,"native",16,1,1,4,0,NA,NA
"2137",185,"native",17,1,1,5,0,NA,NA
"2138",185,"native",18,1,1,3,0,NA,NA
"2139",185,"native",19,1,1,4,0,NA,NA
"2140",185,"native",20,1,1,5,0,NA,NA
"2141",185,"native",21,1,1,4,1,NA,NA
"2142",185,"native",22,1,1,5,1,NA,NA
"2143",185,"native",23,1,1,6,1,NA,NA
"2144",185,"native",24,1,1,3,1,NA,NA
"2145",185,"native",25,1,1,5,1,NA,NA
"2146",185,"native",26,1,1,5,1,NA,NA
"2147",185,"native",27,1,1,5,1,NA,NA
"2148",185,"native",28,1,1,5,1,NA,NA
"2149",185,"native",29,1,1,5,1,NA,NA
"2150",185,"native",30,1,1,5,1,NA,NA
"2151",185,"native",31,1,1,5,1,NA,NA
"2152",185,"native",32,1,1,5,1,NA,NA
"2153",185,"native",33,1,1,5,1,NA,NA
"2154",185,"native",34,1,1,5,1,NA,NA
"2155",185,"native",35,1,1,5,1,NA,NA
"2156",185,"native",36,1,1,5,1,NA,NA
"2157",185,"native",37,1,1,3,1,NA,NA
"2158",185,"native",38,1,1,3,1,NA,NA
"2159",185,"native",39,1,1,5,1,NA,NA
"2160",185,"native",40,1,1,5,1,NA,NA
"2161",208,"native",1,1,1,5,0,NA,NA
"2162",208,"native",2,1,1,3,0,NA,NA
"2163",208,"native",3,1,1,4,0,NA,NA
"2164",208,"native",4,1,1,5,0,NA,NA
"2165",208,"native",5,1,1,5,0,NA,NA
"2166",208,"native",6,1,1,4,0,NA,NA
"2167",208,"native",7,1,1,4,0,NA,NA
"2168",208,"native",8,1,1,4,0,NA,NA
"2169",208,"native",9,1,1,4,0,NA,NA
"2170",208,"native",10,1,1,2,0,NA,NA
"2171",208,"native",11,1,1,3,0,NA,NA
"2172",208,"native",12,1,1,5,0,NA,NA
"2173",208,"native",13,1,1,5,0,NA,NA
"2174",208,"native",14,1,1,4,0,NA,NA
"2175",208,"native",15,1,1,4,0,NA,NA
"2176",208,"native",16,1,1,4,0,NA,NA
"2177",208,"native",17,1,1,3,0,NA,NA
"2178",208,"native",18,1,1,4,0,NA,NA
"2179",208,"native",19,1,1,3,0,NA,NA
"2180",208,"native",20,1,1,3,0,NA,NA
"2181",208,"native",21,1,1,3,1,NA,NA
"2182",208,"native",22,1,1,5,1,NA,NA
"2183",208,"native",23,1,1,5,1,NA,NA
"2184",208,"native",24,1,1,4,1,NA,NA
"2185",208,"native",25,1,1,2,1,NA,NA
"2186",208,"native",26,1,1,5,1,NA,NA
"2187",208,"native",27,1,1,4,1,NA,NA
"2188",208,"native",28,1,1,5,1,NA,NA
"2189",208,"native",29,1,1,5,1,NA,NA
"2190",208,"native",30,1,1,5,1,NA,NA
"2191",208,"native",31,1,1,4,1,NA,NA
"2192",208,"native",32,1,1,4,1,NA,NA
"2193",208,"native",33,1,1,5,1,NA,NA
"2194",208,"native",34,1,1,5,1,NA,NA
"2195",208,"native",35,1,1,5,1,NA,NA
"2196",208,"native",36,1,1,4,1,NA,NA
"2197",208,"native",37,1,1,4,1,NA,NA
"2198",208,"native",38,1,1,5,1,NA,NA
"2199",208,"native",39,1,1,2,1,NA,NA
"2200",208,"native",40,1,1,4,1,NA,NA
"2201",247,"native",1,1,1,5,0,NA,NA
"2202",247,"native",2,1,1,4,0,NA,NA
"2203",247,"native",3,1,1,5,0,NA,NA
"2204",247,"native",4,1,1,5,0,NA,NA
"2205",247,"native",5,1,1,3,0,NA,NA
"2206",247,"native",6,1,1,5,0,NA,NA
"2207",247,"native",7,1,1,2,0,NA,NA
"2208",247,"native",8,1,1,2,0,NA,NA
"2209",247,"native",9,1,1,3,0,NA,NA
"2210",247,"native",10,1,1,3,0,NA,NA
"2211",247,"native",11,1,1,5,0,NA,NA
"2212",247,"native",12,1,1,5,0,NA,NA
"2213",247,"native",13,1,1,3,0,NA,NA
"2214",247,"native",14,1,1,4,0,NA,NA
"2215",247,"native",15,1,1,5,0,NA,NA
"2216",247,"native",16,1,1,3,0,NA,NA
"2217",247,"native",17,1,1,2,0,NA,NA
"2218",247,"native",18,1,1,3,0,NA,NA
"2219",247,"native",19,1,1,2,0,NA,NA
"2220",247,"native",20,1,1,3,0,NA,NA
"2221",247,"native",21,1,1,4,1,NA,NA
"2222",247,"native",22,1,1,2,1,NA,NA
"2223",247,"native",23,1,1,4,1,NA,NA
"2224",247,"native",24,1,1,4,1,NA,NA
"2225",247,"native",25,1,1,5,1,NA,NA
"2226",247,"native",26,1,1,3,1,NA,NA
"2227",247,"native",27,1,1,5,1,NA,NA
"2228",247,"native",28,1,1,2,1,NA,NA
"2229",247,"native",29,1,1,5,1,NA,NA
"2230",247,"native",30,1,1,5,1,NA,NA
"2231",247,"native",31,1,1,4,1,NA,NA
"2232",247,"native",32,1,1,2,1,NA,NA
"2233",247,"native",33,1,1,3,1,NA,NA
"2234",247,"native",34,1,1,2,1,NA,NA
"2235",247,"native",35,1,1,2,1,NA,NA
"2236",247,"native",36,1,1,4,1,NA,NA
"2237",247,"native",37,1,1,5,1,NA,NA
"2238",247,"native",38,1,1,4,1,NA,NA
"2239",247,"native",39,1,1,4,1,NA,NA
"2240",247,"native",40,1,1,4,1,NA,NA
"2241",250,"native",1,1,1,6,0,NA,NA
"2242",250,"native",2,1,1,6,0,NA,NA
"2243",250,"native",3,1,1,3,0,NA,NA
"2244",250,"native",4,1,1,6,0,NA,NA
"2245",250,"native",5,1,1,2,0,NA,NA
"2246",250,"native",6,1,1,3,0,NA,NA
"2247",250,"native",7,1,1,4,0,NA,NA
"2248",250,"native",8,1,1,5,0,NA,NA
"2249",250,"native",9,1,1,4,0,NA,NA
"2250",250,"native",10,1,1,2,0,NA,NA
"2251",250,"native",11,1,1,4,0,NA,NA
"2252",250,"native",12,1,1,5,0,NA,NA
"2253",250,"native",13,1,1,6,0,NA,NA
"2254",250,"native",14,1,1,4,0,NA,NA
"2255",250,"native",15,1,1,1,0,NA,NA
"2256",250,"native",16,1,1,3,0,NA,NA
"2257",250,"native",17,1,1,3,0,NA,NA
"2258",250,"native",18,1,1,4,0,NA,NA
"2259",250,"native",19,1,1,5,0,NA,NA
"2260",250,"native",20,1,1,3,0,NA,NA
"2261",250,"native",21,1,1,6,1,NA,NA
"2262",250,"native",22,1,1,5,1,NA,NA
"2263",250,"native",23,1,1,6,1,NA,NA
"2264",250,"native",24,1,1,3,1,NA,NA
"2265",250,"native",25,1,1,6,1,NA,NA
"2266",250,"native",26,1,1,6,1,NA,NA
"2267",250,"native",27,1,1,6,1,NA,NA
"2268",250,"native",28,1,1,6,1,NA,NA
"2269",250,"native",29,1,1,6,1,NA,NA
"2270",250,"native",30,1,1,2,1,NA,NA
"2271",250,"native",31,1,1,6,1,NA,NA
"2272",250,"native",32,1,1,6,1,NA,NA
"2273",250,"native",33,1,1,6,1,NA,NA
"2274",250,"native",34,1,1,6,1,NA,NA
"2275",250,"native",35,1,1,6,1,NA,NA
"2276",250,"native",36,1,1,5,1,NA,NA
"2277",250,"native",37,1,1,6,1,NA,NA
"2278",250,"native",38,1,1,3,1,NA,NA
"2279",250,"native",39,1,1,5,1,NA,NA
"2280",250,"native",40,1,1,1,1,NA,NA
"2281",269,"native",1,1,1,6,0,NA,NA
"2282",269,"native",2,1,1,6,0,NA,NA
"2283",269,"native",3,1,1,6,0,NA,NA
"2284",269,"native",4,1,1,6,0,NA,NA
"2285",269,"native",5,1,1,3,0,NA,NA
"2286",269,"native",6,1,1,6,0,NA,NA
"2287",269,"native",7,1,1,4,0,NA,NA
"2288",269,"native",8,1,1,6,0,NA,NA
"2289",269,"native",9,1,1,6,0,NA,NA
"2290",269,"native",10,1,1,4,0,NA,NA
"2291",269,"native",11,1,1,4,0,NA,NA
"2292",269,"native",12,1,1,1,0,NA,NA
"2293",269,"native",13,1,1,6,0,NA,NA
"2294",269,"native",14,1,1,3,0,NA,NA
"2295",269,"native",15,1,1,1,0,NA,NA
"2296",269,"native",16,1,1,6,0,NA,NA
"2297",269,"native",17,1,1,1,0,NA,NA
"2298",269,"native",18,1,1,4,0,NA,NA
"2299",269,"native",19,1,1,1,0,NA,NA
"2300",269,"native",20,1,1,4,0,NA,NA
"2301",269,"native",21,1,1,6,1,NA,NA
"2302",269,"native",22,1,1,6,1,NA,NA
"2303",269,"native",23,1,1,6,1,NA,NA
"2304",269,"native",24,1,1,6,1,NA,NA
"2305",269,"native",25,1,1,6,1,NA,NA
"2306",269,"native",26,1,1,6,1,NA,NA
"2307",269,"native",27,1,1,6,1,NA,NA
"2308",269,"native",28,1,1,6,1,NA,NA
"2309",269,"native",29,1,1,6,1,NA,NA
"2310",269,"native",30,1,1,6,1,NA,NA
"2311",269,"native",31,1,1,6,1,NA,NA
"2312",269,"native",32,1,1,6,1,NA,NA
"2313",269,"native",33,1,1,6,1,NA,NA
"2314",269,"native",34,1,1,6,1,NA,NA
"2315",269,"native",35,1,1,6,1,NA,NA
"2316",269,"native",36,1,1,6,1,NA,NA
"2317",269,"native",37,1,1,1,1,NA,NA
"2318",269,"native",38,1,1,3,1,NA,NA
"2319",269,"native",39,1,1,1,1,NA,NA
"2320",269,"native",40,1,1,6,1,NA,NA
"2321",272,"native",1,1,1,6,0,NA,NA
"2322",272,"native",2,1,1,6,0,NA,NA
"2323",272,"native",3,1,1,4,0,NA,NA
"2324",272,"native",4,1,1,5,0,NA,NA
"2325",272,"native",5,1,1,2,0,NA,NA
"2326",272,"native",6,1,1,4,0,NA,NA
"2327",272,"native",7,1,1,2,0,NA,NA
"2328",272,"native",8,1,1,3,0,NA,NA
"2329",272,"native",9,1,1,6,0,NA,NA
"2330",272,"native",10,1,1,5,0,NA,NA
"2331",272,"native",11,1,1,2,0,NA,NA
"2332",272,"native",12,1,1,1,0,NA,NA
"2333",272,"native",13,1,1,6,0,NA,NA
"2334",272,"native",14,1,1,4,0,NA,NA
"2335",272,"native",15,1,1,5,0,NA,NA
"2336",272,"native",16,1,1,6,0,NA,NA
"2337",272,"native",17,1,1,4,0,NA,NA
"2338",272,"native",18,1,1,4,0,NA,NA
"2339",272,"native",19,1,1,6,0,NA,NA
"2340",272,"native",20,1,1,3,0,NA,NA
"2341",272,"native",21,1,1,6,1,NA,NA
"2342",272,"native",22,1,1,6,1,NA,NA
"2343",272,"native",23,1,1,6,1,NA,NA
"2344",272,"native",24,1,1,6,1,NA,NA
"2345",272,"native",25,1,1,6,1,NA,NA
"2346",272,"native",26,1,1,6,1,NA,NA
"2347",272,"native",27,1,1,6,1,NA,NA
"2348",272,"native",28,1,1,6,1,NA,NA
"2349",272,"native",29,1,1,6,1,NA,NA
"2350",272,"native",30,1,1,6,1,NA,NA
"2351",272,"native",31,1,1,5,1,NA,NA
"2352",272,"native",32,1,1,6,1,NA,NA
"2353",272,"native",33,1,1,6,1,NA,NA
"2354",272,"native",34,1,1,3,1,NA,NA
"2355",272,"native",35,1,1,6,1,NA,NA
"2356",272,"native",36,1,1,6,1,NA,NA
"2357",272,"native",37,1,1,6,1,NA,NA
"2358",272,"native",38,1,1,6,1,NA,NA
"2359",272,"native",39,1,1,6,1,NA,NA
"2360",272,"native",40,1,1,5,1,NA,NA
"2361",293,"native",1,1,1,3,0,NA,NA
"2362",293,"native",2,1,1,6,0,NA,NA
"2363",293,"native",3,1,1,3,0,NA,NA
"2364",293,"native",4,1,1,4,0,NA,NA
"2365",293,"native",5,1,1,6,0,NA,NA
"2366",293,"native",6,1,1,5,0,NA,NA
"2367",293,"native",7,1,1,5,0,NA,NA
"2368",293,"native",8,1,1,3,0,NA,NA
"2369",293,"native",9,1,1,3,0,NA,NA
"2370",293,"native",10,1,1,1,0,NA,NA
"2371",293,"native",11,1,1,2,0,NA,NA
"2372",293,"native",12,1,1,5,0,NA,NA
"2373",293,"native",13,1,1,1,0,NA,NA
"2374",293,"native",14,1,1,3,0,NA,NA
"2375",293,"native",15,1,1,3,0,NA,NA
"2376",293,"native",16,1,1,3,0,NA,NA
"2377",293,"native",17,1,1,1,0,NA,NA
"2378",293,"native",18,1,1,4,0,NA,NA
"2379",293,"native",19,1,1,1,0,NA,NA
"2380",293,"native",20,1,1,3,0,NA,NA
"2381",293,"native",21,1,1,3,1,NA,NA
"2382",293,"native",22,1,1,6,1,NA,NA
"2383",293,"native",23,1,1,5,1,NA,NA
"2384",293,"native",24,1,1,4,1,NA,NA
"2385",293,"native",25,1,1,4,1,NA,NA
"2386",293,"native",26,1,1,5,1,NA,NA
"2387",293,"native",27,1,1,6,1,NA,NA
"2388",293,"native",28,1,1,4,1,NA,NA
"2389",293,"native",29,1,1,6,1,NA,NA
"2390",293,"native",30,1,1,5,1,NA,NA
"2391",293,"native",31,1,1,1,1,NA,NA
"2392",293,"native",32,1,1,6,1,NA,NA
"2393",293,"native",33,1,1,4,1,NA,NA
"2394",293,"native",34,1,1,1,1,NA,NA
"2395",293,"native",35,1,1,5,1,NA,NA
"2396",293,"native",36,1,1,1,1,NA,NA
"2397",293,"native",37,1,1,1,1,NA,NA
"2398",293,"native",38,1,1,3,1,NA,NA
"2399",293,"native",39,1,1,4,1,NA,NA
"2400",293,"native",40,1,1,5,1,NA,NA
"2401",7,"second",1,1,1,6,1,NA,NA
"2402",7,"second",2,1,1,2,1,NA,NA
"2403",7,"second",3,1,1,5,1,NA,NA
"2404",7,"second",4,1,1,5,1,NA,NA
"2405",7,"second",5,1,1,5,1,NA,NA
"2406",7,"second",6,1,1,6,1,NA,NA
"2407",7,"second",7,1,1,6,1,NA,NA
"2408",7,"second",8,1,1,5,1,NA,NA
"2409",7,"second",9,1,1,6,1,NA,NA
"2410",7,"second",10,1,1,3,1,NA,NA
"2411",7,"second",11,1,1,5,1,NA,NA
"2412",7,"second",12,1,1,6,1,NA,NA
"2413",7,"second",13,1,1,2,1,NA,NA
"2414",7,"second",14,1,1,6,1,NA,NA
"2415",7,"second",15,1,1,1,1,NA,NA
"2416",7,"second",16,1,1,4,1,NA,NA
"2417",7,"second",17,1,1,5,1,NA,NA
"2418",7,"second",18,1,1,5,1,NA,NA
"2419",7,"second",19,1,1,5,1,NA,NA
"2420",7,"second",20,1,1,4,1,NA,NA
"2421",7,"second",21,1,1,1,0,NA,NA
"2422",7,"second",22,1,1,6,0,NA,NA
"2423",7,"second",23,1,1,5,0,NA,NA
"2424",7,"second",24,1,1,2,0,NA,NA
"2425",7,"second",25,1,1,5,0,NA,NA
"2426",7,"second",26,1,1,5,0,NA,NA
"2427",7,"second",27,1,1,6,0,NA,NA
"2428",7,"second",28,1,1,6,0,NA,NA
"2429",7,"second",29,1,1,4,0,NA,NA
"2430",7,"second",30,1,1,4,0,NA,NA
"2431",7,"second",31,1,1,3,0,NA,NA
"2432",7,"second",32,1,1,5,0,NA,NA
"2433",7,"second",33,1,1,2,0,NA,NA
"2434",7,"second",34,1,1,2,0,NA,NA
"2435",7,"second",35,1,1,4,0,NA,NA
"2436",7,"second",36,1,1,3,0,NA,NA
"2437",7,"second",37,1,1,1,0,NA,NA
"2438",7,"second",38,1,1,4,0,NA,NA
"2439",7,"second",39,1,1,1,0,NA,NA
"2440",7,"second",40,1,1,4,0,NA,NA
"2441",9,"second",1,1,1,6,1,NA,NA
"2442",9,"second",2,1,1,6,1,NA,NA
"2443",9,"second",3,1,1,4,1,NA,NA
"2444",9,"second",4,1,1,1,1,NA,NA
"2445",9,"second",5,1,1,6,1,NA,NA
"2446",9,"second",6,1,1,5,1,NA,NA
"2447",9,"second",7,1,1,6,1,NA,NA
"2448",9,"second",8,1,1,5,1,NA,NA
"2449",9,"second",9,1,1,5,1,NA,NA
"2450",9,"second",10,1,1,4,1,NA,NA
"2451",9,"second",11,1,1,4,1,NA,NA
"2452",9,"second",12,1,1,5,1,NA,NA
"2453",9,"second",13,1,1,6,1,NA,NA
"2454",9,"second",14,1,1,3,1,NA,NA
"2455",9,"second",15,1,1,1,1,NA,NA
"2456",9,"second",16,1,1,5,1,NA,NA
"2457",9,"second",17,1,1,6,1,NA,NA
"2458",9,"second",18,1,1,6,1,NA,NA
"2459",9,"second",19,1,1,5,1,NA,NA
"2460",9,"second",20,1,1,2,1,NA,NA
"2461",9,"second",21,1,1,3,0,NA,NA
"2462",9,"second",22,1,1,6,0,NA,NA
"2463",9,"second",23,1,1,6,0,NA,NA
"2464",9,"second",24,1,1,3,0,NA,NA
"2465",9,"second",25,1,1,1,0,NA,NA
"2466",9,"second",26,1,1,6,0,NA,NA
"2467",9,"second",27,1,1,6,0,NA,NA
"2468",9,"second",28,1,1,6,0,NA,NA
"2469",9,"second",29,1,1,6,0,NA,NA
"2470",9,"second",30,1,1,6,0,NA,NA
"2471",9,"second",31,1,1,5,0,NA,NA
"2472",9,"second",32,1,1,5,0,NA,NA
"2473",9,"second",33,1,1,4,0,NA,NA
"2474",9,"second",34,1,1,1,0,NA,NA
"2475",9,"second",35,1,1,3,0,NA,NA
"2476",9,"second",36,1,1,6,0,NA,NA
"2477",9,"second",37,1,1,1,0,NA,NA
"2478",9,"second",38,1,1,3,0,NA,NA
"2479",9,"second",39,1,1,4,0,NA,NA
"2480",9,"second",40,1,1,5,0,NA,NA
"2481",20,"second",1,1,1,5,1,NA,NA
"2482",20,"second",2,1,1,5,1,NA,NA
"2483",20,"second",3,1,1,3,1,NA,NA
"2484",20,"second",4,1,1,6,1,NA,NA
"2485",20,"second",5,1,1,2,1,NA,NA
"2486",20,"second",6,1,1,4,1,NA,NA
"2487",20,"second",7,1,1,3,1,NA,NA
"2488",20,"second",8,1,1,1,1,NA,NA
"2489",20,"second",9,1,1,6,1,NA,NA
"2490",20,"second",10,1,1,2,1,NA,NA
"2491",20,"second",11,1,1,6,1,NA,NA
"2492",20,"second",12,1,1,6,1,NA,NA
"2493",20,"second",13,1,1,6,1,NA,NA
"2494",20,"second",14,1,1,2,1,NA,NA
"2495",20,"second",15,1,1,2,1,NA,NA
"2496",20,"second",16,1,1,6,1,NA,NA
"2497",20,"second",17,1,1,1,1,NA,NA
"2498",20,"second",18,1,1,6,1,NA,NA
"2499",20,"second",19,1,1,1,1,NA,NA
"2500",20,"second",20,1,1,3,1,NA,NA
"2501",20,"second",21,1,1,4,0,NA,NA
"2502",20,"second",22,1,1,4,0,NA,NA
"2503",20,"second",23,1,1,3,0,NA,NA
"2504",20,"second",24,1,1,5,0,NA,NA
"2505",20,"second",25,1,1,3,0,NA,NA
"2506",20,"second",26,1,1,5,0,NA,NA
"2507",20,"second",27,1,1,4,0,NA,NA
"2508",20,"second",28,1,1,6,0,NA,NA
"2509",20,"second",29,1,1,3,0,NA,NA
"2510",20,"second",30,1,1,4,0,NA,NA
"2511",20,"second",31,1,1,5,0,NA,NA
"2512",20,"second",32,1,1,4,0,NA,NA
"2513",20,"second",33,1,1,6,0,NA,NA
"2514",20,"second",34,1,1,4,0,NA,NA
"2515",20,"second",35,1,1,4,0,NA,NA
"2516",20,"second",36,1,1,4,0,NA,NA
"2517",20,"second",37,1,1,2,0,NA,NA
"2518",20,"second",38,1,1,5,0,NA,NA
"2519",20,"second",39,1,1,4,0,NA,NA
"2520",20,"second",40,1,1,6,0,NA,NA
"2521",21,"second",1,1,1,4,1,NA,NA
"2522",21,"second",2,1,1,5,1,NA,NA
"2523",21,"second",3,1,1,4,1,NA,NA
"2524",21,"second",4,1,1,4,1,NA,NA
"2525",21,"second",5,1,1,2,1,NA,NA
"2526",21,"second",6,1,1,5,1,NA,NA
"2527",21,"second",7,1,1,2,1,NA,NA
"2528",21,"second",8,1,1,4,1,NA,NA
"2529",21,"second",9,1,1,6,1,NA,NA
"2530",21,"second",10,1,1,2,1,NA,NA
"2531",21,"second",11,1,1,5,1,NA,NA
"2532",21,"second",12,1,1,6,1,NA,NA
"2533",21,"second",13,1,1,2,1,NA,NA
"2534",21,"second",14,1,1,6,1,NA,NA
"2535",21,"second",15,1,1,5,1,NA,NA
"2536",21,"second",16,1,1,2,1,NA,NA
"2537",21,"second",17,1,1,5,1,NA,NA
"2538",21,"second",18,1,1,5,1,NA,NA
"2539",21,"second",19,1,1,5,1,NA,NA
"2540",21,"second",20,1,1,3,1,NA,NA
"2541",21,"second",21,1,1,1,0,NA,NA
"2542",21,"second",22,1,1,5,0,NA,NA
"2543",21,"second",23,1,1,4,0,NA,NA
"2544",21,"second",24,1,1,3,0,NA,NA
"2545",21,"second",25,1,1,4,0,NA,NA
"2546",21,"second",26,1,1,5,0,NA,NA
"2547",21,"second",27,1,1,5,0,NA,NA
"2548",21,"second",28,1,1,6,0,NA,NA
"2549",21,"second",29,1,1,5,0,NA,NA
"2550",21,"second",30,1,1,4,0,NA,NA
"2551",21,"second",31,1,1,4,0,NA,NA
"2552",21,"second",32,1,1,5,0,NA,NA
"2553",21,"second",33,1,1,1,0,NA,NA
"2554",21,"second",34,1,1,4,0,NA,NA
"2555",21,"second",35,1,1,4,0,NA,NA
"2556",21,"second",36,1,1,4,0,NA,NA
"2557",21,"second",37,1,1,2,0,NA,NA
"2558",21,"second",38,1,1,2,0,NA,NA
"2559",21,"second",39,1,1,2,0,NA,NA
"2560",21,"second",40,1,1,5,0,NA,NA
"2561",22,"second",1,1,1,4,1,NA,NA
"2562",22,"second",2,1,1,1,1,NA,NA
"2563",22,"second",3,1,1,4,1,NA,NA
"2564",22,"second",4,1,1,3,1,NA,NA
"2565",22,"second",5,1,1,5,1,NA,NA
"2566",22,"second",6,1,1,5,1,NA,NA
"2567",22,"second",7,1,1,3,1,NA,NA
"2568",22,"second",8,1,1,5,1,NA,NA
"2569",22,"second",9,1,1,3,1,NA,NA
"2570",22,"second",10,1,1,3,1,NA,NA
"2571",22,"second",11,1,1,5,1,NA,NA
"2572",22,"second",12,1,1,5,1,NA,NA
"2573",22,"second",13,1,1,3,1,NA,NA
"2574",22,"second",14,1,1,3,1,NA,NA
"2575",22,"second",15,1,1,4,1,NA,NA
"2576",22,"second",16,1,1,3,1,NA,NA
"2577",22,"second",17,1,1,2,1,NA,NA
"2578",22,"second",18,1,1,4,1,NA,NA
"2579",22,"second",19,1,1,4,1,NA,NA
"2580",22,"second",20,1,1,4,1,NA,NA
"2581",22,"second",21,1,1,2,0,NA,NA
"2582",22,"second",22,1,1,3,0,NA,NA
"2583",22,"second",23,1,1,4,0,NA,NA
"2584",22,"second",24,1,1,3,0,NA,NA
"2585",22,"second",25,1,1,4,0,NA,NA
"2586",22,"second",26,1,1,5,0,NA,NA
"2587",22,"second",27,1,1,3,0,NA,NA
"2588",22,"second",28,1,1,5,0,NA,NA
"2589",22,"second",29,1,1,5,0,NA,NA
"2590",22,"second",30,1,1,5,0,NA,NA
"2591",22,"second",31,1,1,4,0,NA,NA
"2592",22,"second",32,1,1,4,0,NA,NA
"2593",22,"second",33,1,1,3,0,NA,NA
"2594",22,"second",34,1,1,5,0,NA,NA
"2595",22,"second",35,1,1,4,0,NA,NA
"2596",22,"second",36,1,1,3,0,NA,NA
"2597",22,"second",37,1,1,4,0,NA,NA
"2598",22,"second",38,1,1,5,0,NA,NA
"2599",22,"second",39,1,1,2,0,NA,NA
"2600",22,"second",40,1,1,4,0,NA,NA
"2601",24,"second",1,1,1,6,1,NA,NA
"2602",24,"second",2,1,1,6,1,NA,NA
"2603",24,"second",3,1,1,6,1,NA,NA
"2604",24,"second",4,1,1,6,1,NA,NA
"2605",24,"second",5,1,1,1,1,NA,NA
"2606",24,"second",6,1,1,6,1,NA,NA
"2607",24,"second",7,1,1,4,1,NA,NA
"2608",24,"second",8,1,1,6,1,NA,NA
"2609",24,"second",9,1,1,6,1,NA,NA
"2610",24,"second",10,1,1,6,1,NA,NA
"2611",24,"second",11,1,1,6,1,NA,NA
"2612",24,"second",12,1,1,6,1,NA,NA
"2613",24,"second",13,1,1,6,1,NA,NA
"2614",24,"second",14,1,1,6,1,NA,NA
"2615",24,"second",15,1,1,6,1,NA,NA
"2616",24,"second",16,1,1,6,1,NA,NA
"2617",24,"second",17,1,1,6,1,NA,NA
"2618",24,"second",18,1,1,6,1,NA,NA
"2619",24,"second",19,1,1,6,1,NA,NA
"2620",24,"second",20,1,1,6,1,NA,NA
"2621",24,"second",21,1,1,4,0,NA,NA
"2622",24,"second",22,1,1,6,0,NA,NA
"2623",24,"second",23,1,1,4,0,NA,NA
"2624",24,"second",24,1,1,4,0,NA,NA
"2625",24,"second",25,1,1,6,0,NA,NA
"2626",24,"second",26,1,1,1,0,NA,NA
"2627",24,"second",27,1,1,4,0,NA,NA
"2628",24,"second",28,1,1,6,0,NA,NA
"2629",24,"second",29,1,1,6,0,NA,NA
"2630",24,"second",30,1,1,6,0,NA,NA
"2631",24,"second",31,1,1,4,0,NA,NA
"2632",24,"second",32,1,1,6,0,NA,NA
"2633",24,"second",33,1,1,1,0,NA,NA
"2634",24,"second",34,1,1,6,0,NA,NA
"2635",24,"second",35,1,1,6,0,NA,NA
"2636",24,"second",36,1,1,3,0,NA,NA
"2637",24,"second",37,1,1,6,0,NA,NA
"2638",24,"second",38,1,1,5,0,NA,NA
"2639",24,"second",39,1,1,3,0,NA,NA
"2640",24,"second",40,1,1,6,0,NA,NA
"2641",27,"second",1,1,1,4,1,NA,NA
"2642",27,"second",2,1,1,6,1,NA,NA
"2643",27,"second",3,1,1,5,1,NA,NA
"2644",27,"second",4,1,1,5,1,NA,NA
"2645",27,"second",5,1,1,3,1,NA,NA
"2646",27,"second",6,1,1,5,1,NA,NA
"2647",27,"second",7,1,1,5,1,NA,NA
"2648",27,"second",8,1,1,4,1,NA,NA
"2649",27,"second",9,1,1,5,1,NA,NA
"2650",27,"second",10,1,1,4,1,NA,NA
"2651",27,"second",11,1,1,5,1,NA,NA
"2652",27,"second",12,1,1,5,1,NA,NA
"2653",27,"second",13,1,1,5,1,NA,NA
"2654",27,"second",14,1,1,5,1,NA,NA
"2655",27,"second",15,1,1,5,1,NA,NA
"2656",27,"second",16,1,1,4,1,NA,NA
"2657",27,"second",17,1,1,5,1,NA,NA
"2658",27,"second",18,1,1,5,1,NA,NA
"2659",27,"second",19,1,1,4,1,NA,NA
"2660",27,"second",20,1,1,5,1,NA,NA
"2661",27,"second",21,1,1,2,0,NA,NA
"2662",27,"second",22,1,1,4,0,NA,NA
"2663",27,"second",23,1,1,4,0,NA,NA
"2664",27,"second",24,1,1,4,0,NA,NA
"2665",27,"second",25,1,1,5,0,NA,NA
"2666",27,"second",26,1,1,4,0,NA,NA
"2667",27,"second",27,1,1,4,0,NA,NA
"2668",27,"second",28,1,1,5,0,NA,NA
"2669",27,"second",29,1,1,3,0,NA,NA
"2670",27,"second",30,1,1,4,0,NA,NA
"2671",27,"second",31,1,1,4,0,NA,NA
"2672",27,"second",32,1,1,3,0,NA,NA
"2673",27,"second",33,1,1,2,0,NA,NA
"2674",27,"second",34,1,1,1,0,NA,NA
"2675",27,"second",35,1,1,4,0,NA,NA
"2676",27,"second",36,1,1,3,0,NA,NA
"2677",27,"second",37,1,1,2,0,NA,NA
"2678",27,"second",38,1,1,4,0,NA,NA
"2679",27,"second",39,1,1,4,0,NA,NA
"2680",27,"second",40,1,1,3,0,NA,NA
"2681",32,"second",1,1,1,6,1,NA,NA
"2682",32,"second",2,1,1,4,1,NA,NA
"2683",32,"second",3,1,1,6,1,NA,NA
"2684",32,"second",4,1,1,5,1,NA,NA
"2685",32,"second",5,1,1,2,1,NA,NA
"2686",32,"second",6,1,1,5,1,NA,NA
"2687",32,"second",7,1,1,5,1,NA,NA
"2688",32,"second",8,1,1,5,1,NA,NA
"2689",32,"second",9,1,1,6,1,NA,NA
"2690",32,"second",10,1,1,2,1,NA,NA
"2691",32,"second",11,1,1,4,1,NA,NA
"2692",32,"second",12,1,1,5,1,NA,NA
"2693",32,"second",13,1,1,5,1,NA,NA
"2694",32,"second",14,1,1,5,1,NA,NA
"2695",32,"second",15,1,1,4,1,NA,NA
"2696",32,"second",16,1,1,6,1,NA,NA
"2697",32,"second",17,1,1,5,1,NA,NA
"2698",32,"second",18,1,1,4,1,NA,NA
"2699",32,"second",19,1,1,4,1,NA,NA
"2700",32,"second",20,1,1,3,1,NA,NA
"2701",32,"second",21,1,1,1,0,NA,NA
"2702",32,"second",22,1,1,2,0,NA,NA
"2703",32,"second",23,1,1,3,0,NA,NA
"2704",32,"second",24,1,1,2,0,NA,NA
"2705",32,"second",25,1,1,5,0,NA,NA
"2706",32,"second",26,1,1,5,0,NA,NA
"2707",32,"second",27,1,1,2,0,NA,NA
"2708",32,"second",28,1,1,6,0,NA,NA
"2709",32,"second",29,1,1,5,0,NA,NA
"2710",32,"second",30,1,1,4,0,NA,NA
"2711",32,"second",31,1,1,2,0,NA,NA
"2712",32,"second",32,1,1,5,0,NA,NA
"2713",32,"second",33,1,1,2,0,NA,NA
"2714",32,"second",34,1,1,2,0,NA,NA
"2715",32,"second",35,1,1,4,0,NA,NA
"2716",32,"second",36,1,1,2,0,NA,NA
"2717",32,"second",37,1,1,2,0,NA,NA
"2718",32,"second",38,1,1,2,0,NA,NA
"2719",32,"second",39,1,1,4,0,NA,NA
"2720",32,"second",40,1,1,2,0,NA,NA
"2721",38,"second",1,1,1,6,1,NA,NA
"2722",38,"second",2,1,1,6,1,NA,NA
"2723",38,"second",3,1,1,6,1,NA,NA
"2724",38,"second",4,1,1,6,1,NA,NA
"2725",38,"second",5,1,1,1,1,NA,NA
"2726",38,"second",6,1,1,6,1,NA,NA
"2727",38,"second",7,1,1,5,1,NA,NA
"2728",38,"second",8,1,1,6,1,NA,NA
"2729",38,"second",9,1,1,6,1,NA,NA
"2730",38,"second",10,1,1,6,1,NA,NA
"2731",38,"second",11,1,1,6,1,NA,NA
"2732",38,"second",12,1,1,6,1,NA,NA
"2733",38,"second",13,1,1,6,1,NA,NA
"2734",38,"second",14,1,1,4,1,NA,NA
"2735",38,"second",15,1,1,6,1,NA,NA
"2736",38,"second",16,1,1,6,1,NA,NA
"2737",38,"second",17,1,1,6,1,NA,NA
"2738",38,"second",18,1,1,3,1,NA,NA
"2739",38,"second",19,1,1,3,1,NA,NA
"2740",38,"second",20,1,1,4,1,NA,NA
"2741",38,"second",21,1,1,1,0,NA,NA
"2742",38,"second",22,1,1,3,0,NA,NA
"2743",38,"second",23,1,1,4,0,NA,NA
"2744",38,"second",24,1,1,5,0,NA,NA
"2745",38,"second",25,1,1,2,0,NA,NA
"2746",38,"second",26,1,1,4,0,NA,NA
"2747",38,"second",27,1,1,4,0,NA,NA
"2748",38,"second",28,1,1,5,0,NA,NA
"2749",38,"second",29,1,1,4,0,NA,NA
"2750",38,"second",30,1,1,6,0,NA,NA
"2751",38,"second",31,1,1,2,0,NA,NA
"2752",38,"second",32,1,1,3,0,NA,NA
"2753",38,"second",33,1,1,3,0,NA,NA
"2754",38,"second",34,1,1,4,0,NA,NA
"2755",38,"second",35,1,1,3,0,NA,NA
"2756",38,"second",36,1,1,1,0,NA,NA
"2757",38,"second",37,1,1,5,0,NA,NA
"2758",38,"second",38,1,1,4,0,NA,NA
"2759",38,"second",39,1,1,1,0,NA,NA
"2760",38,"second",40,1,1,4,0,NA,NA
"2761",39,"second",1,1,1,6,1,NA,NA
"2762",39,"second",2,1,1,6,1,NA,NA
"2763",39,"second",3,1,1,6,1,NA,NA
"2764",39,"second",4,1,1,6,1,NA,NA
"2765",39,"second",5,1,1,6,1,NA,NA
"2766",39,"second",6,1,1,6,1,NA,NA
"2767",39,"second",7,1,1,6,1,NA,NA
"2768",39,"second",8,1,1,3,1,NA,NA
"2769",39,"second",9,1,1,6,1,NA,NA
"2770",39,"second",10,1,1,3,1,NA,NA
"2771",39,"second",11,1,1,6,1,NA,NA
"2772",39,"second",12,1,1,6,1,NA,NA
"2773",39,"second",13,1,1,6,1,NA,NA
"2774",39,"second",14,1,1,6,1,NA,NA
"2775",39,"second",15,1,1,1,1,NA,NA
"2776",39,"second",16,1,1,6,1,NA,NA
"2777",39,"second",17,1,1,2,1,NA,NA
"2778",39,"second",18,1,1,4,1,NA,NA
"2779",39,"second",19,1,1,6,1,NA,NA
"2780",39,"second",20,1,1,3,1,NA,NA
"2781",39,"second",21,1,1,2,0,NA,NA
