"","subject","between_identifier","statement_identifier","presentation_identifier","within_identifier","response","repeated","rt","trial"
"1",1,"native",1,1,1,5,1,NA,NA
"2",1,"native",2,1,1,6,1,NA,NA
"3",1,"native",3,1,1,3,1,NA,NA
"4",1,"native",4,1,1,5,1,NA,NA
"5",1,"native",5,1,1,6,1,NA,NA
"6",1,"native",6,1,1,4,1,NA,NA
"7",1,"native",7,1,1,4,1,NA,NA
"8",1,"native",8,1,1,5,1,NA,NA
"9",1,"native",9,1,1,6,1,NA,NA
"10",1,"native",10,1,1,5,1,NA,NA
"11",1,"native",11,1,1,6,1,NA,NA
"12",1,"native",12,1,1,6,1,NA,NA
"13",1,"native",13,1,1,6,1,NA,NA
"14",1,"native",14,1,1,5,1,NA,NA
"15",1,"native",15,1,1,1,1,NA,NA
"16",1,"native",16,1,1,5,1,NA,NA
"17",1,"native",17,1,1,6,1,NA,NA
"18",1,"native",18,1,1,2,1,NA,NA
"19",1,"native",19,1,1,6,1,NA,NA
"20",1,"native",20,1,1,2,1,NA,NA
"21",1,"native",21,1,1,1,0,NA,NA
"22",1,"native",22,1,1,5,0,NA,NA
"23",1,"native",23,1,1,5,0,NA,NA
"24",1,"native",24,1,1,3,0,NA,NA
"25",1,"native",25,1,1,3,0,NA,NA
"26",1,"native",26,1,1,6,0,NA,NA
"27",1,"native",27,1,1,5,0,NA,NA
"28",1,"native",28,1,1,6,0,NA,NA
"29",1,"native",29,1,1,4,0,NA,NA
"30",1,"native",30,1,1,5,0,NA,NA
"31",1,"native",31,1,1,4,0,NA,NA
"32",1,"native",32,1,1,2,0,NA,NA
"33",1,"native",33,1,1,3,0,NA,NA
"34",1,"native",34,1,1,3,0,NA,NA
"35",1,"native",35,1,1,5,0,NA,NA
"36",1,"native",36,1,1,4,0,NA,NA
"37",1,"native",37,1,1,6,0,NA,NA
"38",1,"native",38,1,1,5,0,NA,NA
"39",1,"native",39,1,1,5,0,NA,NA
"40",1,"native",40,1,1,2,0,NA,NA
"41",2,"native",1,1,1,4,1,NA,NA
"42",2,"native",2,1,1,4,1,NA,NA
"43",2,"native",3,1,1,6,1,NA,NA
"44",2,"native",4,1,1,4,1,NA,NA
"45",2,"native",5,1,1,4,1,NA,NA
"46",2,"native",6,1,1,4,1,NA,NA
"47",2,"native",7,1,1,5,1,NA,NA
"48",2,"native",8,1,1,5,1,NA,NA
"49",2,"native",9,1,1,6,1,NA,NA
"50",2,"native",10,1,1,4,1,NA,NA
"51",2,"native",11,1,1,5,1,NA,NA
"52",2,"native",12,1,1,4,1,NA,NA
"53",2,"native",13,1,1,5,1,NA,NA
"54",2,"native",14,1,1,4,1,NA,NA
"55",2,"native",15,1,1,5,1,NA,NA
"56",2,"native",16,1,1,4,1,NA,NA
"57",2,"native",17,1,1,4,1,NA,NA
"58",2,"native",18,1,1,5,1,NA,NA
"59",2,"native",19,1,1,4,1,NA,NA
"60",2,"native",20,1,1,5,1,NA,NA
"61",2,"native",21,1,1,5,0,NA,NA
"62",2,"native",22,1,1,5,0,NA,NA
"63",2,"native",23,1,1,5,0,NA,NA
"64",2,"native",24,1,1,5,0,NA,NA
"65",2,"native",25,1,1,5,0,NA,NA
"66",2,"native",26,1,1,5,0,NA,NA
"67",2,"native",27,1,1,5,0,NA,NA
"68",2,"native",28,1,1,4,0,NA,NA
"69",2,"native",29,1,1,5,0,NA,NA
"70",2,"native",30,1,1,5,0,NA,NA
"71",2,"native",31,1,1,5,0,NA,NA
"72",2,"native",32,1,1,4,0,NA,NA
"73",2,"native",33,1,1,5,0,NA,NA
"74",2,"native",34,1,1,5,0,NA,NA
"75",2,"native",35,1,1,4,0,NA,NA
"76",2,"native",36,1,1,5,0,NA,NA
"77",2,"native",37,1,1,4,0,NA,NA
"78",2,"native",38,1,1,4,0,NA,NA
"79",2,"native",39,1,1,5,0,NA,NA
"80",2,"native",40,1,1,4,0,NA,NA
"81",3,"native",1,1,1,5,1,NA,NA
"82",3,"native",2,1,1,5,1,NA,NA
"83",3,"native",3,1,1,5,1,NA,NA
"84",3,"native",4,1,1,5,1,NA,NA
"85",3,"native",5,1,1,1,1,NA,NA
"86",3,"native",6,1,1,5,1,NA,NA
"87",3,"native",7,1,1,6,1,NA,NA
"88",3,"native",8,1,1,5,1,NA,NA
"89",3,"native",9,1,1,4,1,NA,NA
"90",3,"native",10,1,1,4,1,NA,NA
"91",3,"native",11,1,1,2,1,NA,NA
"92",3,"native",12,1,1,6,1,NA,NA
"93",3,"native",13,1,1,6,1,NA,NA
"94",3,"native",14,1,1,5,1,NA,NA
"95",3,"native",15,1,1,6,1,NA,NA
"96",3,"native",16,1,1,5,1,NA,NA
"97",3,"native",17,1,1,4,1,NA,NA
"98",3,"native",18,1,1,5,1,NA,NA
"99",3,"native",19,1,1,6,1,NA,NA
"100",3,"native",20,1,1,5,1,NA,NA
"101",3,"native",21,1,1,2,0,NA,NA
"102",3,"native",22,1,1,5,0,NA,NA
"103",3,"native",23,1,1,4,0,NA,NA
"104",3,"native",24,1,1,1,0,NA,NA
"105",3,"native",25,1,1,6,0,NA,NA
"106",3,"native",26,1,1,6,0,NA,NA
"107",3,"native",27,1,1,5,0,NA,NA
"108",3,"native",28,1,1,5,0,NA,NA
"109",3,"native",29,1,1,4,0,NA,NA
"110",3,"native",30,1,1,5,0,NA,NA
"111",3,"native",31,1,1,5,0,NA,NA
"112",3,"native",32,1,1,6,0,NA,NA
"113",3,"native",33,1,1,4,0,NA,NA
"114",3,"native",34,1,1,5,0,NA,NA
"115",3,"native",35,1,1,3,0,NA,NA
"116",3,"native",36,1,1,1,0,NA,NA
"117",3,"native",37,1,1,1,0,NA,NA
"118",3,"native",38,1,1,5,0,NA,NA
"119",3,"native",39,1,1,6,0,NA,NA
"120",3,"native",40,1,1,6,0,NA,NA
"121",4,"native",1,1,1,2,1,NA,NA
"122",4,"native",2,1,1,6,1,NA,NA
"123",4,"native",3,1,1,5,1,NA,NA
"124",4,"native",4,1,1,3,1,NA,NA
"125",4,"native",5,1,1,1,1,NA,NA
"126",4,"native",6,1,1,2,1,NA,NA
"127",4,"native",7,1,1,5,1,NA,NA
"128",4,"native",8,1,1,5,1,NA,NA
"129",4,"native",9,1,1,2,1,NA,NA
"130",4,"native",10,1,1,1,1,NA,NA
"131",4,"native",11,1,1,4,1,NA,NA
"132",4,"native",12,1,1,5,1,NA,NA
"133",4,"native",13,1,1,1,1,NA,NA
"134",4,"native",14,1,1,5,1,NA,NA
"135",4,"native",15,1,1,1,1,NA,NA
"136",4,"native",16,1,1,5,1,NA,NA
"137",4,"native",17,1,1,2,1,NA,NA
"138",4,"native",18,1,1,4,1,NA,NA
"139",4,"native",19,1,1,5,1,NA,NA
"140",4,"native",20,1,1,2,1,NA,NA
"141",4,"native",21,1,1,3,0,NA,NA
"142",4,"native",22,1,1,3,0,NA,NA
"143",4,"native",23,1,1,2,0,NA,NA
"144",4,"native",24,1,1,2,0,NA,NA
"145",4,"native",25,1,1,3,0,NA,NA
"146",4,"native",26,1,1,5,0,NA,NA
"147",4,"native",27,1,1,5,0,NA,NA
"148",4,"native",28,1,1,5,0,NA,NA
"149",4,"native",29,1,1,2,0,NA,NA
"150",4,"native",30,1,1,2,0,NA,NA
"151",4,"native",31,1,1,3,0,NA,NA
"152",4,"native",32,1,1,1,0,NA,NA
"153",4,"native",33,1,1,2,0,NA,NA
"154",4,"native",34,1,1,3,0,NA,NA
"155",4,"native",35,1,1,3,0,NA,NA
"156",4,"native",36,1,1,5,0,NA,NA
"157",4,"native",37,1,1,2,0,NA,NA
"158",4,"native",38,1,1,3,0,NA,NA
"159",4,"native",39,1,1,3,0,NA,NA
"160",4,"native",40,1,1,3,0,NA,NA
"161",5,"native",1,1,1,5,1,NA,NA
"162",5,"native",2,1,1,2,1,NA,NA
"163",5,"native",3,1,1,3,1,NA,NA
"164",5,"native",4,1,1,5,1,NA,NA
"165",5,"native",5,1,1,3,1,NA,NA
"166",5,"native",6,1,1,4,1,NA,NA
"167",5,"native",7,1,1,5,1,NA,NA
"168",5,"native",8,1,1,4,1,NA,NA
"169",5,"native",9,1,1,2,1,NA,NA
"170",5,"native",10,1,1,5,1,NA,NA
"171",5,"native",11,1,1,4,1,NA,NA
"172",5,"native",12,1,1,5,1,NA,NA
"173",5,"native",13,1,1,4,1,NA,NA
"174",5,"native",14,1,1,5,1,NA,NA
"175",5,"native",15,1,1,5,1,NA,NA
"176",5,"native",16,1,1,5,1,NA,NA
"177",5,"native",17,1,1,4,1,NA,NA
"178",5,"native",18,1,1,2,1,NA,NA
"179",5,"native",19,1,1,3,1,NA,NA
"180",5,"native",20,1,1,5,1,NA,NA
"181",5,"native",21,1,1,2,0,NA,NA
"182",5,"native",22,1,1,2,0,NA,NA
"183",5,"native",23,1,1,3,0,NA,NA
"184",5,"native",24,1,1,3,0,NA,NA
"185",5,"native",25,1,1,4,0,NA,NA
"186",5,"native",26,1,1,5,0,NA,NA
"187",5,"native",27,1,1,3,0,NA,NA
"188",5,"native",28,1,1,2,0,NA,NA
"189",5,"native",29,1,1,4,0,NA,NA
"190",5,"native",30,1,1,2,0,NA,NA
"191",5,"native",31,1,1,5,0,NA,NA
"192",5,"native",32,1,1,4,0,NA,NA
"193",5,"native",33,1,1,5,0,NA,NA
"194",5,"native",34,1,1,3,0,NA,NA
"195",5,"native",35,1,1,3,0,NA,NA
"196",5,"native",36,1,1,4,0,NA,NA
"197",5,"native",37,1,1,4,0,NA,NA
"198",5,"native",38,1,1,3,0,NA,NA
"199",5,"native",39,1,1,3,0,NA,NA
"200",5,"native",40,1,1,4,0,NA,NA
"201",6,"native",1,1,1,3,1,NA,NA
"202",6,"native",2,1,1,3,1,NA,NA
"203",6,"native",3,1,1,3,1,NA,NA
"204",6,"native",4,1,1,3,1,NA,NA
"205",6,"native",5,1,1,3,1,NA,NA
"206",6,"native",6,1,1,3,1,NA,NA
"207",6,"native",7,1,1,3,1,NA,NA
"208",6,"native",8,1,1,3,1,NA,NA
"209",6,"native",9,1,1,3,1,NA,NA
"210",6,"native",10,1,1,3,1,NA,NA
"211",6,"native",11,1,1,3,1,NA,NA
"212",6,"native",12,1,1,3,1,NA,NA
"213",6,"native",13,1,1,3,1,NA,NA
"214",6,"native",14,1,1,3,1,NA,NA
"215",6,"native",15,1,1,3,1,NA,NA
"216",6,"native",16,1,1,3,1,NA,NA
"217",6,"native",17,1,1,3,1,NA,NA
"218",6,"native",18,1,1,3,1,NA,NA
"219",6,"native",19,1,1,3,1,NA,NA
"220",6,"native",20,1,1,3,1,NA,NA
"221",6,"native",21,1,1,3,0,NA,NA
"222",6,"native",22,1,1,3,0,NA,NA
"223",6,"native",23,1,1,3,0,NA,NA
"224",6,"native",24,1,1,3,0,NA,NA
"225",6,"native",25,1,1,3,0,NA,NA
"226",6,"native",26,1,1,3,0,NA,NA
"227",6,"native",27,1,1,3,0,NA,NA
"228",6,"native",28,1,1,3,0,NA,NA
"229",6,"native",29,1,1,3,0,NA,NA
"230",6,"native",30,1,1,3,0,NA,NA
"231",6,"native",31,1,1,3,0,NA,NA
"232",6,"native",32,1,1,3,0,NA,NA
"233",6,"native",33,1,1,3,0,NA,NA
"234",6,"native",34,1,1,3,0,NA,NA
"235",6,"native",35,1,1,3,0,NA,NA
"236",6,"native",36,1,1,3,0,NA,NA
"237",6,"native",37,1,1,2,0,NA,NA
"238",6,"native",38,1,1,3,0,NA,NA
"239",6,"native",39,1,1,3,0,NA,NA
"240",6,"native",40,1,1,3,0,NA,NA
"241",7,"native",1,1,1,6,1,NA,NA
"242",7,"native",2,1,1,1,1,NA,NA
"243",7,"native",3,1,1,1,1,NA,NA
"244",7,"native",4,1,1,4,1,NA,NA
"245",7,"native",5,1,1,6,1,NA,NA
"246",7,"native",6,1,1,4,1,NA,NA
"247",7,"native",7,1,1,1,1,NA,NA
"248",7,"native",8,1,1,1,1,NA,NA
"249",7,"native",9,1,1,1,1,NA,NA
"250",7,"native",10,1,1,1,1,NA,NA
"251",7,"native",11,1,1,1,1,NA,NA
"252",7,"native",12,1,1,1,1,NA,NA
"253",7,"native",13,1,1,3,1,NA,NA
"254",7,"native",14,1,1,6,1,NA,NA
"255",7,"native",15,1,1,1,1,NA,NA
"256",7,"native",16,1,1,1,1,NA,NA
"257",7,"native",17,1,1,1,1,NA,NA
"258",7,"native",18,1,1,4,1,NA,NA
"259",7,"native",19,1,1,1,1,NA,NA
"260",7,"native",20,1,1,4,1,NA,NA
"261",7,"native",21,1,1,1,0,NA,NA
"262",7,"native",22,1,1,1,0,NA,NA
"263",7,"native",23,1,1,1,0,NA,NA
"264",7,"native",24,1,1,1,0,NA,NA
"265",7,"native",25,1,1,1,0,NA,NA
"266",7,"native",26,1,1,1,0,NA,NA
"267",7,"native",27,1,1,6,0,NA,NA
"268",7,"native",28,1,1,1,0,NA,NA
"269",7,"native",29,1,1,1,0,NA,NA
"270",7,"native",30,1,1,6,0,NA,NA
"271",7,"native",31,1,1,6,0,NA,NA
"272",7,"native",32,1,1,1,0,NA,NA
"273",7,"native",33,1,1,1,0,NA,NA
"274",7,"native",34,1,1,1,0,NA,NA
"275",7,"native",35,1,1,6,0,NA,NA
"276",7,"native",36,1,1,1,0,NA,NA
"277",7,"native",37,1,1,6,0,NA,NA
"278",7,"native",38,1,1,6,0,NA,NA
"279",7,"native",39,1,1,1,0,NA,NA
"280",7,"native",40,1,1,3,0,NA,NA
"281",8,"native",1,1,1,5,1,NA,NA
"282",8,"native",2,1,1,5,1,NA,NA
"283",8,"native",3,1,1,4,1,NA,NA
"284",8,"native",4,1,1,5,1,NA,NA
"285",8,"native",5,1,1,5,1,NA,NA
"286",8,"native",6,1,1,5,1,NA,NA
"287",8,"native",7,1,1,6,1,NA,NA
"288",8,"native",8,1,1,5,1,NA,NA
"289",8,"native",9,1,1,5,1,NA,NA
"290",8,"native",10,1,1,5,1,NA,NA
"291",8,"native",11,1,1,5,1,NA,NA
"292",8,"native",12,1,1,5,1,NA,NA
"293",8,"native",13,1,1,5,1,NA,NA
"294",8,"native",14,1,1,5,1,NA,NA
"295",8,"native",15,1,1,5,1,NA,NA
"296",8,"native",16,1,1,4,1,NA,NA
"297",8,"native",17,1,1,5,1,NA,NA
"298",8,"native",18,1,1,5,1,NA,NA
"299",8,"native",19,1,1,5,1,NA,NA
"300",8,"native",20,1,1,6,1,NA,NA
"301",8,"native",21,1,1,5,0,NA,NA
"302",8,"native",22,1,1,5,0,NA,NA
"303",8,"native",23,1,1,6,0,NA,NA
"304",8,"native",24,1,1,5,0,NA,NA
"305",8,"native",25,1,1,5,0,NA,NA
"306",8,"native",26,1,1,4,0,NA,NA
"307",8,"native",27,1,1,5,0,NA,NA
"308",8,"native",28,1,1,5,0,NA,NA
"309",8,"native",29,1,1,5,0,NA,NA
"310",8,"native",30,1,1,6,0,NA,NA
"311",8,"native",31,1,1,5,0,NA,NA
"312",8,"native",32,1,1,5,0,NA,NA
"313",8,"native",33,1,1,3,0,NA,NA
"314",8,"native",34,1,1,5,0,NA,NA
"315",8,"native",35,1,1,6,0,NA,NA
"316",8,"native",36,1,1,5,0,NA,NA
"317",8,"native",37,1,1,5,0,NA,NA
"318",8,"native",38,1,1,5,0,NA,NA
"319",8,"native",39,1,1,5,0,NA,NA
"320",8,"native",40,1,1,5,0,NA,NA
"321",9,"native",1,1,1,6,1,NA,NA
"322",9,"native",2,1,1,6,1,NA,NA
"323",9,"native",3,1,1,3,1,NA,NA
"324",9,"native",4,1,1,3,1,NA,NA
"325",9,"native",5,1,1,5,1,NA,NA
"326",9,"native",6,1,1,5,1,NA,NA
"327",9,"native",7,1,1,6,1,NA,NA
"328",9,"native",8,1,1,6,1,NA,NA
"329",9,"native",9,1,1,4,1,NA,NA
"330",9,"native",10,1,1,1,1,NA,NA
"331",9,"native",11,1,1,4,1,NA,NA
"332",9,"native",12,1,1,6,1,NA,NA
"333",9,"native",13,1,1,6,1,NA,NA
"334",9,"native",14,1,1,6,1,NA,NA
"335",9,"native",15,1,1,4,1,NA,NA
"336",9,"native",16,1,1,4,1,NA,NA
"337",9,"native",17,1,1,4,1,NA,NA
"338",9,"native",18,1,1,5,1,NA,NA
"339",9,"native",19,1,1,2,1,NA,NA
"340",9,"native",20,1,1,5,1,NA,NA
"341",9,"native",21,1,1,1,0,NA,NA
"342",9,"native",22,1,1,2,0,NA,NA
"343",9,"native",23,1,1,3,0,NA,NA
"344",9,"native",24,1,1,4,0,NA,NA
"345",9,"native",25,1,1,4,0,NA,NA
"346",9,"native",26,1,1,6,0,NA,NA
"347",9,"native",27,1,1,3,0,NA,NA
"348",9,"native",28,1,1,1,0,NA,NA
"349",9,"native",29,1,1,5,0,NA,NA
"350",9,"native",30,1,1,4,0,NA,NA
"351",9,"native",31,1,1,2,0,NA,NA
"352",9,"native",32,1,1,6,0,NA,NA
"353",9,"native",33,1,1,2,0,NA,NA
"354",9,"native",34,1,1,2,0,NA,NA
"355",9,"native",35,1,1,6,0,NA,NA
"356",9,"native",36,1,1,5,0,NA,NA
"357",9,"native",37,1,1,1,0,NA,NA
"358",9,"native",38,1,1,4,0,NA,NA
"359",9,"native",39,1,1,4,0,NA,NA
"360",9,"native",40,1,1,1,0,NA,NA
"361",10,"native",1,1,1,6,1,NA,NA
"362",10,"native",2,1,1,3,1,NA,NA
"363",10,"native",3,1,1,1,1,NA,NA
"364",10,"native",4,1,1,5,1,NA,NA
"365",10,"native",5,1,1,2,1,NA,NA
"366",10,"native",6,1,1,6,1,NA,NA
"367",10,"native",7,1,1,2,1,NA,NA
"368",10,"native",8,1,1,4,1,NA,NA
"369",10,"native",9,1,1,5,1,NA,NA
"370",10,"native",10,1,1,1,1,NA,NA
"371",10,"native",11,1,1,4,1,NA,NA
"372",10,"native",12,1,1,3,1,NA,NA
"373",10,"native",13,1,1,1,1,NA,NA
"374",10,"native",14,1,1,6,1,NA,NA
"375",10,"native",15,1,1,6,1,NA,NA
"376",10,"native",16,1,1,2,1,NA,NA
"377",10,"native",17,1,1,2,1,NA,NA
"378",10,"native",18,1,1,4,1,NA,NA
"379",10,"native",19,1,1,3,1,NA,NA
"380",10,"native",20,1,1,4,1,NA,NA
"381",10,"native",21,1,1,2,0,NA,NA
"382",10,"native",22,1,1,3,0,NA,NA
"383",10,"native",23,1,1,2,0,NA,NA
"384",10,"native",24,1,1,2,0,NA,NA
"385",10,"native",25,1,1,4,0,NA,NA
"386",10,"native",26,1,1,4,0,NA,NA
"387",10,"native",27,1,1,5,0,NA,NA
"388",10,"native",28,1,1,2,0,NA,NA
"389",10,"native",29,1,1,4,0,NA,NA
"390",10,"native",30,1,1,2,0,NA,NA
"391",10,"native",31,1,1,5,0,NA,NA
"392",10,"native",32,1,1,4,0,NA,NA
"393",10,"native",33,1,1,5,0,NA,NA
"394",10,"native",34,1,1,5,0,NA,NA
"395",10,"native",35,1,1,5,0,NA,NA
"396",10,"native",36,1,1,1,0,NA,NA
"397",10,"native",37,1,1,5,0,NA,NA
"398",10,"native",38,1,1,6,0,NA,NA
"399",10,"native",39,1,1,4,0,NA,NA
"400",10,"native",40,1,1,4,0,NA,NA
"401",11,"native",1,1,1,6,1,NA,NA
"402",11,"native",2,1,1,1,1,NA,NA
"403",11,"native",3,1,1,4,1,NA,NA
"404",11,"native",4,1,1,6,1,NA,NA
"405",11,"native",5,1,1,1,1,NA,NA
"406",11,"native",6,1,1,1,1,NA,NA
"407",11,"native",7,1,1,4,1,NA,NA
"408",11,"native",8,1,1,4,1,NA,NA
"409",11,"native",9,1,1,4,1,NA,NA
"410",11,"native",10,1,1,1,1,NA,NA
"411",11,"native",11,1,1,5,1,NA,NA
"412",11,"native",12,1,1,4,1,NA,NA
"413",11,"native",13,1,1,6,1,NA,NA
"414",11,"native",14,1,1,6,1,NA,NA
"415",11,"native",15,1,1,4,1,NA,NA
"416",11,"native",16,1,1,1,1,NA,NA
"417",11,"native",17,1,1,1,1,NA,NA
"418",11,"native",18,1,1,6,1,NA,NA
"419",11,"native",19,1,1,4,1,NA,NA
"420",11,"native",20,1,1,1,1,NA,NA
"421",11,"native",21,1,1,4,0,NA,NA
"422",11,"native",22,1,1,4,0,NA,NA
"423",11,"native",23,1,1,1,0,NA,NA
"424",11,"native",24,1,1,4,0,NA,NA
"425",11,"native",25,1,1,1,0,NA,NA
"426",11,"native",26,1,1,6,0,NA,NA
"427",11,"native",27,1,1,6,0,NA,NA
"428",11,"native",28,1,1,6,0,NA,NA
"429",11,"native",29,1,1,4,0,NA,NA
"430",11,"native",30,1,1,6,0,NA,NA
"431",11,"native",31,1,1,6,0,NA,NA
"432",11,"native",32,1,1,6,0,NA,NA
"433",11,"native",33,1,1,1,0,NA,NA
"434",11,"native",34,1,1,4,0,NA,NA
"435",11,"native",35,1,1,6,0,NA,NA
"436",11,"native",36,1,1,4,0,NA,NA
"437",11,"native",37,1,1,1,0,NA,NA
"438",11,"native",38,1,1,4,0,NA,NA
"439",11,"native",39,1,1,6,0,NA,NA
"440",11,"native",40,1,1,1,0,NA,NA
"441",12,"native",1,1,1,5,1,NA,NA
"442",12,"native",2,1,1,5,1,NA,NA
"443",12,"native",3,1,1,1,1,NA,NA
"444",12,"native",4,1,1,5,1,NA,NA
"445",12,"native",5,1,1,6,1,NA,NA
"446",12,"native",6,1,1,5,1,NA,NA
"447",12,"native",7,1,1,4,1,NA,NA
"448",12,"native",8,1,1,1,1,NA,NA
"449",12,"native",9,1,1,1,1,NA,NA
"450",12,"native",10,1,1,1,1,NA,NA
"451",12,"native",11,1,1,5,1,NA,NA
"452",12,"native",12,1,1,6,1,NA,NA
"453",12,"native",13,1,1,6,1,NA,NA
"454",12,"native",14,1,1,5,1,NA,NA
"455",12,"native",15,1,1,4,1,NA,NA
"456",12,"native",16,1,1,2,1,NA,NA
"457",12,"native",17,1,1,5,1,NA,NA
"458",12,"native",18,1,1,5,1,NA,NA
"459",12,"native",19,1,1,1,1,NA,NA
"460",12,"native",20,1,1,4,1,NA,NA
"461",12,"native",21,1,1,4,0,NA,NA
"462",12,"native",22,1,1,4,0,NA,NA
"463",12,"native",23,1,1,4,0,NA,NA
"464",12,"native",24,1,1,4,0,NA,NA
"465",12,"native",25,1,1,2,0,NA,NA
"466",12,"native",26,1,1,2,0,NA,NA
"467",12,"native",27,1,1,5,0,NA,NA
"468",12,"native",28,1,1,6,0,NA,NA
"469",12,"native",29,1,1,1,0,NA,NA
"470",12,"native",30,1,1,1,0,NA,NA
"471",12,"native",31,1,1,4,0,NA,NA
"472",12,"native",32,1,1,4,0,NA,NA
"473",12,"native",33,1,1,5,0,NA,NA
"474",12,"native",34,1,1,3,0,NA,NA
"475",12,"native",35,1,1,3,0,NA,NA
"476",12,"native",36,1,1,1,0,NA,NA
"477",12,"native",37,1,1,1,0,NA,NA
"478",12,"native",38,1,1,4,0,NA,NA
"479",12,"native",39,1,1,4,0,NA,NA
"480",12,"native",40,1,1,5,0,NA,NA
"481",13,"native",1,1,1,3,1,NA,NA
"482",13,"native",2,1,1,3,1,NA,NA
"483",13,"native",3,1,1,6,1,NA,NA
"484",13,"native",4,1,1,3,1,NA,NA
"485",13,"native",5,1,1,3,1,NA,NA
"486",13,"native",6,1,1,2,1,NA,NA
"487",13,"native",7,1,1,3,1,NA,NA
"488",13,"native",8,1,1,3,1,NA,NA
"489",13,"native",9,1,1,3,1,NA,NA
"490",13,"native",10,1,1,3,1,NA,NA
"491",13,"native",11,1,1,3,1,NA,NA
"492",13,"native",12,1,1,1,1,NA,NA
"493",13,"native",13,1,1,3,1,NA,NA
"494",13,"native",14,1,1,4,1,NA,NA
"495",13,"native",15,1,1,2,1,NA,NA
"496",13,"native",16,1,1,2,1,NA,NA
"497",13,"native",17,1,1,2,1,NA,NA
"498",13,"native",18,1,1,3,1,NA,NA
"499",13,"native",19,1,1,3,1,NA,NA
"500",13,"native",20,1,1,3,1,NA,NA
"501",13,"native",21,1,1,1,0,NA,NA
"502",13,"native",22,1,1,3,0,NA,NA
"503",13,"native",23,1,1,3,0,NA,NA
"504",13,"native",24,1,1,1,0,NA,NA
"505",13,"native",25,1,1,2,0,NA,NA
"506",13,"native",26,1,1,3,0,NA,NA
"507",13,"native",27,1,1,5,0,NA,NA
"508",13,"native",28,1,1,3,0,NA,NA
"509",13,"native",29,1,1,6,0,NA,NA
"510",13,"native",30,1,1,3,0,NA,NA
"511",13,"native",31,1,1,2,0,NA,NA
"512",13,"native",32,1,1,3,0,NA,NA
"513",13,"native",33,1,1,3,0,NA,NA
"514",13,"native",34,1,1,3,0,NA,NA
"515",13,"native",35,1,1,2,0,NA,NA
"516",13,"native",36,1,1,2,0,NA,NA
"517",13,"native",37,1,1,3,0,NA,NA
"518",13,"native",38,1,1,3,0,NA,NA
"519",13,"native",39,1,1,2,0,NA,NA
"520",13,"native",40,1,1,2,0,NA,NA
"521",14,"native",1,1,1,5,1,NA,NA
"522",14,"native",2,1,1,5,1,NA,NA
"523",14,"native",3,1,1,5,1,NA,NA
"524",14,"native",4,1,1,6,1,NA,NA
"525",14,"native",5,1,1,1,1,NA,NA
"526",14,"native",6,1,1,5,1,NA,NA
"527",14,"native",7,1,1,6,1,NA,NA
"528",14,"native",8,1,1,5,1,NA,NA
"529",14,"native",9,1,1,5,1,NA,NA
"530",14,"native",10,1,1,4,1,NA,NA
"531",14,"native",11,1,1,1,1,NA,NA
"532",14,"native",12,1,1,1,1,NA,NA
"533",14,"native",13,1,1,6,1,NA,NA
"534",14,"native",14,1,1,6,1,NA,NA
"535",14,"native",15,1,1,1,1,NA,NA
"536",14,"native",16,1,1,1,1,NA,NA
"537",14,"native",17,1,1,4,1,NA,NA
"538",14,"native",18,1,1,5,1,NA,NA
"539",14,"native",19,1,1,1,1,NA,NA
"540",14,"native",20,1,1,5,1,NA,NA
"541",14,"native",21,1,1,6,0,NA,NA
"542",14,"native",22,1,1,6,0,NA,NA
"543",14,"native",23,1,1,5,0,NA,NA
"544",14,"native",24,1,1,4,0,NA,NA
"545",14,"native",25,1,1,1,0,NA,NA
"546",14,"native",26,1,1,6,0,NA,NA
"547",14,"native",27,1,1,4,0,NA,NA
"548",14,"native",28,1,1,6,0,NA,NA
"549",14,"native",29,1,1,6,0,NA,NA
"550",14,"native",30,1,1,1,0,NA,NA
"551",14,"native",31,1,1,5,0,NA,NA
"552",14,"native",32,1,1,1,0,NA,NA
"553",14,"native",33,1,1,5,0,NA,NA
"554",14,"native",34,1,1,5,0,NA,NA
"555",14,"native",35,1,1,6,0,NA,NA
"556",14,"native",36,1,1,6,0,NA,NA
"557",14,"native",37,1,1,1,0,NA,NA
"558",14,"native",38,1,1,5,0,NA,NA
"559",14,"native",39,1,1,5,0,NA,NA
"560",14,"native",40,1,1,5,0,NA,NA
"561",15,"native",1,1,1,1,1,NA,NA
"562",15,"native",2,1,1,1,1,NA,NA
"563",15,"native",3,1,1,1,1,NA,NA
"564",15,"native",4,1,1,1,1,NA,NA
"565",15,"native",5,1,1,6,1,NA,NA
"566",15,"native",6,1,1,6,1,NA,NA
"567",15,"native",7,1,1,1,1,NA,NA
"568",15,"native",8,1,1,6,1,NA,NA
"569",15,"native",9,1,1,1,1,NA,NA
"570",15,"native",10,1,1,6,1,NA,NA
"571",15,"native",11,1,1,6,1,NA,NA
"572",15,"native",12,1,1,6,1,NA,NA
"573",15,"native",13,1,1,6,1,NA,NA
"574",15,"native",14,1,1,6,1,NA,NA
"575",15,"native",15,1,1,1,1,NA,NA
"576",15,"native",16,1,1,1,1,NA,NA
"577",15,"native",17,1,1,1,1,NA,NA
"578",15,"native",18,1,1,1,1,NA,NA
"579",15,"native",19,1,1,1,1,NA,NA
"580",15,"native",20,1,1,1,1,NA,NA
"581",15,"native",21,1,1,1,0,NA,NA
"582",15,"native",22,1,1,6,0,NA,NA
"583",15,"native",23,1,1,6,0,NA,NA
"584",15,"native",24,1,1,1,0,NA,NA
"585",15,"native",25,1,1,1,0,NA,NA
"586",15,"native",26,1,1,6,0,NA,NA
"587",15,"native",27,1,1,6,0,NA,NA
"588",15,"native",28,1,1,1,0,NA,NA
"589",15,"native",29,1,1,1,0,NA,NA
"590",15,"native",30,1,1,1,0,NA,NA
"591",15,"native",31,1,1,1,0,NA,NA
"592",15,"native",32,1,1,6,0,NA,NA
"593",15,"native",33,1,1,6,0,NA,NA
"594",15,"native",34,1,1,1,0,NA,NA
"595",15,"native",35,1,1,6,0,NA,NA
"596",15,"native",36,1,1,6,0,NA,NA
"597",15,"native",37,1,1,1,0,NA,NA
"598",15,"native",38,1,1,6,0,NA,NA
"599",15,"native",39,1,1,1,0,NA,NA
"600",15,"native",40,1,1,1,0,NA,NA
"601",16,"native",1,1,1,6,1,NA,NA
"602",16,"native",2,1,1,6,1,NA,NA
"603",16,"native",3,1,1,6,1,NA,NA
"604",16,"native",4,1,1,6,1,NA,NA
"605",16,"native",5,1,1,5,1,NA,NA
"606",16,"native",6,1,1,6,1,NA,NA
"607",16,"native",7,1,1,6,1,NA,NA
"608",16,"native",8,1,1,6,1,NA,NA
"609",16,"native",9,1,1,6,1,NA,NA
"610",16,"native",10,1,1,5,1,NA,NA
"611",16,"native",11,1,1,6,1,NA,NA
"612",16,"native",12,1,1,5,1,NA,NA
"613",16,"native",13,1,1,5,1,NA,NA
"614",16,"native",14,1,1,5,1,NA,NA
"615",16,"native",15,1,1,5,1,NA,NA
"616",16,"native",16,1,1,5,1,NA,NA
"617",16,"native",17,1,1,5,1,NA,NA
"618",16,"native",18,1,1,5,1,NA,NA
"619",16,"native",19,1,1,2,1,NA,NA
"620",16,"native",20,1,1,5,1,NA,NA
"621",16,"native",21,1,1,6,0,NA,NA
"622",16,"native",22,1,1,5,0,NA,NA
"623",16,"native",23,1,1,5,0,NA,NA
"624",16,"native",24,1,1,1,0,NA,NA
"625",16,"native",25,1,1,5,0,NA,NA
"626",16,"native",26,1,1,6,0,NA,NA
"627",16,"native",27,1,1,5,0,NA,NA
"628",16,"native",28,1,1,6,0,NA,NA
"629",16,"native",29,1,1,2,0,NA,NA
"630",16,"native",30,1,1,6,0,NA,NA
"631",16,"native",31,1,1,5,0,NA,NA
"632",16,"native",32,1,1,6,0,NA,NA
"633",16,"native",33,1,1,5,0,NA,NA
"634",16,"native",34,1,1,5,0,NA,NA
"635",16,"native",35,1,1,2,0,NA,NA
"636",16,"native",36,1,1,4,0,NA,NA
"637",16,"native",37,1,1,6,0,NA,NA
"638",16,"native",38,1,1,5,0,NA,NA
"639",16,"native",39,1,1,6,0,NA,NA
"640",16,"native",40,1,1,2,0,NA,NA
"641",17,"native",1,1,1,6,1,NA,NA
"642",17,"native",2,1,1,6,1,NA,NA
"643",17,"native",3,1,1,5,1,NA,NA
"644",17,"native",4,1,1,6,1,NA,NA
"645",17,"native",5,1,1,6,1,NA,NA
"646",17,"native",6,1,1,1,1,NA,NA
"647",17,"native",7,1,1,1,1,NA,NA
"648",17,"native",8,1,1,6,1,NA,NA
"649",17,"native",9,1,1,1,1,NA,NA
"650",17,"native",10,1,1,1,1,NA,NA
"651",17,"native",11,1,1,6,1,NA,NA
"652",17,"native",12,1,1,6,1,NA,NA
"653",17,"native",13,1,1,6,1,NA,NA
"654",17,"native",14,1,1,1,1,NA,NA
"655",17,"native",15,1,1,6,1,NA,NA
"656",17,"native",16,1,1,6,1,NA,NA
"657",17,"native",17,1,1,1,1,NA,NA
"658",17,"native",18,1,1,1,1,NA,NA
"659",17,"native",19,1,1,6,1,NA,NA
"660",17,"native",20,1,1,6,1,NA,NA
"661",17,"native",21,1,1,1,0,NA,NA
"662",17,"native",22,1,1,1,0,NA,NA
"663",17,"native",23,1,1,6,0,NA,NA
"664",17,"native",24,1,1,6,0,NA,NA
"665",17,"native",25,1,1,1,0,NA,NA
"666",17,"native",26,1,1,1,0,NA,NA
"667",17,"native",27,1,1,5,0,NA,NA
"668",17,"native",28,1,1,6,0,NA,NA
"669",17,"native",29,1,1,6,0,NA,NA
"670",17,"native",30,1,1,6,0,NA,NA
"671",17,"native",31,1,1,6,0,NA,NA
"672",17,"native",32,1,1,6,0,NA,NA
"673",17,"native",33,1,1,6,0,NA,NA
"674",17,"native",34,1,1,6,0,NA,NA
"675",17,"native",35,1,1,6,0,NA,NA
"676",17,"native",36,1,1,6,0,NA,NA
"677",17,"native",37,1,1,6,0,NA,NA
"678",17,"native",38,1,1,6,0,NA,NA
"679",17,"native",39,1,1,1,0,NA,NA
"680",17,"native",40,1,1,1,0,NA,NA
"681",18,"native",1,1,1,5,1,NA,NA
"682",18,"native",2,1,1,5,1,NA,NA
"683",18,"native",3,1,1,5,1,NA,NA
"684",18,"native",4,1,1,5,1,NA,NA
"685",18,"native",5,1,1,5,1,NA,NA
"686",18,"native",6,1,1,5,1,NA,NA
"687",18,"native",7,1,1,4,1,NA,NA
"688",18,"native",8,1,1,5,1,NA,NA
"689",18,"native",9,1,1,4,1,NA,NA
"690",18,"native",10,1,1,6,1,NA,NA
"691",18,"native",11,1,1,5,1,NA,NA
"692",18,"native",12,1,1,3,1,NA,NA
"693",18,"native",13,1,1,4,1,NA,NA
"694",18,"native",14,1,1,5,1,NA,NA
"695",18,"native",15,1,1,4,1,NA,NA
"696",18,"native",16,1,1,5,1,NA,NA
"697",18,"native",17,1,1,4,1,NA,NA
"698",18,"native",18,1,1,5,1,NA,NA
"699",18,"native",19,1,1,5,1,NA,NA
"700",18,"native",20,1,1,5,1,NA,NA
"701",18,"native",21,1,1,5,0,NA,NA
"702",18,"native",22,1,1,4,0,NA,NA
"703",18,"native",23,1,1,4,0,NA,NA
"704",18,"native",24,1,1,4,0,NA,NA
"705",18,"native",25,1,1,5,0,NA,NA
"706",18,"native",26,1,1,5,0,NA,NA
"707",18,"native",27,1,1,4,0,NA,NA
"708",18,"native",28,1,1,5,0,NA,NA
"709",18,"native",29,1,1,4,0,NA,NA
"710",18,"native",30,1,1,4,0,NA,NA
"711",18,"native",31,1,1,5,0,NA,NA
"712",18,"native",32,1,1,5,0,NA,NA
"713",18,"native",33,1,1,4,0,NA,NA
"714",18,"native",34,1,1,4,0,NA,NA
"715",18,"native",35,1,1,4,0,NA,NA
"716",18,"native",36,1,1,5,0,NA,NA
"717",18,"native",37,1,1,4,0,NA,NA
"718",18,"native",38,1,1,5,0,NA,NA
"719",18,"native",39,1,1,5,0,NA,NA
"720",18,"native",40,1,1,5,0,NA,NA
"721",19,"native",1,1,1,3,1,NA,NA
"722",19,"native",2,1,1,3,1,NA,NA
"723",19,"native",3,1,1,4,1,NA,NA
"724",19,"native",4,1,1,5,1,NA,NA
"725",19,"native",5,1,1,5,1,NA,NA
"726",19,"native",6,1,1,4,1,NA,NA
"727",19,"native",7,1,1,5,1,NA,NA
"728",19,"native",8,1,1,2,1,NA,NA
"729",19,"native",9,1,1,4,1,NA,NA
"730",19,"native",10,1,1,3,1,NA,NA
"731",19,"native",11,1,1,5,1,NA,NA
"732",19,"native",12,1,1,3,1,NA,NA
"733",19,"native",13,1,1,5,1,NA,NA
"734",19,"native",14,1,1,3,1,NA,NA
"735",19,"native",15,1,1,6,1,NA,NA
"736",19,"native",16,1,1,4,1,NA,NA
"737",19,"native",17,1,1,5,1,NA,NA
"738",19,"native",18,1,1,4,1,NA,NA
"739",19,"native",19,1,1,3,1,NA,NA
"740",19,"native",20,1,1,5,1,NA,NA
"741",19,"native",21,1,1,4,0,NA,NA
"742",19,"native",22,1,1,5,0,NA,NA
"743",19,"native",23,1,1,2,0,NA,NA
"744",19,"native",24,1,1,2,0,NA,NA
"745",19,"native",25,1,1,3,0,NA,NA
"746",19,"native",26,1,1,3,0,NA,NA
"747",19,"native",27,1,1,5,0,NA,NA
"748",19,"native",28,1,1,4,0,NA,NA
"749",19,"native",29,1,1,4,0,NA,NA
"750",19,"native",30,1,1,2,0,NA,NA
"751",19,"native",31,1,1,4,0,NA,NA
"752",19,"native",32,1,1,6,0,NA,NA
"753",19,"native",33,1,1,2,0,NA,NA
"754",19,"native",34,1,1,2,0,NA,NA
"755",19,"native",35,1,1,5,0,NA,NA
"756",19,"native",36,1,1,5,0,NA,NA
"757",19,"native",37,1,1,4,0,NA,NA
"758",19,"native",38,1,1,6,0,NA,NA
"759",19,"native",39,1,1,4,0,NA,NA
"760",19,"native",40,1,1,3,0,NA,NA
"761",20,"native",1,1,1,5,1,NA,NA
"762",20,"native",2,1,1,2,1,NA,NA
"763",20,"native",3,1,1,3,1,NA,NA
"764",20,"native",4,1,1,4,1,NA,NA
"765",20,"native",5,1,1,4,1,NA,NA
"766",20,"native",6,1,1,4,1,NA,NA
"767",20,"native",7,1,1,2,1,NA,NA
"768",20,"native",8,1,1,4,1,NA,NA
"769",20,"native",9,1,1,6,1,NA,NA
"770",20,"native",10,1,1,2,1,NA,NA
"771",20,"native",11,1,1,6,1,NA,NA
"772",20,"native",12,1,1,6,1,NA,NA
"773",20,"native",13,1,1,6,1,NA,NA
"774",20,"native",14,1,1,5,1,NA,NA
"775",20,"native",15,1,1,1,1,NA,NA
"776",20,"native",16,1,1,1,1,NA,NA
"777",20,"native",17,1,1,4,1,NA,NA
"778",20,"native",18,1,1,3,1,NA,NA
"779",20,"native",19,1,1,4,1,NA,NA
"780",20,"native",20,1,1,2,1,NA,NA
"781",20,"native",21,1,1,3,0,NA,NA
"782",20,"native",22,1,1,3,0,NA,NA
"783",20,"native",23,1,1,2,0,NA,NA
"784",20,"native",24,1,1,3,0,NA,NA
"785",20,"native",25,1,1,2,0,NA,NA
"786",20,"native",26,1,1,2,0,NA,NA
"787",20,"native",27,1,1,4,0,NA,NA
"788",20,"native",28,1,1,3,0,NA,NA
"789",20,"native",29,1,1,5,0,NA,NA
"790",20,"native",30,1,1,4,0,NA,NA
"791",20,"native",31,1,1,3,0,NA,NA
"792",20,"native",32,1,1,6,0,NA,NA
"793",20,"native",33,1,1,6,0,NA,NA
"794",20,"native",34,1,1,3,0,NA,NA
"795",20,"native",35,1,1,5,0,NA,NA
"796",20,"native",36,1,1,3,0,NA,NA
"797",20,"native",37,1,1,4,0,NA,NA
"798",20,"native",38,1,1,3,0,NA,NA
"799",20,"native",39,1,1,4,0,NA,NA
"800",20,"native",40,1,1,6,0,NA,NA
"801",22,"native",1,1,1,4,1,NA,NA
"802",22,"native",2,1,1,4,1,NA,NA
"803",22,"native",3,1,1,4,1,NA,NA
"804",22,"native",4,1,1,4,1,NA,NA
"805",22,"native",5,1,1,4,1,NA,NA
"806",22,"native",6,1,1,4,1,NA,NA
"807",22,"native",7,1,1,4,1,NA,NA
"808",22,"native",8,1,1,4,1,NA,NA
"809",22,"native",9,1,1,5,1,NA,NA
"810",22,"native",10,1,1,4,1,NA,NA
"811",22,"native",11,1,1,4,1,NA,NA
"812",22,"native",12,1,1,4,1,NA,NA
"813",22,"native",13,1,1,5,1,NA,NA
"814",22,"native",14,1,1,4,1,NA,NA
"815",22,"native",15,1,1,4,1,NA,NA
"816",22,"native",16,1,1,4,1,NA,NA
"817",22,"native",17,1,1,4,1,NA,NA
"818",22,"native",18,1,1,4,1,NA,NA
"819",22,"native",19,1,1,4,1,NA,NA
"820",22,"native",20,1,1,4,1,NA,NA
"821",22,"native",21,1,1,4,0,NA,NA
"822",22,"native",22,1,1,3,0,NA,NA
"823",22,"native",23,1,1,4,0,NA,NA
"824",22,"native",24,1,1,4,0,NA,NA
"825",22,"native",25,1,1,4,0,NA,NA
"826",22,"native",26,1,1,4,0,NA,NA
"827",22,"native",27,1,1,4,0,NA,NA
"828",22,"native",28,1,1,4,0,NA,NA
"829",22,"native",29,1,1,4,0,NA,NA
"830",22,"native",30,1,1,4,0,NA,NA
"831",22,"native",31,1,1,3,0,NA,NA
"832",22,"native",32,1,1,4,0,NA,NA
"833",22,"native",33,1,1,4,0,NA,NA
"834",22,"native",34,1,1,3,0,NA,NA
"835",22,"native",35,1,1,4,0,NA,NA
"836",22,"native",36,1,1,4,0,NA,NA
"837",22,"native",37,1,1,4,0,NA,NA
"838",22,"native",38,1,1,4,0,NA,NA
"839",22,"native",39,1,1,4,0,NA,NA
"840",22,"native",40,1,1,3,0,NA,NA
"841",23,"native",1,1,1,6,1,NA,NA
"842",23,"native",2,1,1,1,1,NA,NA
"843",23,"native",3,1,1,2,1,NA,NA
"844",23,"native",4,1,1,4,1,NA,NA
"845",23,"native",5,1,1,1,1,NA,NA
"846",23,"native",6,1,1,3,1,NA,NA
"847",23,"native",7,1,1,3,1,NA,NA
"848",23,"native",8,1,1,6,1,NA,NA
"849",23,"native",9,1,1,6,1,NA,NA
"850",23,"native",10,1,1,5,1,NA,NA
"851",23,"native",11,1,1,1,1,NA,NA
"852",23,"native",12,1,1,1,1,NA,NA
"853",23,"native",13,1,1,2,1,NA,NA
"854",23,"native",14,1,1,6,1,NA,NA
"855",23,"native",15,1,1,6,1,NA,NA
"856",23,"native",16,1,1,6,1,NA,NA
"857",23,"native",17,1,1,4,1,NA,NA
"858",23,"native",18,1,1,6,1,NA,NA
"859",23,"native",19,1,1,1,1,NA,NA
"860",23,"native",20,1,1,5,1,NA,NA
"861",23,"native",21,1,1,6,0,NA,NA
"862",23,"native",22,1,1,2,0,NA,NA
"863",23,"native",23,1,1,6,0,NA,NA
"864",23,"native",24,1,1,1,0,NA,NA
"865",23,"native",25,1,1,1,0,NA,NA
"866",23,"native",26,1,1,4,0,NA,NA
"867",23,"native",27,1,1,3,0,NA,NA
"868",23,"native",28,1,1,1,0,NA,NA
"869",23,"native",29,1,1,1,0,NA,NA
"870",23,"native",30,1,1,6,0,NA,NA
"871",23,"native",31,1,1,1,0,NA,NA
"872",23,"native",32,1,1,5,0,NA,NA
"873",23,"native",33,1,1,3,0,NA,NA
"874",23,"native",34,1,1,2,0,NA,NA
"875",23,"native",35,1,1,1,0,NA,NA
"876",23,"native",36,1,1,4,0,NA,NA
"877",23,"native",37,1,1,6,0,NA,NA
"878",23,"native",38,1,1,6,0,NA,NA
"879",23,"native",39,1,1,2,0,NA,NA
"880",23,"native",40,1,1,2,0,NA,NA
"881",24,"native",1,1,1,2,1,NA,NA
"882",24,"native",2,1,1,4,1,NA,NA
"883",24,"native",3,1,1,5,1,NA,NA
"884",24,"native",4,1,1,5,1,NA,NA
"885",24,"native",5,1,1,6,1,NA,NA
"886",24,"native",6,1,1,6,1,NA,NA
"887",24,"native",7,1,1,5,1,NA,NA
"888",24,"native",8,1,1,5,1,NA,NA
"889",24,"native",9,1,1,5,1,NA,NA
"890",24,"native",10,1,1,4,1,NA,NA
"891",24,"native",11,1,1,6,1,NA,NA
"892",24,"native",12,1,1,5,1,NA,NA
"893",24,"native",13,1,1,5,1,NA,NA
"894",24,"native",14,1,1,6,1,NA,NA
"895",24,"native",15,1,1,5,1,NA,NA
"896",24,"native",16,1,1,5,1,NA,NA
"897",24,"native",17,1,1,2,1,NA,NA
"898",24,"native",18,1,1,5,1,NA,NA
"899",24,"native",19,1,1,5,1,NA,NA
"900",24,"native",20,1,1,4,1,NA,NA
"901",24,"native",21,1,1,2,0,NA,NA
"902",24,"native",22,1,1,3,0,NA,NA
"903",24,"native",23,1,1,6,0,NA,NA
"904",24,"native",24,1,1,1,0,NA,NA
"905",24,"native",25,1,1,6,0,NA,NA
"906",24,"native",26,1,1,3,0,NA,NA
"907",24,"native",27,1,1,6,0,NA,NA
"908",24,"native",28,1,1,6,0,NA,NA
"909",24,"native",29,1,1,6,0,NA,NA
"910",24,"native",30,1,1,5,0,NA,NA
"911",24,"native",31,1,1,6,0,NA,NA
"912",24,"native",32,1,1,4,0,NA,NA
"913",24,"native",33,1,1,5,0,NA,NA
"914",24,"native",34,1,1,5,0,NA,NA
"915",24,"native",35,1,1,1,0,NA,NA
"916",24,"native",36,1,1,3,0,NA,NA
"917",24,"native",37,1,1,1,0,NA,NA
"918",24,"native",38,1,1,4,0,NA,NA
"919",24,"native",39,1,1,6,0,NA,NA
"920",24,"native",40,1,1,5,0,NA,NA
"921",25,"native",1,1,1,3,1,NA,NA
"922",25,"native",2,1,1,2,1,NA,NA
"923",25,"native",3,1,1,3,1,NA,NA
"924",25,"native",4,1,1,3,1,NA,NA
"925",25,"native",5,1,1,4,1,NA,NA
"926",25,"native",6,1,1,3,1,NA,NA
"927",25,"native",7,1,1,3,1,NA,NA
"928",25,"native",8,1,1,4,1,NA,NA
"929",25,"native",9,1,1,4,1,NA,NA
"930",25,"native",10,1,1,4,1,NA,NA
"931",25,"native",11,1,1,3,1,NA,NA
"932",25,"native",12,1,1,2,1,NA,NA
"933",25,"native",13,1,1,4,1,NA,NA
"934",25,"native",14,1,1,6,1,NA,NA
"935",25,"native",15,1,1,1,1,NA,NA
"936",25,"native",16,1,1,4,1,NA,NA
"937",25,"native",17,1,1,4,1,NA,NA
"938",25,"native",18,1,1,1,1,NA,NA
"939",25,"native",19,1,1,5,1,NA,NA
"940",25,"native",20,1,1,3,1,NA,NA
"941",25,"native",21,1,1,3,0,NA,NA
"942",25,"native",22,1,1,3,0,NA,NA
"943",25,"native",23,1,1,3,0,NA,NA
"944",25,"native",24,1,1,3,0,NA,NA
"945",25,"native",25,1,1,3,0,NA,NA
"946",25,"native",26,1,1,1,0,NA,NA
"947",25,"native",27,1,1,4,0,NA,NA
"948",25,"native",28,1,1,1,0,NA,NA
"949",25,"native",29,1,1,3,0,NA,NA
"950",25,"native",30,1,1,3,0,NA,NA
"951",25,"native",31,1,1,2,0,NA,NA
"952",25,"native",32,1,1,3,0,NA,NA
"953",25,"native",33,1,1,3,0,NA,NA
"954",25,"native",34,1,1,1,0,NA,NA
"955",25,"native",35,1,1,3,0,NA,NA
"956",25,"native",36,1,1,3,0,NA,NA
"957",25,"native",37,1,1,3,0,NA,NA
"958",25,"native",38,1,1,4,0,NA,NA
"959",25,"native",39,1,1,3,0,NA,NA
"960",25,"native",40,1,1,3,0,NA,NA
"961",26,"native",1,1,1,5,1,NA,NA
"962",26,"native",2,1,1,5,1,NA,NA
"963",26,"native",3,1,1,5,1,NA,NA
"964",26,"native",4,1,1,2,1,NA,NA
"965",26,"native",5,1,1,5,1,NA,NA
"966",26,"native",6,1,1,5,1,NA,NA
"967",26,"native",7,1,1,4,1,NA,NA
"968",26,"native",8,1,1,5,1,NA,NA
"969",26,"native",9,1,1,5,1,NA,NA
"970",26,"native",10,1,1,5,1,NA,NA
"971",26,"native",11,1,1,5,1,NA,NA
"972",26,"native",12,1,1,5,1,NA,NA
"973",26,"native",13,1,1,6,1,NA,NA
"974",26,"native",14,1,1,5,1,NA,NA
"975",26,"native",15,1,1,1,1,NA,NA
"976",26,"native",16,1,1,4,1,NA,NA
"977",26,"native",17,1,1,4,1,NA,NA
"978",26,"native",18,1,1,4,1,NA,NA
"979",26,"native",19,1,1,5,1,NA,NA
"980",26,"native",20,1,1,5,1,NA,NA
"981",26,"native",21,1,1,2,0,NA,NA
"982",26,"native",22,1,1,5,0,NA,NA
"983",26,"native",23,1,1,4,0,NA,NA
"984",26,"native",24,1,1,3,0,NA,NA
"985",26,"native",25,1,1,4,0,NA,NA
"986",26,"native",26,1,1,5,0,NA,NA
"987",26,"native",27,1,1,4,0,NA,NA
"988",26,"native",28,1,1,5,0,NA,NA
"989",26,"native",29,1,1,5,0,NA,NA
"990",26,"native",30,1,1,4,0,NA,NA
"991",26,"native",31,1,1,5,0,NA,NA
"992",26,"native",32,1,1,5,0,NA,NA
"993",26,"native",33,1,1,5,0,NA,NA
"994",26,"native",34,1,1,5,0,NA,NA
"995",26,"native",35,1,1,5,0,NA,NA
"996",26,"native",36,1,1,4,0,NA,NA
"997",26,"native",37,1,1,4,0,NA,NA
"998",26,"native",38,1,1,2,0,NA,NA
"999",26,"native",39,1,1,3,0,NA,NA
"1000",26,"native",40,1,1,5,0,NA,NA
"1001",27,"native",1,1,1,4,1,NA,NA
"1002",27,"native",2,1,1,3,1,NA,NA
"1003",27,"native",3,1,1,6,1,NA,NA
"1004",27,"native",4,1,1,4,1,NA,NA
"1005",27,"native",5,1,1,3,1,NA,NA
"1006",27,"native",6,1,1,4,1,NA,NA
"1007",27,"native",7,1,1,4,1,NA,NA
"1008",27,"native",8,1,1,4,1,NA,NA
"1009",27,"native",9,1,1,4,1,NA,NA
"1010",27,"native",10,1,1,3,1,NA,NA
"1011",27,"native",11,1,1,4,1,NA,NA
"1012",27,"native",12,1,1,3,1,NA,NA
"1013",27,"native",13,1,1,3,1,NA,NA
"1014",27,"native",14,1,1,4,1,NA,NA
"1015",27,"native",15,1,1,3,1,NA,NA
"1016",27,"native",16,1,1,1,1,NA,NA
"1017",27,"native",17,1,1,3,1,NA,NA
"1018",27,"native",18,1,1,1,1,NA,NA
"1019",27,"native",19,1,1,3,1,NA,NA
"1020",27,"native",20,1,1,3,1,NA,NA
"1021",27,"native",21,1,1,4,0,NA,NA
"1022",27,"native",22,1,1,1,0,NA,NA
"1023",27,"native",23,1,1,4,0,NA,NA
"1024",27,"native",24,1,1,6,0,NA,NA
"1025",27,"native",25,1,1,3,0,NA,NA
"1026",27,"native",26,1,1,3,0,NA,NA
"1027",27,"native",27,1,1,4,0,NA,NA
"1028",27,"native",28,1,1,4,0,NA,NA
"1029",27,"native",29,1,1,3,0,NA,NA
"1030",27,"native",30,1,1,4,0,NA,NA
"1031",27,"native",31,1,1,6,0,NA,NA
"1032",27,"native",32,1,1,2,0,NA,NA
"1033",27,"native",33,1,1,6,0,NA,NA
"1034",27,"native",34,1,1,4,0,NA,NA
"1035",27,"native",35,1,1,6,0,NA,NA
"1036",27,"native",36,1,1,6,0,NA,NA
"1037",27,"native",37,1,1,6,0,NA,NA
"1038",27,"native",38,1,1,4,0,NA,NA
"1039",27,"native",39,1,1,4,0,NA,NA
"1040",27,"native",40,1,1,3,0,NA,NA
"1041",28,"native",1,1,1,5,1,NA,NA
"1042",28,"native",2,1,1,4,1,NA,NA
"1043",28,"native",3,1,1,3,1,NA,NA
"1044",28,"native",4,1,1,3,1,NA,NA
"1045",28,"native",5,1,1,5,1,NA,NA
"1046",28,"native",6,1,1,4,1,NA,NA
"1047",28,"native",7,1,1,3,1,NA,NA
"1048",28,"native",8,1,1,5,1,NA,NA
"1049",28,"native",9,1,1,4,1,NA,NA
"1050",28,"native",10,1,1,3,1,NA,NA
"1051",28,"native",11,1,1,3,1,NA,NA
"1052",28,"native",12,1,1,3,1,NA,NA
"1053",28,"native",13,1,1,3,1,NA,NA
"1054",28,"native",14,1,1,5,1,NA,NA
"1055",28,"native",15,1,1,6,1,NA,NA
"1056",28,"native",16,1,1,5,1,NA,NA
"1057",28,"native",17,1,1,5,1,NA,NA
"1058",28,"native",18,1,1,6,1,NA,NA
"1059",28,"native",19,1,1,3,1,NA,NA
"1060",28,"native",20,1,1,5,1,NA,NA
"1061",28,"native",21,1,1,5,0,NA,NA
"1062",28,"native",22,1,1,5,0,NA,NA
"1063",28,"native",23,1,1,3,0,NA,NA
"1064",28,"native",24,1,1,4,0,NA,NA
"1065",28,"native",25,1,1,3,0,NA,NA
"1066",28,"native",26,1,1,4,0,NA,NA
"1067",28,"native",27,1,1,4,0,NA,NA
"1068",28,"native",28,1,1,4,0,NA,NA
"1069",28,"native",29,1,1,4,0,NA,NA
"1070",28,"native",30,1,1,5,0,NA,NA
"1071",28,"native",31,1,1,5,0,NA,NA
"1072",28,"native",32,1,1,4,0,NA,NA
"1073",28,"native",33,1,1,3,0,NA,NA
"1074",28,"native",34,1,1,4,0,NA,NA
"1075",28,"native",35,1,1,5,0,NA,NA
"1076",28,"native",36,1,1,4,0,NA,NA
"1077",28,"native",37,1,1,5,0,NA,NA
"1078",28,"native",38,1,1,3,0,NA,NA
"1079",28,"native",39,1,1,5,0,NA,NA
"1080",28,"native",40,1,1,4,0,NA,NA
"1081",29,"native",1,1,1,4,1,NA,NA
"1082",29,"native",2,1,1,4,1,NA,NA
"1083",29,"native",3,1,1,4,1,NA,NA
"1084",29,"native",4,1,1,4,1,NA,NA
"1085",29,"native",5,1,1,3,1,NA,NA
"1086",29,"native",6,1,1,3,1,NA,NA
"1087",29,"native",7,1,1,5,1,NA,NA
"1088",29,"native",8,1,1,4,1,NA,NA
"1089",29,"native",9,1,1,5,1,NA,NA
"1090",29,"native",10,1,1,3,1,NA,NA
"1091",29,"native",11,1,1,4,1,NA,NA
"1092",29,"native",12,1,1,3,1,NA,NA
"1093",29,"native",13,1,1,3,1,NA,NA
"1094",29,"native",14,1,1,5,1,NA,NA
"1095",29,"native",15,1,1,5,1,NA,NA
"1096",29,"native",16,1,1,3,1,NA,NA
"1097",29,"native",17,1,1,3,1,NA,NA
"1098",29,"native",18,1,1,3,1,NA,NA
"1099",29,"native",19,1,1,4,1,NA,NA
"1100",29,"native",20,1,1,3,1,NA,NA
"1101",29,"native",21,1,1,3,0,NA,NA
"1102",29,"native",22,1,1,4,0,NA,NA
"1103",29,"native",23,1,1,4,0,NA,NA
"1104",29,"native",24,1,1,4,0,NA,NA
"1105",29,"native",25,1,1,2,0,NA,NA
"1106",29,"native",26,1,1,4,0,NA,NA
"1107",29,"native",27,1,1,4,0,NA,NA
"1108",29,"native",28,1,1,4,0,NA,NA
"1109",29,"native",29,1,1,4,0,NA,NA
"1110",29,"native",30,1,1,3,0,NA,NA
"1111",29,"native",31,1,1,5,0,NA,NA
"1112",29,"native",32,1,1,4,0,NA,NA
"1113",29,"native",33,1,1,4,0,NA,NA
"1114",29,"native",34,1,1,4,0,NA,NA
"1115",29,"native",35,1,1,4,0,NA,NA
"1116",29,"native",36,1,1,3,0,NA,NA
"1117",29,"native",37,1,1,4,0,NA,NA
"1118",29,"native",38,1,1,3,0,NA,NA
"1119",29,"native",39,1,1,3,0,NA,NA
"1120",29,"native",40,1,1,3,0,NA,NA
"1121",30,"native",1,1,1,5,1,NA,NA
"1122",30,"native",2,1,1,1,1,NA,NA
"1123",30,"native",3,1,1,5,1,NA,NA
"1124",30,"native",4,1,1,6,1,NA,NA
"1125",30,"native",5,1,1,1,1,NA,NA
"1126",30,"native",6,1,1,2,1,NA,NA
"1127",30,"native",7,1,1,4,1,NA,NA
"1128",30,"native",8,1,1,2,1,NA,NA
"1129",30,"native",9,1,1,2,1,NA,NA
"1130",30,"native",10,1,1,2,1,NA,NA
"1131",30,"native",11,1,1,3,1,NA,NA
"1132",30,"native",12,1,1,6,1,NA,NA
"1133",30,"native",13,1,1,6,1,NA,NA
"1134",30,"native",14,1,1,5,1,NA,NA
"1135",30,"native",15,1,1,1,1,NA,NA
"1136",30,"native",16,1,1,1,1,NA,NA
"1137",30,"native",17,1,1,5,1,NA,NA
"1138",30,"native",18,1,1,3,1,NA,NA
"1139",30,"native",19,1,1,5,1,NA,NA
"1140",30,"native",20,1,1,2,1,NA,NA
"1141",30,"native",21,1,1,1,0,NA,NA
"1142",30,"native",22,1,1,5,0,NA,NA
"1143",30,"native",23,1,1,2,0,NA,NA
"1144",30,"native",24,1,1,4,0,NA,NA
"1145",30,"native",25,1,1,3,0,NA,NA
"1146",30,"native",26,1,1,5,0,NA,NA
"1147",30,"native",27,1,1,5,0,NA,NA
"1148",30,"native",28,1,1,6,0,NA,NA
"1149",30,"native",29,1,1,6,0,NA,NA
"1150",30,"native",30,1,1,1,0,NA,NA
"1151",30,"native",31,1,1,2,0,NA,NA
"1152",30,"native",32,1,1,5,0,NA,NA
"1153",30,"native",33,1,1,5,0,NA,NA
"1154",30,"native",34,1,1,1,0,NA,NA
"1155",30,"native",35,1,1,2,0,NA,NA
"1156",30,"native",36,1,1,2,0,NA,NA
"1157",30,"native",37,1,1,1,0,NA,NA
"1158",30,"native",38,1,1,5,0,NA,NA
"1159",30,"native",39,1,1,5,0,NA,NA
"1160",30,"native",40,1,1,5,0,NA,NA
"1161",31,"native",1,1,1,4,1,NA,NA
"1162",31,"native",2,1,1,3,1,NA,NA
"1163",31,"native",3,1,1,4,1,NA,NA
"1164",31,"native",4,1,1,4,1,NA,NA
"1165",31,"native",5,1,1,3,1,NA,NA
"1166",31,"native",6,1,1,4,1,NA,NA
"1167",31,"native",7,1,1,5,1,NA,NA
"1168",31,"native",8,1,1,3,1,NA,NA
"1169",31,"native",9,1,1,3,1,NA,NA
"1170",31,"native",10,1,1,3,1,NA,NA
"1171",31,"native",11,1,1,3,1,NA,NA
"1172",31,"native",12,1,1,2,1,NA,NA
"1173",31,"native",13,1,1,1,1,NA,NA
"1174",31,"native",14,1,1,4,1,NA,NA
"1175",31,"native",15,1,1,4,1,NA,NA
"1176",31,"native",16,1,1,4,1,NA,NA
"1177",31,"native",17,1,1,3,1,NA,NA
"1178",31,"native",18,1,1,3,1,NA,NA
"1179",31,"native",19,1,1,2,1,NA,NA
"1180",31,"native",20,1,1,3,1,NA,NA
"1181",31,"native",21,1,1,2,0,NA,NA
"1182",31,"native",22,1,1,3,0,NA,NA
"1183",31,"native",23,1,1,3,0,NA,NA
"1184",31,"native",24,1,1,3,0,NA,NA
"1185",31,"native",25,1,1,3,0,NA,NA
"1186",31,"native",26,1,1,3,0,NA,NA
"1187",31,"native",27,1,1,3,0,NA,NA
"1188",31,"native",28,1,1,3,0,NA,NA
"1189",31,"native",29,1,1,3,0,NA,NA
"1190",31,"native",30,1,1,3,0,NA,NA
"1191",31,"native",31,1,1,3,0,NA,NA
"1192",31,"native",32,1,1,3,0,NA,NA
"1193",31,"native",33,1,1,2,0,NA,NA
"1194",31,"native",34,1,1,3,0,NA,NA
"1195",31,"native",35,1,1,4,0,NA,NA
"1196",31,"native",36,1,1,2,0,NA,NA
"1197",31,"native",37,1,1,2,0,NA,NA
"1198",31,"native",38,1,1,3,0,NA,NA
"1199",31,"native",39,1,1,3,0,NA,NA
"1200",31,"native",40,1,1,3,0,NA,NA
"1201",32,"native",1,1,1,6,1,NA,NA
"1202",32,"native",2,1,1,3,1,NA,NA
"1203",32,"native",3,1,1,4,1,NA,NA
"1204",32,"native",4,1,1,3,1,NA,NA
"1205",32,"native",5,1,1,3,1,NA,NA
"1206",32,"native",6,1,1,6,1,NA,NA
"1207",32,"native",7,1,1,6,1,NA,NA
"1208",32,"native",8,1,1,4,1,NA,NA
"1209",32,"native",9,1,1,6,1,NA,NA
"1210",32,"native",10,1,1,6,1,NA,NA
"1211",32,"native",11,1,1,6,1,NA,NA
"1212",32,"native",12,1,1,6,1,NA,NA
"1213",32,"native",13,1,1,6,1,NA,NA
"1214",32,"native",14,1,1,6,1,NA,NA
"1215",32,"native",15,1,1,1,1,NA,NA
"1216",32,"native",16,1,1,6,1,NA,NA
"1217",32,"native",17,1,1,6,1,NA,NA
"1218",32,"native",18,1,1,6,1,NA,NA
"1219",32,"native",19,1,1,3,1,NA,NA
"1220",32,"native",20,1,1,6,1,NA,NA
"1221",32,"native",21,1,1,1,0,NA,NA
"1222",32,"native",22,1,1,6,0,NA,NA
"1223",32,"native",23,1,1,4,0,NA,NA
"1224",32,"native",24,1,1,3,0,NA,NA
"1225",32,"native",25,1,1,6,0,NA,NA
"1226",32,"native",26,1,1,4,0,NA,NA
"1227",32,"native",27,1,1,4,0,NA,NA
"1228",32,"native",28,1,1,6,0,NA,NA
"1229",32,"native",29,1,1,4,0,NA,NA
"1230",32,"native",30,1,1,2,0,NA,NA
"1231",32,"native",31,1,1,6,0,NA,NA
"1232",32,"native",32,1,1,1,0,NA,NA
"1233",32,"native",33,1,1,4,0,NA,NA
"1234",32,"native",34,1,1,3,0,NA,NA
"1235",32,"native",35,1,1,4,0,NA,NA
"1236",32,"native",36,1,1,6,0,NA,NA
"1237",32,"native",37,1,1,1,0,NA,NA
"1238",32,"native",38,1,1,6,0,NA,NA
"1239",32,"native",39,1,1,3,0,NA,NA
"1240",32,"native",40,1,1,6,0,NA,NA
"1241",33,"native",1,1,1,6,1,NA,NA
"1242",33,"native",2,1,1,5,1,NA,NA
"1243",33,"native",3,1,1,2,1,NA,NA
"1244",33,"native",4,1,1,6,1,NA,NA
"1245",33,"native",5,1,1,6,1,NA,NA
"1246",33,"native",6,1,1,5,1,NA,NA
"1247",33,"native",7,1,1,5,1,NA,NA
"1248",33,"native",8,1,1,5,1,NA,NA
"1249",33,"native",9,1,1,6,1,NA,NA
"1250",33,"native",10,1,1,2,1,NA,NA
"1251",33,"native",11,1,1,5,1,NA,NA
"1252",33,"native",12,1,1,4,1,NA,NA
"1253",33,"native",13,1,1,4,1,NA,NA
"1254",33,"native",14,1,1,1,1,NA,NA
"1255",33,"native",15,1,1,5,1,NA,NA
"1256",33,"native",16,1,1,5,1,NA,NA
"1257",33,"native",17,1,1,6,1,NA,NA
"1258",33,"native",18,1,1,6,1,NA,NA
"1259",33,"native",19,1,1,2,1,NA,NA
"1260",33,"native",20,1,1,3,1,NA,NA
"1261",33,"native",21,1,1,1,0,NA,NA
"1262",33,"native",22,1,1,5,0,NA,NA
"1263",33,"native",23,1,1,4,0,NA,NA
"1264",33,"native",24,1,1,5,0,NA,NA
"1265",33,"native",25,1,1,4,0,NA,NA
"1266",33,"native",26,1,1,4,0,NA,NA
"1267",33,"native",27,1,1,4,0,NA,NA
"1268",33,"native",28,1,1,6,0,NA,NA
"1269",33,"native",29,1,1,6,0,NA,NA
"1270",33,"native",30,1,1,5,0,NA,NA
"1271",33,"native",31,1,1,5,0,NA,NA
"1272",33,"native",32,1,1,2,0,NA,NA
"1273",33,"native",33,1,1,5,0,NA,NA
"1274",33,"native",34,1,1,3,0,NA,NA
"1275",33,"native",35,1,1,5,0,NA,NA
"1276",33,"native",36,1,1,5,0,NA,NA
"1277",33,"native",37,1,1,1,0,NA,NA
"1278",33,"native",38,1,1,2,0,NA,NA
"1279",33,"native",39,1,1,2,0,NA,NA
"1280",33,"native",40,1,1,5,0,NA,NA
"1281",34,"native",1,1,1,5,1,NA,NA
"1282",34,"native",2,1,1,5,1,NA,NA
"1283",34,"native",3,1,1,4,1,NA,NA
"1284",34,"native",4,1,1,3,1,NA,NA
"1285",34,"native",5,1,1,2,1,NA,NA
"1286",34,"native",6,1,1,2,1,NA,NA
"1287",34,"native",7,1,1,3,1,NA,NA
"1288",34,"native",8,1,1,2,1,NA,NA
"1289",34,"native",9,1,1,2,1,NA,NA
"1290",34,"native",10,1,1,2,1,NA,NA
"1291",34,"native",11,1,1,2,1,NA,NA
"1292",34,"native",12,1,1,5,1,NA,NA
"1293",34,"native",13,1,1,2,1,NA,NA
"1294",34,"native",14,1,1,5,1,NA,NA
"1295",34,"native",15,1,1,2,1,NA,NA
"1296",34,"native",16,1,1,1,1,NA,NA
"1297",34,"native",17,1,1,2,1,NA,NA
"1298",34,"native",18,1,1,2,1,NA,NA
"1299",34,"native",19,1,1,2,1,NA,NA
"1300",34,"native",20,1,1,2,1,NA,NA
"1301",34,"native",21,1,1,3,0,NA,NA
"1302",34,"native",22,1,1,5,0,NA,NA
"1303",34,"native",23,1,1,4,0,NA,NA
"1304",34,"native",24,1,1,2,0,NA,NA
"1305",34,"native",25,1,1,3,0,NA,NA
"1306",34,"native",26,1,1,2,0,NA,NA
"1307",34,"native",27,1,1,2,0,NA,NA
"1308",34,"native",28,1,1,6,0,NA,NA
"1309",34,"native",29,1,1,4,0,NA,NA
"1310",34,"native",30,1,1,5,0,NA,NA
"1311",34,"native",31,1,1,4,0,NA,NA
"1312",34,"native",32,1,1,2,0,NA,NA
"1313",34,"native",33,1,1,4,0,NA,NA
"1314",34,"native",34,1,1,2,0,NA,NA
"1315",34,"native",35,1,1,5,0,NA,NA
"1316",34,"native",36,1,1,4,0,NA,NA
"1317",34,"native",37,1,1,2,0,NA,NA
"1318",34,"native",38,1,1,2,0,NA,NA
"1319",34,"native",39,1,1,4,0,NA,NA
"1320",34,"native",40,1,1,5,0,NA,NA
"1321",35,"native",1,1,1,3,1,NA,NA
"1322",35,"native",2,1,1,2,1,NA,NA
"1323",35,"native",3,1,1,4,1,NA,NA
"1324",35,"native",4,1,1,4,1,NA,NA
"1325",35,"native",5,1,1,5,1,NA,NA
"1326",35,"native",6,1,1,4,1,NA,NA
"1327",35,"native",7,1,1,5,1,NA,NA
"1328",35,"native",8,1,1,1,1,NA,NA
"1329",35,"native",9,1,1,2,1,NA,NA
"1330",35,"native",10,1,1,2,1,NA,NA
"1331",35,"native",11,1,1,5,1,NA,NA
"1332",35,"native",12,1,1,3,1,NA,NA
"1333",35,"native",13,1,1,5,1,NA,NA
"1334",35,"native",14,1,1,5,1,NA,NA
"1335",35,"native",15,1,1,6,1,NA,NA
"1336",35,"native",16,1,1,3,1,NA,NA
"1337",35,"native",17,1,1,1,1,NA,NA
"1338",35,"native",18,1,1,6,1,NA,NA
"1339",35,"native",19,1,1,1,1,NA,NA
"1340",35,"native",20,1,1,3,1,NA,NA
"1341",35,"native",21,1,1,3,0,NA,NA
"1342",35,"native",22,1,1,6,0,NA,NA
"1343",35,"native",23,1,1,4,0,NA,NA
"1344",35,"native",24,1,1,3,0,NA,NA
"1345",35,"native",25,1,1,6,0,NA,NA
"1346",35,"native",26,1,1,3,0,NA,NA
"1347",35,"native",27,1,1,4,0,NA,NA
"1348",35,"native",28,1,1,4,0,NA,NA
"1349",35,"native",29,1,1,3,0,NA,NA
"1350",35,"native",30,1,1,3,0,NA,NA
"1351",35,"native",31,1,1,2,0,NA,NA
"1352",35,"native",32,1,1,6,0,NA,NA
"1353",35,"native",33,1,1,1,0,NA,NA
"1354",35,"native",34,1,1,3,0,NA,NA
"1355",35,"native",35,1,1,4,0,NA,NA
"1356",35,"native",36,1,1,4,0,NA,NA
"1357",35,"native",37,1,1,1,0,NA,NA
"1358",35,"native",38,1,1,6,0,NA,NA
"1359",35,"native",39,1,1,4,0,NA,NA
"1360",35,"native",40,1,1,3,0,NA,NA
"1361",36,"native",1,1,1,5,1,NA,NA
"1362",36,"native",2,1,1,2,1,NA,NA
"1363",36,"native",3,1,1,3,1,NA,NA
"1364",36,"native",4,1,1,2,1,NA,NA
"1365",36,"native",5,1,1,1,1,NA,NA
"1366",36,"native",6,1,1,4,1,NA,NA
"1367",36,"native",7,1,1,4,1,NA,NA
"1368",36,"native",8,1,1,3,1,NA,NA
"1369",36,"native",9,1,1,3,1,NA,NA
"1370",36,"native",10,1,1,2,1,NA,NA
"1371",36,"native",11,1,1,5,1,NA,NA
"1372",36,"native",12,1,1,5,1,NA,NA
"1373",36,"native",13,1,1,5,1,NA,NA
"1374",36,"native",14,1,1,4,1,NA,NA
"1375",36,"native",15,1,1,5,1,NA,NA
"1376",36,"native",16,1,1,4,1,NA,NA
"1377",36,"native",17,1,1,5,1,NA,NA
"1378",36,"native",18,1,1,5,1,NA,NA
"1379",36,"native",19,1,1,4,1,NA,NA
"1380",36,"native",20,1,1,4,1,NA,NA
"1381",36,"native",21,1,1,2,0,NA,NA
"1382",36,"native",22,1,1,3,0,NA,NA
"1383",36,"native",23,1,1,3,0,NA,NA
"1384",36,"native",24,1,1,2,0,NA,NA
"1385",36,"native",25,1,1,5,0,NA,NA
"1386",36,"native",26,1,1,4,0,NA,NA
"1387",36,"native",27,1,1,5,0,NA,NA
"1388",36,"native",28,1,1,4,0,NA,NA
"1389",36,"native",29,1,1,4,0,NA,NA
"1390",36,"native",30,1,1,2,0,NA,NA
"1391",36,"native",31,1,1,3,0,NA,NA
"1392",36,"native",32,1,1,5,0,NA,NA
"1393",36,"native",33,1,1,5,0,NA,NA
"1394",36,"native",34,1,1,4,0,NA,NA
"1395",36,"native",35,1,1,4,0,NA,NA
"1396",36,"native",36,1,1,5,0,NA,NA
"1397",36,"native",37,1,1,2,0,NA,NA
"1398",36,"native",38,1,1,5,0,NA,NA
"1399",36,"native",39,1,1,5,0,NA,NA
"1400",36,"native",40,1,1,2,0,NA,NA
"1401",37,"native",1,1,1,4,1,NA,NA
"1402",37,"native",2,1,1,4,1,NA,NA
"1403",37,"native",3,1,1,6,1,NA,NA
"1404",37,"native",4,1,1,3,1,NA,NA
"1405",37,"native",5,1,1,4,1,NA,NA
"1406",37,"native",6,1,1,4,1,NA,NA
"1407",37,"native",7,1,1,5,1,NA,NA
"1408",37,"native",8,1,1,3,1,NA,NA
"1409",37,"native",9,1,1,3,1,NA,NA
"1410",37,"native",10,1,1,4,1,NA,NA
"1411",37,"native",11,1,1,3,1,NA,NA
"1412",37,"native",12,1,1,3,1,NA,NA
"1413",37,"native",13,1,1,4,1,NA,NA
"1414",37,"native",14,1,1,6,1,NA,NA
"1415",37,"native",15,1,1,3,1,NA,NA
"1416",37,"native",16,1,1,5,1,NA,NA
"1417",37,"native",17,1,1,5,1,NA,NA
"1418",37,"native",18,1,1,6,1,NA,NA
"1419",37,"native",19,1,1,4,1,NA,NA
"1420",37,"native",20,1,1,5,1,NA,NA
"1421",37,"native",21,1,1,3,0,NA,NA
"1422",37,"native",22,1,1,4,0,NA,NA
"1423",37,"native",23,1,1,4,0,NA,NA
"1424",37,"native",24,1,1,3,0,NA,NA
"1425",37,"native",25,1,1,4,0,NA,NA
"1426",37,"native",26,1,1,4,0,NA,NA
"1427",37,"native",27,1,1,4,0,NA,NA
"1428",37,"native",28,1,1,4,0,NA,NA
"1429",37,"native",29,1,1,1,0,NA,NA
"1430",37,"native",30,1,1,3,0,NA,NA
"1431",37,"native",31,1,1,3,0,NA,NA
"1432",37,"native",32,1,1,5,0,NA,NA
"1433",37,"native",33,1,1,3,0,NA,NA
"1434",37,"native",34,1,1,5,0,NA,NA
"1435",37,"native",35,1,1,5,0,NA,NA
"1436",37,"native",36,1,1,3,0,NA,NA
"1437",37,"native",37,1,1,4,0,NA,NA
"1438",37,"native",38,1,1,2,0,NA,NA
"1439",37,"native",39,1,1,3,0,NA,NA
"1440",37,"native",40,1,1,5,0,NA,NA
"1441",38,"native",1,1,1,3,1,NA,NA
"1442",38,"native",2,1,1,6,1,NA,NA
"1443",38,"native",3,1,1,4,1,NA,NA
"1444",38,"native",4,1,1,4,1,NA,NA
"1445",38,"native",5,1,1,2,1,NA,NA
"1446",38,"native",6,1,1,4,1,NA,NA
"1447",38,"native",7,1,1,4,1,NA,NA
"1448",38,"native",8,1,1,4,1,NA,NA
"1449",38,"native",9,1,1,4,1,NA,NA
"1450",38,"native",10,1,1,4,1,NA,NA
"1451",38,"native",11,1,1,4,1,NA,NA
"1452",38,"native",12,1,1,6,1,NA,NA
"1453",38,"native",13,1,1,4,1,NA,NA
"1454",38,"native",14,1,1,4,1,NA,NA
"1455",38,"native",15,1,1,2,1,NA,NA
"1456",38,"native",16,1,1,3,1,NA,NA
"1457",38,"native",17,1,1,4,1,NA,NA
"1458",38,"native",18,1,1,4,1,NA,NA
"1459",38,"native",19,1,1,4,1,NA,NA
"1460",38,"native",20,1,1,4,1,NA,NA
"1461",38,"native",21,1,1,4,0,NA,NA
"1462",38,"native",22,1,1,4,0,NA,NA
"1463",38,"native",23,1,1,4,0,NA,NA
"1464",38,"native",24,1,1,4,0,NA,NA
"1465",38,"native",25,1,1,4,0,NA,NA
"1466",38,"native",26,1,1,4,0,NA,NA
"1467",38,"native",27,1,1,4,0,NA,NA
"1468",38,"native",28,1,1,5,0,NA,NA
"1469",38,"native",29,1,1,3,0,NA,NA
"1470",38,"native",30,1,1,3,0,NA,NA
"1471",38,"native",31,1,1,4,0,NA,NA
"1472",38,"native",32,1,1,3,0,NA,NA
"1473",38,"native",33,1,1,4,0,NA,NA
"1474",38,"native",34,1,1,3,0,NA,NA
"1475",38,"native",35,1,1,5,0,NA,NA
"1476",38,"native",36,1,1,3,0,NA,NA
"1477",38,"native",37,1,1,4,0,NA,NA
"1478",38,"native",38,1,1,3,0,NA,NA
"1479",38,"native",39,1,1,4,0,NA,NA
"1480",38,"native",40,1,1,4,0,NA,NA
"1481",39,"native",1,1,1,6,1,NA,NA
"1482",39,"native",2,1,1,6,1,NA,NA
"1483",39,"native",3,1,1,6,1,NA,NA
"1484",39,"native",4,1,1,6,1,NA,NA
"1485",39,"native",5,1,1,1,1,NA,NA
"1486",39,"native",6,1,1,6,1,NA,NA
"1487",39,"native",7,1,1,6,1,NA,NA
"1488",39,"native",8,1,1,6,1,NA,NA
"1489",39,"native",9,1,1,1,1,NA,NA
"1490",39,"native",10,1,1,6,1,NA,NA
"1491",39,"native",11,1,1,6,1,NA,NA
"1492",39,"native",12,1,1,6,1,NA,NA
"1493",39,"native",13,1,1,6,1,NA,NA
"1494",39,"native",14,1,1,6,1,NA,NA
"1495",39,"native",15,1,1,6,1,NA,NA
"1496",39,"native",16,1,1,5,1,NA,NA
"1497",39,"native",17,1,1,6,1,NA,NA
"1498",39,"native",18,1,1,6,1,NA,NA
"1499",39,"native",19,1,1,6,1,NA,NA
"1500",39,"native",20,1,1,3,1,NA,NA
"1501",39,"native",21,1,1,1,0,NA,NA
"1502",39,"native",22,1,1,5,0,NA,NA
"1503",39,"native",23,1,1,6,0,NA,NA
"1504",39,"native",24,1,1,3,0,NA,NA
"1505",39,"native",25,1,1,1,0,NA,NA
"1506",39,"native",26,1,1,6,0,NA,NA
"1507",39,"native",27,1,1,6,0,NA,NA
"1508",39,"native",28,1,1,5,0,NA,NA
"1509",39,"native",29,1,1,6,0,NA,NA
"1510",39,"native",30,1,1,6,0,NA,NA
"1511",39,"native",31,1,1,4,0,NA,NA
"1512",39,"native",32,1,1,4,0,NA,NA
"1513",39,"native",33,1,1,6,0,NA,NA
"1514",39,"native",34,1,1,1,0,NA,NA
"1515",39,"native",35,1,1,6,0,NA,NA
"1516",39,"native",36,1,1,6,0,NA,NA
"1517",39,"native",37,1,1,1,0,NA,NA
"1518",39,"native",38,1,1,6,0,NA,NA
"1519",39,"native",39,1,1,4,0,NA,NA
"1520",39,"native",40,1,1,3,0,NA,NA
"1521",40,"native",1,1,1,5,1,NA,NA
"1522",40,"native",2,1,1,3,1,NA,NA
"1523",40,"native",3,1,1,5,1,NA,NA
"1524",40,"native",4,1,1,5,1,NA,NA
"1525",40,"native",5,1,1,4,1,NA,NA
"1526",40,"native",6,1,1,4,1,NA,NA
"1527",40,"native",7,1,1,4,1,NA,NA
"1528",40,"native",8,1,1,4,1,NA,NA
"1529",40,"native",9,1,1,4,1,NA,NA
"1530",40,"native",10,1,1,4,1,NA,NA
"1531",40,"native",11,1,1,3,1,NA,NA
"1532",40,"native",12,1,1,4,1,NA,NA
"1533",40,"native",13,1,1,4,1,NA,NA
"1534",40,"native",14,1,1,4,1,NA,NA
"1535",40,"native",15,1,1,3,1,NA,NA
"1536",40,"native",16,1,1,5,1,NA,NA
"1537",40,"native",17,1,1,3,1,NA,NA
"1538",40,"native",18,1,1,4,1,NA,NA
"1539",40,"native",19,1,1,3,1,NA,NA
"1540",40,"native",20,1,1,3,1,NA,NA
"1541",40,"native",21,1,1,4,0,NA,NA
"1542",40,"native",22,1,1,6,0,NA,NA
"1543",40,"native",23,1,1,3,0,NA,NA
"1544",40,"native",24,1,1,3,0,NA,NA
"1545",40,"native",25,1,1,4,0,NA,NA
"1546",40,"native",26,1,1,4,0,NA,NA
"1547",40,"native",27,1,1,4,0,NA,NA
"1548",40,"native",28,1,1,3,0,NA,NA
"1549",40,"native",29,1,1,2,0,NA,NA
"1550",40,"native",30,1,1,4,0,NA,NA
"1551",40,"native",31,1,1,4,0,NA,NA
"1552",40,"native",32,1,1,2,0,NA,NA
"1553",40,"native",33,1,1,4,0,NA,NA
"1554",40,"native",34,1,1,2,0,NA,NA
"1555",40,"native",35,1,1,3,0,NA,NA
"1556",40,"native",36,1,1,4,0,NA,NA
"1557",40,"native",37,1,1,4,0,NA,NA
"1558",40,"native",38,1,1,4,0,NA,NA
"1559",40,"native",39,1,1,4,0,NA,NA
"1560",40,"native",40,1,1,4,0,NA,NA
"1561",41,"native",1,1,1,4,1,NA,NA
"1562",41,"native",2,1,1,6,1,NA,NA
"1563",41,"native",3,1,1,4,1,NA,NA
"1564",41,"native",4,1,1,4,1,NA,NA
"1565",41,"native",5,1,1,2,1,NA,NA
"1566",41,"native",6,1,1,3,1,NA,NA
"1567",41,"native",7,1,1,4,1,NA,NA
"1568",41,"native",8,1,1,3,1,NA,NA
"1569",41,"native",9,1,1,4,1,NA,NA
"1570",41,"native",10,1,1,1,1,NA,NA
"1571",41,"native",11,1,1,4,1,NA,NA
"1572",41,"native",12,1,1,6,1,NA,NA
"1573",41,"native",13,1,1,4,1,NA,NA
"1574",41,"native",14,1,1,4,1,NA,NA
"1575",41,"native",15,1,1,6,1,NA,NA
"1576",41,"native",16,1,1,3,1,NA,NA
"1577",41,"native",17,1,1,2,1,NA,NA
"1578",41,"native",18,1,1,4,1,NA,NA
"1579",41,"native",19,1,1,1,1,NA,NA
"1580",41,"native",20,1,1,3,1,NA,NA
"1581",41,"native",21,1,1,1,0,NA,NA
"1582",41,"native",22,1,1,3,0,NA,NA
"1583",41,"native",23,1,1,3,0,NA,NA
"1584",41,"native",24,1,1,4,0,NA,NA
"1585",41,"native",25,1,1,5,0,NA,NA
"1586",41,"native",26,1,1,4,0,NA,NA
"1587",41,"native",27,1,1,2,0,NA,NA
"1588",41,"native",28,1,1,4,0,NA,NA
"1589",41,"native",29,1,1,3,0,NA,NA
"1590",41,"native",30,1,1,5,0,NA,NA
"1591",41,"native",31,1,1,3,0,NA,NA
"1592",41,"native",32,1,1,4,0,NA,NA
"1593",41,"native",33,1,1,4,0,NA,NA
"1594",41,"native",34,1,1,3,0,NA,NA
"1595",41,"native",35,1,1,5,0,NA,NA
"1596",41,"native",36,1,1,1,0,NA,NA
"1597",41,"native",37,1,1,1,0,NA,NA
"1598",41,"native",38,1,1,4,0,NA,NA
"1599",41,"native",39,1,1,1,0,NA,NA
"1600",41,"native",40,1,1,3,0,NA,NA
"1601",42,"native",1,1,1,6,1,NA,NA
"1602",42,"native",2,1,1,6,1,NA,NA
"1603",42,"native",3,1,1,6,1,NA,NA
"1604",42,"native",4,1,1,6,1,NA,NA
"1605",42,"native",5,1,1,4,1,NA,NA
"1606",42,"native",6,1,1,1,1,NA,NA
"1607",42,"native",7,1,1,6,1,NA,NA
"1608",42,"native",8,1,1,6,1,NA,NA
"1609",42,"native",9,1,1,6,1,NA,NA
"1610",42,"native",10,1,1,3,1,NA,NA
"1611",42,"native",11,1,1,1,1,NA,NA
"1612",42,"native",12,1,1,1,1,NA,NA
"1613",42,"native",13,1,1,6,1,NA,NA
"1614",42,"native",14,1,1,6,1,NA,NA
"1615",42,"native",15,1,1,1,1,NA,NA
"1616",42,"native",16,1,1,6,1,NA,NA
"1617",42,"native",17,1,1,6,1,NA,NA
"1618",42,"native",18,1,1,6,1,NA,NA
"1619",42,"native",19,1,1,1,1,NA,NA
"1620",42,"native",20,1,1,2,1,NA,NA
"1621",42,"native",21,1,1,5,0,NA,NA
"1622",42,"native",22,1,1,6,0,NA,NA
"1623",42,"native",23,1,1,6,0,NA,NA
"1624",42,"native",24,1,1,4,0,NA,NA
"1625",42,"native",25,1,1,1,0,NA,NA
"1626",42,"native",26,1,1,6,0,NA,NA
"1627",42,"native",27,1,1,5,0,NA,NA
"1628",42,"native",28,1,1,6,0,NA,NA
"1629",42,"native",29,1,1,5,0,NA,NA
"1630",42,"native",30,1,1,1,0,NA,NA
"1631",42,"native",31,1,1,3,0,NA,NA
"1632",42,"native",32,1,1,6,0,NA,NA
"1633",42,"native",33,1,1,6,0,NA,NA
"1634",42,"native",34,1,1,3,0,NA,NA
"1635",42,"native",35,1,1,6,0,NA,NA
"1636",42,"native",36,1,1,4,0,NA,NA
"1637",42,"native",37,1,1,2,0,NA,NA
"1638",42,"native",38,1,1,6,0,NA,NA
"1639",42,"native",39,1,1,5,0,NA,NA
"1640",42,"native",40,1,1,5,0,NA,NA
"1641",43,"native",1,1,1,3,1,NA,NA
"1642",43,"native",2,1,1,6,1,NA,NA
"1643",43,"native",3,1,1,4,1,NA,NA
"1644",43,"native",4,1,1,4,1,NA,NA
"1645",43,"native",5,1,1,2,1,NA,NA
"1646",43,"native",6,1,1,5,1,NA,NA
"1647",43,"native",7,1,1,4,1,NA,NA
"1648",43,"native",8,1,1,4,1,NA,NA
"1649",43,"native",9,1,1,4,1,NA,NA
"1650",43,"native",10,1,1,3,1,NA,NA
"1651",43,"native",11,1,1,5,1,NA,NA
"1652",43,"native",12,1,1,6,1,NA,NA
"1653",43,"native",13,1,1,5,1,NA,NA
"1654",43,"native",14,1,1,6,1,NA,NA
"1655",43,"native",15,1,1,1,1,NA,NA
"1656",43,"native",16,1,1,5,1,NA,NA
"1657",43,"native",17,1,1,5,1,NA,NA
"1658",43,"native",18,1,1,5,1,NA,NA
"1659",43,"native",19,1,1,4,1,NA,NA
"1660",43,"native",20,1,1,4,1,NA,NA
"1661",43,"native",21,1,1,4,0,NA,NA
"1662",43,"native",22,1,1,5,0,NA,NA
"1663",43,"native",23,1,1,4,0,NA,NA
"1664",43,"native",24,1,1,4,0,NA,NA
"1665",43,"native",25,1,1,4,0,NA,NA
"1666",43,"native",26,1,1,5,0,NA,NA
"1667",43,"native",27,1,1,4,0,NA,NA
"1668",43,"native",28,1,1,2,0,NA,NA
"1669",43,"native",29,1,1,4,0,NA,NA
"1670",43,"native",30,1,1,3,0,NA,NA
"1671",43,"native",31,1,1,4,0,NA,NA
"1672",43,"native",32,1,1,5,0,NA,NA
"1673",43,"native",33,1,1,5,0,NA,NA
"1674",43,"native",34,1,1,4,0,NA,NA
"1675",43,"native",35,1,1,3,0,NA,NA
"1676",43,"native",36,1,1,5,0,NA,NA
"1677",43,"native",37,1,1,3,0,NA,NA
"1678",43,"native",38,1,1,4,0,NA,NA
"1679",43,"native",39,1,1,5,0,NA,NA
"1680",43,"native",40,1,1,5,0,NA,NA
"1681",44,"native",1,1,1,5,1,NA,NA
"1682",44,"native",2,1,1,5,1,NA,NA
"1683",44,"native",3,1,1,5,1,NA,NA
"1684",44,"native",4,1,1,6,1,NA,NA
"1685",44,"native",5,1,1,4,1,NA,NA
"1686",44,"native",6,1,1,5,1,NA,NA
"1687",44,"native",7,1,1,5,1,NA,NA
"1688",44,"native",8,1,1,2,1,NA,NA
"1689",44,"native",9,1,1,5,1,NA,NA
"1690",44,"native",10,1,1,5,1,NA,NA
"1691",44,"native",11,1,1,2,1,NA,NA
"1692",44,"native",12,1,1,2,1,NA,NA
"1693",44,"native",13,1,1,2,1,NA,NA
"1694",44,"native",14,1,1,3,1,NA,NA
"1695",44,"native",15,1,1,2,1,NA,NA
"1696",44,"native",16,1,1,2,1,NA,NA
"1697",44,"native",17,1,1,2,1,NA,NA
"1698",44,"native",18,1,1,2,1,NA,NA
"1699",44,"native",19,1,1,2,1,NA,NA
"1700",44,"native",20,1,1,2,1,NA,NA
"1701",44,"native",21,1,1,5,0,NA,NA
"1702",44,"native",22,1,1,6,0,NA,NA
"1703",44,"native",23,1,1,4,0,NA,NA
"1704",44,"native",24,1,1,2,0,NA,NA
"1705",44,"native",25,1,1,5,0,NA,NA
"1706",44,"native",26,1,1,5,0,NA,NA
"1707",44,"native",27,1,1,3,0,NA,NA
"1708",44,"native",28,1,1,6,0,NA,NA
"1709",44,"native",29,1,1,4,0,NA,NA
"1710",44,"native",30,1,1,4,0,NA,NA
"1711",44,"native",31,1,1,2,0,NA,NA
"1712",44,"native",32,1,1,3,0,NA,NA
"1713",44,"native",33,1,1,3,0,NA,NA
"1714",44,"native",34,1,1,2,0,NA,NA
"1715",44,"native",35,1,1,2,0,NA,NA
"1716",44,"native",36,1,1,2,0,NA,NA
"1717",44,"native",37,1,1,1,0,NA,NA
"1718",44,"native",38,1,1,4,0,NA,NA
"1719",44,"native",39,1,1,5,0,NA,NA
"1720",44,"native",40,1,1,5,0,NA,NA
"1721",45,"native",1,1,1,5,1,NA,NA
"1722",45,"native",2,1,1,4,1,NA,NA
"1723",45,"native",3,1,1,2,1,NA,NA
"1724",45,"native",4,1,1,5,1,NA,NA
"1725",45,"native",5,1,1,6,1,NA,NA
"1726",45,"native",6,1,1,4,1,NA,NA
"1727",45,"native",7,1,1,4,1,NA,NA
"1728",45,"native",8,1,1,5,1,NA,NA
"1729",45,"native",9,1,1,5,1,NA,NA
"1730",45,"native",10,1,1,4,1,NA,NA
"1731",45,"native",11,1,1,5,1,NA,NA
"1732",45,"native",12,1,1,6,1,NA,NA
"1733",45,"native",13,1,1,6,1,NA,NA
"1734",45,"native",14,1,1,5,1,NA,NA
"1735",45,"native",15,1,1,5,1,NA,NA
"1736",45,"native",16,1,1,2,1,NA,NA
"1737",45,"native",17,1,1,4,1,NA,NA
"1738",45,"native",18,1,1,4,1,NA,NA
"1739",45,"native",19,1,1,3,1,NA,NA
"1740",45,"native",20,1,1,3,1,NA,NA
"1741",45,"native",21,1,1,5,0,NA,NA
"1742",45,"native",22,1,1,4,0,NA,NA
"1743",45,"native",23,1,1,4,0,NA,NA
"1744",45,"native",24,1,1,4,0,NA,NA
"1745",45,"native",25,1,1,2,0,NA,NA
"1746",45,"native",26,1,1,2,0,NA,NA
"1747",45,"native",27,1,1,4,0,NA,NA
"1748",45,"native",28,1,1,6,0,NA,NA
"1749",45,"native",29,1,1,3,0,NA,NA
"1750",45,"native",30,1,1,3,0,NA,NA
"1751",45,"native",31,1,1,4,0,NA,NA
"1752",45,"native",32,1,1,4,0,NA,NA
"1753",45,"native",33,1,1,3,0,NA,NA
"1754",45,"native",34,1,1,4,0,NA,NA
"1755",45,"native",35,1,1,4,0,NA,NA
"1756",45,"native",36,1,1,4,0,NA,NA
"1757",45,"native",37,1,1,1,0,NA,NA
"1758",45,"native",38,1,1,5,0,NA,NA
"1759",45,"native",39,1,1,2,0,NA,NA
"1760",45,"native",40,1,1,6,0,NA,NA
"1761",46,"native",1,1,1,6,1,NA,NA
"1762",46,"native",2,1,1,6,1,NA,NA
"1763",46,"native",3,1,1,5,1,NA,NA
"1764",46,"native",4,1,1,5,1,NA,NA
"1765",46,"native",5,1,1,6,1,NA,NA
"1766",46,"native",6,1,1,3,1,NA,NA
"1767",46,"native",7,1,1,5,1,NA,NA
"1768",46,"native",8,1,1,4,1,NA,NA
"1769",46,"native",9,1,1,6,1,NA,NA
"1770",46,"native",10,1,1,1,1,NA,NA
"1771",46,"native",11,1,1,4,1,NA,NA
"1772",46,"native",12,1,1,6,1,NA,NA
"1773",46,"native",13,1,1,1,1,NA,NA
"1774",46,"native",14,1,1,5,1,NA,NA
"1775",46,"native",15,1,1,6,1,NA,NA
"1776",46,"native",16,1,1,5,1,NA,NA
"1777",46,"native",17,1,1,1,1,NA,NA
"1778",46,"native",18,1,1,1,1,NA,NA
"1779",46,"native",19,1,1,6,1,NA,NA
"1780",46,"native",20,1,1,5,1,NA,NA
"1781",46,"native",21,1,1,6,0,NA,NA
"1782",46,"native",22,1,1,6,0,NA,NA
"1783",46,"native",23,1,1,6,0,NA,NA
"1784",46,"native",24,1,1,1,0,NA,NA
"1785",46,"native",25,1,1,5,0,NA,NA
"1786",46,"native",26,1,1,6,0,NA,NA
"1787",46,"native",27,1,1,5,0,NA,NA
"1788",46,"native",28,1,1,6,0,NA,NA
"1789",46,"native",29,1,1,2,0,NA,NA
"1790",46,"native",30,1,1,5,0,NA,NA
"1791",46,"native",31,1,1,6,0,NA,NA
"1792",46,"native",32,1,1,2,0,NA,NA
"1793",46,"native",33,1,1,1,0,NA,NA
"1794",46,"native",34,1,1,2,0,NA,NA
"1795",46,"native",35,1,1,2,0,NA,NA
"1796",46,"native",36,1,1,1,0,NA,NA
"1797",46,"native",37,1,1,6,0,NA,NA
"1798",46,"native",38,1,1,1,0,NA,NA
"1799",46,"native",39,1,1,6,0,NA,NA
"1800",46,"native",40,1,1,5,0,NA,NA
"1801",47,"native",1,1,1,3,1,NA,NA
"1802",47,"native",2,1,1,6,1,NA,NA
"1803",47,"native",3,1,1,5,1,NA,NA
"1804",47,"native",4,1,1,4,1,NA,NA
"1805",47,"native",5,1,1,5,1,NA,NA
"1806",47,"native",6,1,1,4,1,NA,NA
"1807",47,"native",7,1,1,6,1,NA,NA
"1808",47,"native",8,1,1,4,1,NA,NA
"1809",47,"native",9,1,1,4,1,NA,NA
"1810",47,"native",10,1,1,1,1,NA,NA
"1811",47,"native",11,1,1,5,1,NA,NA
"1812",47,"native",12,1,1,5,1,NA,NA
"1813",47,"native",13,1,1,6,1,NA,NA
"1814",47,"native",14,1,1,1,1,NA,NA
"1815",47,"native",15,1,1,5,1,NA,NA
"1816",47,"native",16,1,1,3,1,NA,NA
"1817",47,"native",17,1,1,4,1,NA,NA
"1818",47,"native",18,1,1,4,1,NA,NA
"1819",47,"native",19,1,1,6,1,NA,NA
"1820",47,"native",20,1,1,4,1,NA,NA
"1821",47,"native",21,1,1,1,0,NA,NA
"1822",47,"native",22,1,1,5,0,NA,NA
"1823",47,"native",23,1,1,3,0,NA,NA
"1824",47,"native",24,1,1,3,0,NA,NA
"1825",47,"native",25,1,1,6,0,NA,NA
"1826",47,"native",26,1,1,4,0,NA,NA
"1827",47,"native",27,1,1,4,0,NA,NA
"1828",47,"native",28,1,1,1,0,NA,NA
"1829",47,"native",29,1,1,4,0,NA,NA
"1830",47,"native",30,1,1,4,0,NA,NA
"1831",47,"native",31,1,1,4,0,NA,NA
"1832",47,"native",32,1,1,4,0,NA,NA
"1833",47,"native",33,1,1,4,0,NA,NA
"1834",47,"native",34,1,1,4,0,NA,NA
"1835",47,"native",35,1,1,4,0,NA,NA
"1836",47,"native",36,1,1,4,0,NA,NA
"1837",47,"native",37,1,1,4,0,NA,NA
"1838",47,"native",38,1,1,3,0,NA,NA
"1839",47,"native",39,1,1,4,0,NA,NA
"1840",47,"native",40,1,1,3,0,NA,NA
"1841",48,"native",1,1,1,3,1,NA,NA
"1842",48,"native",2,1,1,3,1,NA,NA
"1843",48,"native",3,1,1,3,1,NA,NA
"1844",48,"native",4,1,1,4,1,NA,NA
"1845",48,"native",5,1,1,3,1,NA,NA
"1846",48,"native",6,1,1,3,1,NA,NA
"1847",48,"native",7,1,1,4,1,NA,NA
"1848",48,"native",8,1,1,3,1,NA,NA
"1849",48,"native",9,1,1,3,1,NA,NA
"1850",48,"native",10,1,1,2,1,NA,NA
"1851",48,"native",11,1,1,3,1,NA,NA
"1852",48,"native",12,1,1,3,1,NA,NA
"1853",48,"native",13,1,1,3,1,NA,NA
"1854",48,"native",14,1,1,4,1,NA,NA
"1855",48,"native",15,1,1,3,1,NA,NA
"1856",48,"native",16,1,1,3,1,NA,NA
"1857",48,"native",17,1,1,4,1,NA,NA
"1858",48,"native",18,1,1,3,1,NA,NA
"1859",48,"native",19,1,1,3,1,NA,NA
"1860",48,"native",20,1,1,3,1,NA,NA
"1861",48,"native",21,1,1,2,0,NA,NA
"1862",48,"native",22,1,1,3,0,NA,NA
"1863",48,"native",23,1,1,4,0,NA,NA
"1864",48,"native",24,1,1,3,0,NA,NA
"1865",48,"native",25,1,1,4,0,NA,NA
"1866",48,"native",26,1,1,3,0,NA,NA
"1867",48,"native",27,1,1,2,0,NA,NA
"1868",48,"native",28,1,1,4,0,NA,NA
"1869",48,"native",29,1,1,3,0,NA,NA
"1870",48,"native",30,1,1,3,0,NA,NA
"1871",48,"native",31,1,1,3,0,NA,NA
"1872",48,"native",32,1,1,4,0,NA,NA
"1873",48,"native",33,1,1,3,0,NA,NA
"1874",48,"native",34,1,1,3,0,NA,NA
"1875",48,"native",35,1,1,3,0,NA,NA
"1876",48,"native",36,1,1,4,0,NA,NA
"1877",48,"native",37,1,1,3,0,NA,NA
"1878",48,"native",38,1,1,3,0,NA,NA
"1879",48,"native",39,1,1,4,0,NA,NA
"1880",48,"native",40,1,1,3,0,NA,NA
"1881",49,"native",1,1,1,3,1,NA,NA
"1882",49,"native",2,1,1,6,1,NA,NA
"1883",49,"native",3,1,1,3,1,NA,NA
"1884",49,"native",4,1,1,6,1,NA,NA
"1885",49,"native",5,1,1,5,1,NA,NA
"1886",49,"native",6,1,1,5,1,NA,NA
"1887",49,"native",7,1,1,6,1,NA,NA
"1888",49,"native",8,1,1,6,1,NA,NA
"1889",49,"native",9,1,1,6,1,NA,NA
"1890",49,"native",10,1,1,4,1,NA,NA
"1891",49,"native",11,1,1,5,1,NA,NA
"1892",49,"native",12,1,1,6,1,NA,NA
"1893",49,"native",13,1,1,6,1,NA,NA
"1894",49,"native",14,1,1,6,1,NA,NA
"1895",49,"native",15,1,1,5,1,NA,NA
"1896",49,"native",16,1,1,5,1,NA,NA
"1897",49,"native",17,1,1,6,1,NA,NA
"1898",49,"native",18,1,1,5,1,NA,NA
"1899",49,"native",19,1,1,6,1,NA,NA
"1900",49,"native",20,1,1,5,1,NA,NA
"1901",49,"native",21,1,1,3,0,NA,NA
"1902",49,"native",22,1,1,4,0,NA,NA
"1903",49,"native",23,1,1,3,0,NA,NA
"1904",49,"native",24,1,1,3,0,NA,NA
"1905",49,"native",25,1,1,6,0,NA,NA
"1906",49,"native",26,1,1,5,0,NA,NA
"1907",49,"native",27,1,1,3,0,NA,NA
"1908",49,"native",28,1,1,5,0,NA,NA
"1909",49,"native",29,1,1,4,0,NA,NA
"1910",49,"native",30,1,1,6,0,NA,NA
"1911",49,"native",31,1,1,3,0,NA,NA
"1912",49,"native",32,1,1,6,0,NA,NA
"1913",49,"native",33,1,1,5,0,NA,NA
"1914",49,"native",34,1,1,3,0,NA,NA
"1915",49,"native",35,1,1,5,0,NA,NA
"1916",49,"native",36,1,1,6,0,NA,NA
"1917",49,"native",37,1,1,1,0,NA,NA
"1918",49,"native",38,1,1,5,0,NA,NA
"1919",49,"native",39,1,1,5,0,NA,NA
"1920",49,"native",40,1,1,2,0,NA,NA
"1921",50,"native",1,1,1,4,1,NA,NA
"1922",50,"native",2,1,1,4,1,NA,NA
"1923",50,"native",3,1,1,6,1,NA,NA
"1924",50,"native",4,1,1,1,1,NA,NA
"1925",50,"native",5,1,1,6,1,NA,NA
"1926",50,"native",6,1,1,6,1,NA,NA
"1927",50,"native",7,1,1,6,1,NA,NA
"1928",50,"native",8,1,1,6,1,NA,NA
"1929",50,"native",9,1,1,6,1,NA,NA
"1930",50,"native",10,1,1,1,1,NA,NA
"1931",50,"native",11,1,1,1,1,NA,NA
"1932",50,"native",12,1,1,4,1,NA,NA
"1933",50,"native",13,1,1,6,1,NA,NA
"1934",50,"native",14,1,1,6,1,NA,NA
"1935",50,"native",15,1,1,1,1,NA,NA
"1936",50,"native",16,1,1,4,1,NA,NA
"1937",50,"native",17,1,1,6,1,NA,NA
"1938",50,"native",18,1,1,6,1,NA,NA
"1939",50,"native",19,1,1,6,1,NA,NA
"1940",50,"native",20,1,1,6,1,NA,NA
"1941",50,"native",21,1,1,1,0,NA,NA
"1942",50,"native",22,1,1,6,0,NA,NA
"1943",50,"native",23,1,1,6,0,NA,NA
"1944",50,"native",24,1,1,6,0,NA,NA
"1945",50,"native",25,1,1,6,0,NA,NA
"1946",50,"native",26,1,1,1,0,NA,NA
"1947",50,"native",27,1,1,4,0,NA,NA
"1948",50,"native",28,1,1,6,0,NA,NA
"1949",50,"native",29,1,1,1,0,NA,NA
"1950",50,"native",30,1,1,4,0,NA,NA
"1951",50,"native",31,1,1,6,0,NA,NA
"1952",50,"native",32,1,1,4,0,NA,NA
"1953",50,"native",33,1,1,6,0,NA,NA
"1954",50,"native",34,1,1,4,0,NA,NA
"1955",50,"native",35,1,1,6,0,NA,NA
"1956",50,"native",36,1,1,1,0,NA,NA
"1957",50,"native",37,1,1,1,0,NA,NA
"1958",50,"native",38,1,1,6,0,NA,NA
"1959",50,"native",39,1,1,4,0,NA,NA
"1960",50,"native",40,1,1,4,0,NA,NA
"1961",51,"native",1,1,1,6,1,NA,NA
"1962",51,"native",2,1,1,6,1,NA,NA
"1963",51,"native",3,1,1,6,1,NA,NA
"1964",51,"native",4,1,1,3,1,NA,NA
"1965",51,"native",5,1,1,3,1,NA,NA
"1966",51,"native",6,1,1,6,1,NA,NA
"1967",51,"native",7,1,1,1,1,NA,NA
"1968",51,"native",8,1,1,3,1,NA,NA
"1969",51,"native",9,1,1,6,1,NA,NA
"1970",51,"native",10,1,1,5,1,NA,NA
"1971",51,"native",11,1,1,4,1,NA,NA
"1972",51,"native",12,1,1,6,1,NA,NA
"1973",51,"native",13,1,1,6,1,NA,NA
"1974",51,"native",14,1,1,5,1,NA,NA
"1975",51,"native",15,1,1,1,1,NA,NA
"1976",51,"native",16,1,1,4,1,NA,NA
"1977",51,"native",17,1,1,5,1,NA,NA
"1978",51,"native",18,1,1,5,1,NA,NA
"1979",51,"native",19,1,1,2,1,NA,NA
"1980",51,"native",20,1,1,5,1,NA,NA
"1981",51,"native",21,1,1,3,0,NA,NA
"1982",51,"native",22,1,1,6,0,NA,NA
"1983",51,"native",23,1,1,5,0,NA,NA
"1984",51,"native",24,1,1,1,0,NA,NA
"1985",51,"native",25,1,1,4,0,NA,NA
"1986",51,"native",26,1,1,2,0,NA,NA
"1987",51,"native",27,1,1,5,0,NA,NA
"1988",51,"native",28,1,1,6,0,NA,NA
"1989",51,"native",29,1,1,5,0,NA,NA
"1990",51,"native",30,1,1,3,0,NA,NA
"1991",51,"native",31,1,1,4,0,NA,NA
"1992",51,"native",32,1,1,4,0,NA,NA
"1993",51,"native",33,1,1,5,0,NA,NA
"1994",51,"native",34,1,1,1,0,NA,NA
"1995",51,"native",35,1,1,5,0,NA,NA
"1996",51,"native",36,1,1,4,0,NA,NA
"1997",51,"native",37,1,1,4,0,NA,NA
"1998",51,"native",38,1,1,4,0,NA,NA
"1999",51,"native",39,1,1,2,0,NA,NA
"2000",51,"native",40,1,1,3,0,NA,NA
"2001",52,"native",1,1,1,5,1,NA,NA
"2002",52,"native",2,1,1,2,1,NA,NA
"2003",52,"native",3,1,1,6,1,NA,NA
"2004",52,"native",4,1,1,4,1,NA,NA
"2005",52,"native",5,1,1,5,1,NA,NA
"2006",52,"native",6,1,1,5,1,NA,NA
"2007",52,"native",7,1,1,6,1,NA,NA
"2008",52,"native",8,1,1,2,1,NA,NA
"2009",52,"native",9,1,1,4,1,NA,NA
"2010",52,"native",10,1,1,2,1,NA,NA
"2011",52,"native",11,1,1,5,1,NA,NA
"2012",52,"native",12,1,1,5,1,NA,NA
"2013",52,"native",13,1,1,5,1,NA,NA
"2014",52,"native",14,1,1,6,1,NA,NA
"2015",52,"native",15,1,1,1,1,NA,NA
"2016",52,"native",16,1,1,6,1,NA,NA
"2017",52,"native",17,1,1,4,1,NA,NA
"2018",52,"native",18,1,1,5,1,NA,NA
"2019",52,"native",19,1,1,4,1,NA,NA
"2020",52,"native",20,1,1,4,1,NA,NA
"2021",52,"native",21,1,1,2,0,NA,NA
"2022",52,"native",22,1,1,5,0,NA,NA
"2023",52,"native",23,1,1,5,0,NA,NA
"2024",52,"native",24,1,1,4,0,NA,NA
"2025",52,"native",25,1,1,5,0,NA,NA
"2026",52,"native",26,1,1,4,0,NA,NA
"2027",52,"native",27,1,1,4,0,NA,NA
"2028",52,"native",28,1,1,6,0,NA,NA
"2029",52,"native",29,1,1,4,0,NA,NA
"2030",52,"native",30,1,1,3,0,NA,NA
"2031",52,"native",31,1,1,5,0,NA,NA
"2032",52,"native",32,1,1,4,0,NA,NA
"2033",52,"native",33,1,1,4,0,NA,NA
"2034",52,"native",34,1,1,4,0,NA,NA
"2035",52,"native",35,1,1,4,0,NA,NA
"2036",52,"native",36,1,1,2,0,NA,NA
"2037",52,"native",37,1,1,3,0,NA,NA
"2038",52,"native",38,1,1,2,0,NA,NA
"2039",52,"native",39,1,1,3,0,NA,NA
"2040",52,"native",40,1,1,4,0,NA,NA
"2041",53,"native",1,1,1,6,1,NA,NA
"2042",53,"native",2,1,1,6,1,NA,NA
"2043",53,"native",3,1,1,6,1,NA,NA
"2044",53,"native",4,1,1,6,1,NA,NA
"2045",53,"native",5,1,1,6,1,NA,NA
"2046",53,"native",6,1,1,6,1,NA,NA
"2047",53,"native",7,1,1,6,1,NA,NA
"2048",53,"native",8,1,1,6,1,NA,NA
"2049",53,"native",9,1,1,6,1,NA,NA
"2050",53,"native",10,1,1,6,1,NA,NA
"2051",53,"native",11,1,1,6,1,NA,NA
"2052",53,"native",12,1,1,6,1,NA,NA
"2053",53,"native",13,1,1,6,1,NA,NA
"2054",53,"native",14,1,1,6,1,NA,NA
"2055",53,"native",15,1,1,6,1,NA,NA
"2056",53,"native",16,1,1,6,1,NA,NA
"2057",53,"native",17,1,1,6,1,NA,NA
"2058",53,"native",18,1,1,6,1,NA,NA
"2059",53,"native",19,1,1,6,1,NA,NA
"2060",53,"native",20,1,1,6,1,NA,NA
"2061",53,"native",21,1,1,5,0,NA,NA
"2062",53,"native",22,1,1,6,0,NA,NA
"2063",53,"native",23,1,1,3,0,NA,NA
"2064",53,"native",24,1,1,5,0,NA,NA
"2065",53,"native",25,1,1,6,0,NA,NA
"2066",53,"native",26,1,1,6,0,NA,NA
"2067",53,"native",27,1,1,2,0,NA,NA
"2068",53,"native",28,1,1,6,0,NA,NA
"2069",53,"native",29,1,1,6,0,NA,NA
"2070",53,"native",30,1,1,6,0,NA,NA
"2071",53,"native",31,1,1,6,0,NA,NA
"2072",53,"native",32,1,1,6,0,NA,NA
"2073",53,"native",33,1,1,2,0,NA,NA
"2074",53,"native",34,1,1,6,0,NA,NA
"2075",53,"native",35,1,1,6,0,NA,NA
"2076",53,"native",36,1,1,4,0,NA,NA
"2077",53,"native",37,1,1,5,0,NA,NA
"2078",53,"native",38,1,1,6,0,NA,NA
"2079",53,"native",39,1,1,6,0,NA,NA
"2080",53,"native",40,1,1,6,0,NA,NA
"2081",54,"native",1,1,1,4,1,NA,NA
"2082",54,"native",2,1,1,3,1,NA,NA
"2083",54,"native",3,1,1,4,1,NA,NA
"2084",54,"native",4,1,1,3,1,NA,NA
"2085",54,"native",5,1,1,4,1,NA,NA
"2086",54,"native",6,1,1,6,1,NA,NA
"2087",54,"native",7,1,1,4,1,NA,NA
"2088",54,"native",8,1,1,5,1,NA,NA
"2089",54,"native",9,1,1,3,1,NA,NA
"2090",54,"native",10,1,1,4,1,NA,NA
"2091",54,"native",11,1,1,5,1,NA,NA
"2092",54,"native",12,1,1,6,1,NA,NA
"2093",54,"native",13,1,1,3,1,NA,NA
"2094",54,"native",14,1,1,6,1,NA,NA
"2095",54,"native",15,1,1,1,1,NA,NA
"2096",54,"native",16,1,1,3,1,NA,NA
"2097",54,"native",17,1,1,1,1,NA,NA
"2098",54,"native",18,1,1,4,1,NA,NA
"2099",54,"native",19,1,1,3,1,NA,NA
"2100",54,"native",20,1,1,4,1,NA,NA
"2101",54,"native",21,1,1,2,0,NA,NA
"2102",54,"native",22,1,1,4,0,NA,NA
"2103",54,"native",23,1,1,4,0,NA,NA
"2104",54,"native",24,1,1,3,0,NA,NA
"2105",54,"native",25,1,1,4,0,NA,NA
"2106",54,"native",26,1,1,5,0,NA,NA
"2107",54,"native",27,1,1,5,0,NA,NA
"2108",54,"native",28,1,1,5,0,NA,NA
"2109",54,"native",29,1,1,1,0,NA,NA
"2110",54,"native",30,1,1,4,0,NA,NA
"2111",54,"native",31,1,1,4,0,NA,NA
"2112",54,"native",32,1,1,5,0,NA,NA
"2113",54,"native",33,1,1,3,0,NA,NA
"2114",54,"native",34,1,1,1,0,NA,NA
"2115",54,"native",35,1,1,5,0,NA,NA
"2116",54,"native",36,1,1,1,0,NA,NA
"2117",54,"native",37,1,1,1,0,NA,NA
"2118",54,"native",38,1,1,5,0,NA,NA
"2119",54,"native",39,1,1,5,0,NA,NA
"2120",54,"native",40,1,1,4,0,NA,NA
"2121",55,"native",1,1,1,5,1,NA,NA
"2122",55,"native",2,1,1,6,1,NA,NA
"2123",55,"native",3,1,1,4,1,NA,NA
"2124",55,"native",4,1,1,3,1,NA,NA
"2125",55,"native",5,1,1,6,1,NA,NA
"2126",55,"native",6,1,1,1,1,NA,NA
"2127",55,"native",7,1,1,4,1,NA,NA
"2128",55,"native",8,1,1,5,1,NA,NA
"2129",55,"native",9,1,1,4,1,NA,NA
"2130",55,"native",10,1,1,1,1,NA,NA
"2131",55,"native",11,1,1,4,1,NA,NA
"2132",55,"native",12,1,1,6,1,NA,NA
"2133",55,"native",13,1,1,5,1,NA,NA
"2134",55,"native",14,1,1,6,1,NA,NA
"2135",55,"native",15,1,1,1,1,NA,NA
"2136",55,"native",16,1,1,2,1,NA,NA
"2137",55,"native",17,1,1,6,1,NA,NA
"2138",55,"native",18,1,1,4,1,NA,NA
"2139",55,"native",19,1,1,4,1,NA,NA
"2140",55,"native",20,1,1,5,1,NA,NA
"2141",55,"native",21,1,1,1,0,NA,NA
"2142",55,"native",22,1,1,4,0,NA,NA
"2143",55,"native",23,1,1,5,0,NA,NA
"2144",55,"native",24,1,1,2,0,NA,NA
"2145",55,"native",25,1,1,4,0,NA,NA
"2146",55,"native",26,1,1,5,0,NA,NA
"2147",55,"native",27,1,1,5,0,NA,NA
"2148",55,"native",28,1,1,6,0,NA,NA
"2149",55,"native",29,1,1,2,0,NA,NA
"2150",55,"native",30,1,1,4,0,NA,NA
"2151",55,"native",31,1,1,1,0,NA,NA
"2152",55,"native",32,1,1,5,0,NA,NA
"2153",55,"native",33,1,1,6,0,NA,NA
"2154",55,"native",34,1,1,2,0,NA,NA
"2155",55,"native",35,1,1,4,0,NA,NA
"2156",55,"native",36,1,1,4,0,NA,NA
"2157",55,"native",37,1,1,1,0,NA,NA
"2158",55,"native",38,1,1,5,0,NA,NA
"2159",55,"native",39,1,1,3,0,NA,NA
"2160",55,"native",40,1,1,5,0,NA,NA
"2161",56,"native",1,1,1,5,1,NA,NA
"2162",56,"native",2,1,1,6,1,NA,NA
"2163",56,"native",3,1,1,5,1,NA,NA
"2164",56,"native",4,1,1,3,1,NA,NA
"2165",56,"native",5,1,1,4,1,NA,NA
"2166",56,"native",6,1,1,6,1,NA,NA
"2167",56,"native",7,1,1,5,1,NA,NA
"2168",56,"native",8,1,1,5,1,NA,NA
"2169",56,"native",9,1,1,6,1,NA,NA
"2170",56,"native",10,1,1,6,1,NA,NA
"2171",56,"native",11,1,1,5,1,NA,NA
"2172",56,"native",12,1,1,6,1,NA,NA
"2173",56,"native",13,1,1,6,1,NA,NA
"2174",56,"native",14,1,1,6,1,NA,NA
"2175",56,"native",15,1,1,6,1,NA,NA
"2176",56,"native",16,1,1,5,1,NA,NA
"2177",56,"native",17,1,1,5,1,NA,NA
"2178",56,"native",18,1,1,6,1,NA,NA
"2179",56,"native",19,1,1,6,1,NA,NA
"2180",56,"native",20,1,1,6,1,NA,NA
"2181",56,"native",21,1,1,4,0,NA,NA
"2182",56,"native",22,1,1,4,0,NA,NA
"2183",56,"native",23,1,1,4,0,NA,NA
"2184",56,"native",24,1,1,3,0,NA,NA
"2185",56,"native",25,1,1,5,0,NA,NA
"2186",56,"native",26,1,1,6,0,NA,NA
"2187",56,"native",27,1,1,3,0,NA,NA
"2188",56,"native",28,1,1,5,0,NA,NA
"2189",56,"native",29,1,1,5,0,NA,NA
"2190",56,"native",30,1,1,5,0,NA,NA
"2191",56,"native",31,1,1,3,0,NA,NA
"2192",56,"native",32,1,1,3,0,NA,NA
"2193",56,"native",33,1,1,5,0,NA,NA
"2194",56,"native",34,1,1,6,0,NA,NA
"2195",56,"native",35,1,1,5,0,NA,NA
"2196",56,"native",36,1,1,3,0,NA,NA
"2197",56,"native",37,1,1,5,0,NA,NA
"2198",56,"native",38,1,1,3,0,NA,NA
"2199",56,"native",39,1,1,5,0,NA,NA
"2200",56,"native",40,1,1,4,0,NA,NA
"2201",57,"native",1,1,1,6,1,NA,NA
"2202",57,"native",2,1,1,6,1,NA,NA
"2203",57,"native",3,1,1,6,1,NA,NA
"2204",57,"native",4,1,1,6,1,NA,NA
"2205",57,"native",5,1,1,5,1,NA,NA
"2206",57,"native",6,1,1,6,1,NA,NA
"2207",57,"native",7,1,1,6,1,NA,NA
"2208",57,"native",8,1,1,1,1,NA,NA
"2209",57,"native",9,1,1,6,1,NA,NA
"2210",57,"native",10,1,1,6,1,NA,NA
"2211",57,"native",11,1,1,6,1,NA,NA
"2212",57,"native",12,1,1,1,1,NA,NA
"2213",57,"native",13,1,1,6,1,NA,NA
"2214",57,"native",14,1,1,6,1,NA,NA
"2215",57,"native",15,1,1,6,1,NA,NA
"2216",57,"native",16,1,1,6,1,NA,NA
"2217",57,"native",17,1,1,6,1,NA,NA
"2218",57,"native",18,1,1,6,1,NA,NA
"2219",57,"native",19,1,1,1,1,NA,NA
"2220",57,"native",20,1,1,1,1,NA,NA
"2221",57,"native",21,1,1,6,0,NA,NA
"2222",57,"native",22,1,1,6,0,NA,NA
"2223",57,"native",23,1,1,6,0,NA,NA
"2224",57,"native",24,1,1,2,0,NA,NA
"2225",57,"native",25,1,1,6,0,NA,NA
"2226",57,"native",26,1,1,6,0,NA,NA
"2227",57,"native",27,1,1,6,0,NA,NA
"2228",57,"native",28,1,1,6,0,NA,NA
"2229",57,"native",29,1,1,6,0,NA,NA
"2230",57,"native",30,1,1,2,0,NA,NA
"2231",57,"native",31,1,1,2,0,NA,NA
"2232",57,"native",32,1,1,6,0,NA,NA
"2233",57,"native",33,1,1,5,0,NA,NA
"2234",57,"native",34,1,1,1,0,NA,NA
"2235",57,"native",35,1,1,6,0,NA,NA
"2236",57,"native",36,1,1,1,0,NA,NA
"2237",57,"native",37,1,1,1,0,NA,NA
"2238",57,"native",38,1,1,1,0,NA,NA
"2239",57,"native",39,1,1,6,0,NA,NA
"2240",57,"native",40,1,1,6,0,NA,NA
"2241",58,"native",1,1,1,4,1,NA,NA
"2242",58,"native",2,1,1,5,1,NA,NA
"2243",58,"native",3,1,1,3,1,NA,NA
"2244",58,"native",4,1,1,1,1,NA,NA
"2245",58,"native",5,1,1,1,1,NA,NA
"2246",58,"native",6,1,1,2,1,NA,NA
"2247",58,"native",7,1,1,5,1,NA,NA
"2248",58,"native",8,1,1,3,1,NA,NA
"2249",58,"native",9,1,1,5,1,NA,NA
"2250",58,"native",10,1,1,1,1,NA,NA
"2251",58,"native",11,1,1,2,1,NA,NA
"2252",58,"native",12,1,1,5,1,NA,NA
"2253",58,"native",13,1,1,1,1,NA,NA
"2254",58,"native",14,1,1,6,1,NA,NA
"2255",58,"native",15,1,1,1,1,NA,NA
"2256",58,"native",16,1,1,2,1,NA,NA
"2257",58,"native",17,1,1,3,1,NA,NA
"2258",58,"native",18,1,1,4,1,NA,NA
"2259",58,"native",19,1,1,1,1,NA,NA
"2260",58,"native",20,1,1,2,1,NA,NA
"2261",58,"native",21,1,1,4,0,NA,NA
"2262",58,"native",22,1,1,4,0,NA,NA
"2263",58,"native",23,1,1,4,0,NA,NA
"2264",58,"native",24,1,1,2,0,NA,NA
"2265",58,"native",25,1,1,1,0,NA,NA
"2266",58,"native",26,1,1,4,0,NA,NA
"2267",58,"native",27,1,1,4,0,NA,NA
"2268",58,"native",28,1,1,2,0,NA,NA
"2269",58,"native",29,1,1,1,0,NA,NA
"2270",58,"native",30,1,1,1,0,NA,NA
"2271",58,"native",31,1,1,4,0,NA,NA
"2272",58,"native",32,1,1,2,0,NA,NA
"2273",58,"native",33,1,1,2,0,NA,NA
"2274",58,"native",34,1,1,2,0,NA,NA
"2275",58,"native",35,1,1,3,0,NA,NA
"2276",58,"native",36,1,1,2,0,NA,NA
"2277",58,"native",37,1,1,1,0,NA,NA
"2278",58,"native",38,1,1,1,0,NA,NA
"2279",58,"native",39,1,1,2,0,NA,NA
"2280",58,"native",40,1,1,4,0,NA,NA
"2281",59,"native",1,1,1,6,1,NA,NA
"2282",59,"native",2,1,1,2,1,NA,NA
"2283",59,"native",3,1,1,4,1,NA,NA
"2284",59,"native",4,1,1,5,1,NA,NA
"2285",59,"native",5,1,1,2,1,NA,NA
"2286",59,"native",6,1,1,6,1,NA,NA
"2287",59,"native",7,1,1,4,1,NA,NA
"2288",59,"native",8,1,1,5,1,NA,NA
"2289",59,"native",9,1,1,6,1,NA,NA
"2290",59,"native",10,1,1,5,1,NA,NA
"2291",59,"native",11,1,1,5,1,NA,NA
"2292",59,"native",12,1,1,6,1,NA,NA
"2293",59,"native",13,1,1,6,1,NA,NA
"2294",59,"native",14,1,1,6,1,NA,NA
"2295",59,"native",15,1,1,2,1,NA,NA
"2296",59,"native",16,1,1,4,1,NA,NA
"2297",59,"native",17,1,1,4,1,NA,NA
"2298",59,"native",18,1,1,6,1,NA,NA
"2299",59,"native",19,1,1,5,1,NA,NA
"2300",59,"native",20,1,1,6,1,NA,NA
"2301",59,"native",21,1,1,1,0,NA,NA
"2302",59,"native",22,1,1,5,0,NA,NA
"2303",59,"native",23,1,1,5,0,NA,NA
"2304",59,"native",24,1,1,4,0,NA,NA
"2305",59,"native",25,1,1,2,0,NA,NA
"2306",59,"native",26,1,1,6,0,NA,NA
"2307",59,"native",27,1,1,4,0,NA,NA
"2308",59,"native",28,1,1,1,0,NA,NA
"2309",59,"native",29,1,1,5,0,NA,NA
"2310",59,"native",30,1,1,4,0,NA,NA
"2311",59,"native",31,1,1,4,0,NA,NA
"2312",59,"native",32,1,1,6,0,NA,NA
"2313",59,"native",33,1,1,5,0,NA,NA
"2314",59,"native",34,1,1,2,0,NA,NA
"2315",59,"native",35,1,1,5,0,NA,NA
"2316",59,"native",36,1,1,1,0,NA,NA
"2317",59,"native",37,1,1,2,0,NA,NA
"2318",59,"native",38,1,1,6,0,NA,NA
"2319",59,"native",39,1,1,5,0,NA,NA
"2320",59,"native",40,1,1,5,0,NA,NA
"2321",60,"native",1,1,1,6,1,NA,NA
"2322",60,"native",2,1,1,6,1,NA,NA
"2323",60,"native",3,1,1,6,1,NA,NA
"2324",60,"native",4,1,1,6,1,NA,NA
"2325",60,"native",5,1,1,6,1,NA,NA
"2326",60,"native",6,1,1,6,1,NA,NA
"2327",60,"native",7,1,1,6,1,NA,NA
"2328",60,"native",8,1,1,6,1,NA,NA
"2329",60,"native",9,1,1,6,1,NA,NA
"2330",60,"native",10,1,1,6,1,NA,NA
"2331",60,"native",11,1,1,6,1,NA,NA
"2332",60,"native",12,1,1,6,1,NA,NA
"2333",60,"native",13,1,1,6,1,NA,NA
"2334",60,"native",14,1,1,6,1,NA,NA
"2335",60,"native",15,1,1,6,1,NA,NA
"2336",60,"native",16,1,1,6,1,NA,NA
"2337",60,"native",17,1,1,6,1,NA,NA
"2338",60,"native",18,1,1,6,1,NA,NA
"2339",60,"native",19,1,1,6,1,NA,NA
"2340",60,"native",20,1,1,6,1,NA,NA
"2341",60,"native",21,1,1,4,0,NA,NA
"2342",60,"native",22,1,1,2,0,NA,NA
"2343",60,"native",23,1,1,5,0,NA,NA
"2344",60,"native",24,1,1,1,0,NA,NA
"2345",60,"native",25,1,1,3,0,NA,NA
"2346",60,"native",26,1,1,3,0,NA,NA
"2347",60,"native",27,1,1,1,0,NA,NA
"2348",60,"native",28,1,1,3,0,NA,NA
"2349",60,"native",29,1,1,6,0,NA,NA
"2350",60,"native",30,1,1,5,0,NA,NA
"2351",60,"native",31,1,1,1,0,NA,NA
"2352",60,"native",32,1,1,1,0,NA,NA
"2353",60,"native",33,1,1,2,0,NA,NA
"2354",60,"native",34,1,1,3,0,NA,NA
"2355",60,"native",35,1,1,4,0,NA,NA
"2356",60,"native",36,1,1,2,0,NA,NA
"2357",60,"native",37,1,1,1,0,NA,NA
"2358",60,"native",38,1,1,2,0,NA,NA
"2359",60,"native",39,1,1,4,0,NA,NA
"2360",60,"native",40,1,1,2,0,NA,NA
"2361",61,"native",1,1,1,6,1,NA,NA
"2362",61,"native",2,1,1,6,1,NA,NA
"2363",61,"native",3,1,1,6,1,NA,NA
"2364",61,"native",4,1,1,6,1,NA,NA
"2365",61,"native",5,1,1,5,1,NA,NA
"2366",61,"native",6,1,1,4,1,NA,NA
"2367",61,"native",7,1,1,5,1,NA,NA
"2368",61,"native",8,1,1,4,1,NA,NA
"2369",61,"native",9,1,1,6,1,NA,NA
"2370",61,"native",10,1,1,3,1,NA,NA
"2371",61,"native",11,1,1,3,1,NA,NA
"2372",61,"native",12,1,1,6,1,NA,NA
"2373",61,"native",13,1,1,6,1,NA,NA
"2374",61,"native",14,1,1,5,1,NA,NA
"2375",61,"native",15,1,1,2,1,NA,NA
"2376",61,"native",16,1,1,4,1,NA,NA
"2377",61,"native",17,1,1,4,1,NA,NA
"2378",61,"native",18,1,1,3,1,NA,NA
"2379",61,"native",19,1,1,1,1,NA,NA
"2380",61,"native",20,1,1,3,1,NA,NA
"2381",61,"native",21,1,1,3,0,NA,NA
"2382",61,"native",22,1,1,5,0,NA,NA
"2383",61,"native",23,1,1,4,0,NA,NA
"2384",61,"native",24,1,1,5,0,NA,NA
"2385",61,"native",25,1,1,4,0,NA,NA
"2386",61,"native",26,1,1,5,0,NA,NA
"2387",61,"native",27,1,1,4,0,NA,NA
"2388",61,"native",28,1,1,5,0,NA,NA
"2389",61,"native",29,1,1,5,0,NA,NA
"2390",61,"native",30,1,1,4,0,NA,NA
"2391",61,"native",31,1,1,6,0,NA,NA
"2392",61,"native",32,1,1,4,0,NA,NA
"2393",61,"native",33,1,1,5,0,NA,NA
"2394",61,"native",34,1,1,5,0,NA,NA
"2395",61,"native",35,1,1,4,0,NA,NA
"2396",61,"native",36,1,1,5,0,NA,NA
"2397",61,"native",37,1,1,1,0,NA,NA
"2398",61,"native",38,1,1,4,0,NA,NA
"2399",61,"native",39,1,1,3,0,NA,NA
"2400",61,"native",40,1,1,4,0,NA,NA
"2401",62,"native",1,1,1,3,1,NA,NA
"2402",62,"native",2,1,1,6,1,NA,NA
"2403",62,"native",3,1,1,4,1,NA,NA
"2404",62,"native",4,1,1,2,1,NA,NA
"2405",62,"native",5,1,1,4,1,NA,NA
"2406",62,"native",6,1,1,4,1,NA,NA
"2407",62,"native",7,1,1,4,1,NA,NA
"2408",62,"native",8,1,1,5,1,NA,NA
"2409",62,"native",9,1,1,2,1,NA,NA
"2410",62,"native",10,1,1,1,1,NA,NA
"2411",62,"native",11,1,1,6,1,NA,NA
"2412",62,"native",12,1,1,3,1,NA,NA
"2413",62,"native",13,1,1,2,1,NA,NA
"2414",62,"native",14,1,1,5,1,NA,NA
"2415",62,"native",15,1,1,1,1,NA,NA
"2416",62,"native",16,1,1,3,1,NA,NA
"2417",62,"native",17,1,1,6,1,NA,NA
"2418",62,"native",18,1,1,4,1,NA,NA
"2419",62,"native",19,1,1,3,1,NA,NA
"2420",62,"native",20,1,1,5,1,NA,NA
"2421",62,"native",21,1,1,4,0,NA,NA
"2422",62,"native",22,1,1,4,0,NA,NA
"2423",62,"native",23,1,1,4,0,NA,NA
"2424",62,"native",24,1,1,2,0,NA,NA
"2425",62,"native",25,1,1,4,0,NA,NA
"2426",62,"native",26,1,1,4,0,NA,NA
"2427",62,"native",27,1,1,2,0,NA,NA
"2428",62,"native",28,1,1,2,0,NA,NA
"2429",62,"native",29,1,1,3,0,NA,NA
"2430",62,"native",30,1,1,3,0,NA,NA
"2431",62,"native",31,1,1,2,0,NA,NA
"2432",62,"native",32,1,1,6,0,NA,NA
"2433",62,"native",33,1,1,5,0,NA,NA
"2434",62,"native",34,1,1,2,0,NA,NA
"2435",62,"native",35,1,1,4,0,NA,NA
"2436",62,"native",36,1,1,4,0,NA,NA
"2437",62,"native",37,1,1,1,0,NA,NA
"2438",62,"native",38,1,1,4,0,NA,NA
"2439",62,"native",39,1,1,5,0,NA,NA
"2440",62,"native",40,1,1,5,0,NA,NA
"2441",63,"native",1,1,1,5,1,NA,NA
"2442",63,"native",2,1,1,4,1,NA,NA
"2443",63,"native",3,1,1,5,1,NA,NA
"2444",63,"native",4,1,1,5,1,NA,NA
"2445",63,"native",5,1,1,4,1,NA,NA
"2446",63,"native",6,1,1,4,1,NA,NA
"2447",63,"native",7,1,1,4,1,NA,NA
"2448",63,"native",8,1,1,4,1,NA,NA
"2449",63,"native",9,1,1,5,1,NA,NA
"2450",63,"native",10,1,1,5,1,NA,NA
"2451",63,"native",11,1,1,5,1,NA,NA
"2452",63,"native",12,1,1,5,1,NA,NA
"2453",63,"native",13,1,1,5,1,NA,NA
"2454",63,"native",14,1,1,4,1,NA,NA
"2455",63,"native",15,1,1,5,1,NA,NA
"2456",63,"native",16,1,1,5,1,NA,NA
"2457",63,"native",17,1,1,5,1,NA,NA
"2458",63,"native",18,1,1,5,1,NA,NA
"2459",63,"native",19,1,1,4,1,NA,NA
"2460",63,"native",20,1,1,5,1,NA,NA
"2461",63,"native",21,1,1,6,0,NA,NA
"2462",63,"native",22,1,1,4,0,NA,NA
"2463",63,"native",23,1,1,4,0,NA,NA
"2464",63,"native",24,1,1,3,0,NA,NA
"2465",63,"native",25,1,1,5,0,NA,NA
"2466",63,"native",26,1,1,5,0,NA,NA
"2467",63,"native",27,1,1,4,0,NA,NA
"2468",63,"native",28,1,1,5,0,NA,NA
"2469",63,"native",29,1,1,5,0,NA,NA
"2470",63,"native",30,1,1,5,0,NA,NA
"2471",63,"native",31,1,1,4,0,NA,NA
"2472",63,"native",32,1,1,5,0,NA,NA
"2473",63,"native",33,1,1,5,0,NA,NA
"2474",63,"native",34,1,1,5,0,NA,NA
"2475",63,"native",35,1,1,4,0,NA,NA
"2476",63,"native",36,1,1,6,0,NA,NA
"2477",63,"native",37,1,1,4,0,NA,NA
"2478",63,"native",38,1,1,5,0,NA,NA
"2479",63,"native",39,1,1,5,0,NA,NA
"2480",63,"native",40,1,1,5,0,NA,NA
"2481",64,"native",1,1,1,4,1,NA,NA
"2482",64,"native",2,1,1,6,1,NA,NA
"2483",64,"native",3,1,1,5,1,NA,NA
"2484",64,"native",4,1,1,6,1,NA,NA
"2485",64,"native",5,1,1,6,1,NA,NA
"2486",64,"native",6,1,1,6,1,NA,NA
"2487",64,"native",7,1,1,6,1,NA,NA
"2488",64,"native",8,1,1,6,1,NA,NA
"2489",64,"native",9,1,1,6,1,NA,NA
"2490",64,"native",10,1,1,6,1,NA,NA
"2491",64,"native",11,1,1,1,1,NA,NA
"2492",64,"native",12,1,1,3,1,NA,NA
"2493",64,"native",13,1,1,6,1,NA,NA
"2494",64,"native",14,1,1,4,1,NA,NA
"2495",64,"native",15,1,1,1,1,NA,NA
"2496",64,"native",16,1,1,6,1,NA,NA
"2497",64,"native",17,1,1,6,1,NA,NA
"2498",64,"native",18,1,1,6,1,NA,NA
"2499",64,"native",19,1,1,1,1,NA,NA
"2500",64,"native",20,1,1,5,1,NA,NA
"2501",64,"native",21,1,1,6,0,NA,NA
"2502",64,"native",22,1,1,6,0,NA,NA
"2503",64,"native",23,1,1,6,0,NA,NA
"2504",64,"native",24,1,1,6,0,NA,NA
"2505",64,"native",25,1,1,6,0,NA,NA
"2506",64,"native",26,1,1,6,0,NA,NA
"2507",64,"native",27,1,1,5,0,NA,NA
"2508",64,"native",28,1,1,6,0,NA,NA
"2509",64,"native",29,1,1,6,0,NA,NA
"2510",64,"native",30,1,1,6,0,NA,NA
"2511",64,"native",31,1,1,6,0,NA,NA
"2512",64,"native",32,1,1,6,0,NA,NA
"2513",64,"native",33,1,1,1,0,NA,NA
"2514",64,"native",34,1,1,5,0,NA,NA
"2515",64,"native",35,1,1,1,0,NA,NA
"2516",64,"native",36,1,1,6,0,NA,NA
"2517",64,"native",37,1,1,1,0,NA,NA
"2518",64,"native",38,1,1,6,0,NA,NA
"2519",64,"native",39,1,1,6,0,NA,NA
"2520",64,"native",40,1,1,4,0,NA,NA
"2521",65,"native",1,1,1,5,1,NA,NA
"2522",65,"native",2,1,1,5,1,NA,NA
"2523",65,"native",3,1,1,5,1,NA,NA
"2524",65,"native",4,1,1,6,1,NA,NA
"2525",65,"native",5,1,1,5,1,NA,NA
"2526",65,"native",6,1,1,6,1,NA,NA
"2527",65,"native",7,1,1,5,1,NA,NA
"2528",65,"native",8,1,1,5,1,NA,NA
"2529",65,"native",9,1,1,2,1,NA,NA
"2530",65,"native",10,1,1,4,1,NA,NA
"2531",65,"native",11,1,1,1,1,NA,NA
"2532",65,"native",12,1,1,3,1,NA,NA
"2533",65,"native",13,1,1,5,1,NA,NA
"2534",65,"native",14,1,1,1,1,NA,NA
"2535",65,"native",15,1,1,1,1,NA,NA
"2536",65,"native",16,1,1,5,1,NA,NA
"2537",65,"native",17,1,1,5,1,NA,NA
"2538",65,"native",18,1,1,5,1,NA,NA
"2539",65,"native",19,1,1,5,1,NA,NA
"2540",65,"native",20,1,1,5,1,NA,NA
"2541",65,"native",21,1,1,5,0,NA,NA
"2542",65,"native",22,1,1,4,0,NA,NA
"2543",65,"native",23,1,1,4,0,NA,NA
"2544",65,"native",24,1,1,5,0,NA,NA
"2545",65,"native",25,1,1,6,0,NA,NA
"2546",65,"native",26,1,1,5,0,NA,NA
"2547",65,"native",27,1,1,5,0,NA,NA
"2548",65,"native",28,1,1,6,0,NA,NA
"2549",65,"native",29,1,1,5,0,NA,NA
"2550",65,"native",30,1,1,1,0,NA,NA
"2551",65,"native",31,1,1,4,0,NA,NA
"2552",65,"native",32,1,1,3,0,NA,NA
"2553",65,"native",33,1,1,5,0,NA,NA
"2554",65,"native",34,1,1,6,0,NA,NA
"2555",65,"native",35,1,1,4,0,NA,NA
"2556",65,"native",36,1,1,2,0,NA,NA
"2557",65,"native",37,1,1,1,0,NA,NA
"2558",65,"native",38,1,1,5,0,NA,NA
"2559",65,"native",39,1,1,5,0,NA,NA
"2560",65,"native",40,1,1,5,0,NA,NA
"2561",66,"native",1,1,1,3,1,NA,NA
"2562",66,"native",2,1,1,5,1,NA,NA
"2563",66,"native",3,1,1,6,1,NA,NA
"2564",66,"native",4,1,1,6,1,NA,NA
"2565",66,"native",5,1,1,4,1,NA,NA
"2566",66,"native",6,1,1,4,1,NA,NA
"2567",66,"native",7,1,1,6,1,NA,NA
"2568",66,"native",8,1,1,6,1,NA,NA
"2569",66,"native",9,1,1,6,1,NA,NA
"2570",66,"native",10,1,1,2,1,NA,NA
"2571",66,"native",11,1,1,6,1,NA,NA
"2572",66,"native",12,1,1,2,1,NA,NA
"2573",66,"native",13,1,1,6,1,NA,NA
"2574",66,"native",14,1,1,3,1,NA,NA
"2575",66,"native",15,1,1,2,1,NA,NA
"2576",66,"native",16,1,1,5,1,NA,NA
"2577",66,"native",17,1,1,3,1,NA,NA
"2578",66,"native",18,1,1,4,1,NA,NA
"2579",66,"native",19,1,1,3,1,NA,NA
"2580",66,"native",20,1,1,6,1,NA,NA
"2581",66,"native",21,1,1,1,0,NA,NA
"2582",66,"native",22,1,1,3,0,NA,NA
"2583",66,"native",23,1,1,4,0,NA,NA
"2584",66,"native",24,1,1,3,0,NA,NA
"2585",66,"native",25,1,1,3,0,NA,NA
"2586",66,"native",26,1,1,4,0,NA,NA
"2587",66,"native",27,1,1,3,0,NA,NA
"2588",66,"native",28,1,1,6,0,NA,NA
"2589",66,"native",29,1,1,4,0,NA,NA
"2590",66,"native",30,1,1,6,0,NA,NA
"2591",66,"native",31,1,1,3,0,NA,NA
"2592",66,"native",32,1,1,1,0,NA,NA
"2593",66,"native",33,1,1,3,0,NA,NA
"2594",66,"native",34,1,1,4,0,NA,NA
"2595",66,"native",35,1,1,3,0,NA,NA
"2596",66,"native",36,1,1,5,0,NA,NA
"2597",66,"native",37,1,1,1,0,NA,NA
"2598",66,"native",38,1,1,5,0,NA,NA
"2599",66,"native",39,1,1,4,0,NA,NA
"2600",66,"native",40,1,1,4,0,NA,NA
"2601",67,"native",1,1,1,5,1,NA,NA
"2602",67,"native",2,1,1,5,1,NA,NA
"2603",67,"native",3,1,1,1,1,NA,NA
"2604",67,"native",4,1,1,4,1,NA,NA
"2605",67,"native",5,1,1,1,1,NA,NA
"2606",67,"native",6,1,1,1,1,NA,NA
"2607",67,"native",7,1,1,6,1,NA,NA
"2608",67,"native",8,1,1,6,1,NA,NA
"2609",67,"native",9,1,1,3,1,NA,NA
"2610",67,"native",10,1,1,2,1,NA,NA
"2611",67,"native",11,1,1,5,1,NA,NA
"2612",67,"native",12,1,1,6,1,NA,NA
"2613",67,"native",13,1,1,1,1,NA,NA
"2614",67,"native",14,1,1,6,1,NA,NA
"2615",67,"native",15,1,1,6,1,NA,NA
"2616",67,"native",16,1,1,6,1,NA,NA
"2617",67,"native",17,1,1,1,1,NA,NA
"2618",67,"native",18,1,1,5,1,NA,NA
"2619",67,"native",19,1,1,4,1,NA,NA
"2620",67,"native",20,1,1,2,1,NA,NA
"2621",67,"native",21,1,1,1,0,NA,NA
"2622",67,"native",22,1,1,3,0,NA,NA
"2623",67,"native",23,1,1,3,0,NA,NA
"2624",67,"native",24,1,1,1,0,NA,NA
"2625",67,"native",25,1,1,1,0,NA,NA
"2626",67,"native",26,1,1,3,0,NA,NA
"2627",67,"native",27,1,1,4,0,NA,NA
"2628",67,"native",28,1,1,6,0,NA,NA
"2629",67,"native",29,1,1,2,0,NA,NA
"2630",67,"native",30,1,1,5,0,NA,NA
"2631",67,"native",31,1,1,1,0,NA,NA
"2632",67,"native",32,1,1,1,0,NA,NA
"2633",67,"native",33,1,1,5,0,NA,NA
"2634",67,"native",34,1,1,4,0,NA,NA
"2635",67,"native",35,1,1,6,0,NA,NA
"2636",67,"native",36,1,1,4,0,NA,NA
"2637",67,"native",37,1,1,1,0,NA,NA
"2638",67,"native",38,1,1,4,0,NA,NA
"2639",67,"native",39,1,1,2,0,NA,NA
"2640",67,"native",40,1,1,2,0,NA,NA
"2641",70,"native",1,1,1,6,1,NA,NA
"2642",70,"native",2,1,1,6,1,NA,NA
"2643",70,"native",3,1,1,3,1,NA,NA
"2644",70,"native",4,1,1,6,1,NA,NA
"2645",70,"native",5,1,1,6,1,NA,NA
"2646",70,"native",6,1,1,6,1,NA,NA
"2647",70,"native",7,1,1,6,1,NA,NA
"2648",70,"native",8,1,1,6,1,NA,NA
"2649",70,"native",9,1,1,6,1,NA,NA
"2650",70,"native",10,1,1,6,1,NA,NA
"2651",70,"native",11,1,1,6,1,NA,NA
"2652",70,"native",12,1,1,6,1,NA,NA
"2653",70,"native",13,1,1,6,1,NA,NA
"2654",70,"native",14,1,1,6,1,NA,NA
"2655",70,"native",15,1,1,6,1,NA,NA
"2656",70,"native",16,1,1,6,1,NA,NA
"2657",70,"native",17,1,1,6,1,NA,NA
"2658",70,"native",18,1,1,4,1,NA,NA
"2659",70,"native",19,1,1,1,1,NA,NA
"2660",70,"native",20,1,1,4,1,NA,NA
"2661",70,"native",21,1,1,5,0,NA,NA
"2662",70,"native",22,1,1,5,0,NA,NA
"2663",70,"native",23,1,1,3,0,NA,NA
"2664",70,"native",24,1,1,5,0,NA,NA
"2665",70,"native",25,1,1,3,0,NA,NA
"2666",70,"native",26,1,1,6,0,NA,NA
"2667",70,"native",27,1,1,4,0,NA,NA
"2668",70,"native",28,1,1,6,0,NA,NA
"2669",70,"native",29,1,1,4,0,NA,NA
"2670",70,"native",30,1,1,4,0,NA,NA
"2671",70,"native",31,1,1,4,0,NA,NA
"2672",70,"native",32,1,1,6,0,NA,NA
"2673",70,"native",33,1,1,4,0,NA,NA
"2674",70,"native",34,1,1,5,0,NA,NA
"2675",70,"native",35,1,1,4,0,NA,NA
"2676",70,"native",36,1,1,5,0,NA,NA
"2677",70,"native",37,1,1,2,0,NA,NA
"2678",70,"native",38,1,1,5,0,NA,NA
"2679",70,"native",39,1,1,5,0,NA,NA
"2680",70,"native",40,1,1,5,0,NA,NA
"2681",71,"native",1,1,1,5,1,NA,NA
"2682",71,"native",2,1,1,1,1,NA,NA
"2683",71,"native",3,1,1,2,1,NA,NA
"2684",71,"native",4,1,1,2,1,NA,NA
"2685",71,"native",5,1,1,6,1,NA,NA
"2686",71,"native",6,1,1,6,1,NA,NA
"2687",71,"native",7,1,1,6,1,NA,NA
"2688",71,"native",8,1,1,5,1,NA,NA
"2689",71,"native",9,1,1,6,1,NA,NA
"2690",71,"native",10,1,1,6,1,NA,NA
"2691",71,"native",11,1,1,3,1,NA,NA
"2692",71,"native",12,1,1,4,1,NA,NA
"2693",71,"native",13,1,1,5,1,NA,NA
"2694",71,"native",14,1,1,5,1,NA,NA
"2695",71,"native",15,1,1,6,1,NA,NA
"2696",71,"native",16,1,1,5,1,NA,NA
"2697",71,"native",17,1,1,6,1,NA,NA
"2698",71,"native",18,1,1,6,1,NA,NA
"2699",71,"native",19,1,1,5,1,NA,NA
"2700",71,"native",20,1,1,5,1,NA,NA
"2701",71,"native",21,1,1,2,0,NA,NA
"2702",71,"native",22,1,1,4,0,NA,NA
"2703",71,"native",23,1,1,5,0,NA,NA
"2704",71,"native",24,1,1,5,0,NA,NA
"2705",71,"native",25,1,1,3,0,NA,NA
"2706",71,"native",26,1,1,5,0,NA,NA
"2707",71,"native",27,1,1,3,0,NA,NA
"2708",71,"native",28,1,1,1,0,NA,NA
"2709",71,"native",29,1,1,5,0,NA,NA
"2710",71,"native",30,1,1,6,0,NA,NA
"2711",71,"native",31,1,1,5,0,NA,NA
"2712",71,"native",32,1,1,5,0,NA,NA
"2713",71,"native",33,1,1,5,0,NA,NA
"2714",71,"native",34,1,1,3,0,NA,NA
"2715",71,"native",35,1,1,5,0,NA,NA
"2716",71,"native",36,1,1,5,0,NA,NA
"2717",71,"native",37,1,1,1,0,NA,NA
"2718",71,"native",38,1,1,5,0,NA,NA
"2719",71,"native",39,1,1,3,0,NA,NA
"2720",71,"native",40,1,1,6,0,NA,NA
"2721",72,"native",1,1,1,5,1,NA,NA
"2722",72,"native",2,1,1,1,1,NA,NA
"2723",72,"native",3,1,1,4,1,NA,NA
"2724",72,"native",4,1,1,3,1,NA,NA
"2725",72,"native",5,1,1,3,1,NA,NA
"2726",72,"native",6,1,1,6,1,NA,NA
"2727",72,"native",7,1,1,4,1,NA,NA
"2728",72,"native",8,1,1,5,1,NA,NA
"2729",72,"native",9,1,1,6,1,NA,NA
"2730",72,"native",10,1,1,1,1,NA,NA
"2731",72,"native",11,1,1,6,1,NA,NA
"2732",72,"native",12,1,1,6,1,NA,NA
"2733",72,"native",13,1,1,6,1,NA,NA
"2734",72,"native",14,1,1,6,1,NA,NA
"2735",72,"native",15,1,1,6,1,NA,NA
"2736",72,"native",16,1,1,5,1,NA,NA
"2737",72,"native",17,1,1,6,1,NA,NA
"2738",72,"native",18,1,1,4,1,NA,NA
"2739",72,"native",19,1,1,6,1,NA,NA
"2740",72,"native",20,1,1,4,1,NA,NA
"2741",72,"native",21,1,1,4,0,NA,NA
"2742",72,"native",22,1,1,2,0,NA,NA
"2743",72,"native",23,1,1,4,0,NA,NA
"2744",72,"native",24,1,1,5,0,NA,NA
"2745",72,"native",25,1,1,3,0,NA,NA
"2746",72,"native",26,1,1,6,0,NA,NA
"2747",72,"native",27,1,1,5,0,NA,NA
"2748",72,"native",28,1,1,4,0,NA,NA
"2749",72,"native",29,1,1,4,0,NA,NA
"2750",72,"native",30,1,1,2,0,NA,NA
"2751",72,"native",31,1,1,4,0,NA,NA
"2752",72,"native",32,1,1,6,0,NA,NA
"2753",72,"native",33,1,1,5,0,NA,NA
"2754",72,"native",34,1,1,4,0,NA,NA
"2755",72,"native",35,1,1,3,0,NA,NA
"2756",72,"native",36,1,1,3,0,NA,NA
"2757",72,"native",37,1,1,2,0,NA,NA
"2758",72,"native",38,1,1,5,0,NA,NA
"2759",72,"native",39,1,1,3,0,NA,NA
"2760",72,"native",40,1,1,3,0,NA,NA
"2761",73,"native",1,1,1,5,1,NA,NA
"2762",73,"native",2,1,1,3,1,NA,NA
"2763",73,"native",3,1,1,6,1,NA,NA
"2764",73,"native",4,1,1,5,1,NA,NA
"2765",73,"native",5,1,1,4,1,NA,NA
"2766",73,"native",6,1,1,6,1,NA,NA
"2767",73,"native",7,1,1,5,1,NA,NA
"2768",73,"native",8,1,1,5,1,NA,NA
"2769",73,"native",9,1,1,6,1,NA,NA
"2770",73,"native",10,1,1,6,1,NA,NA
"2771",73,"native",11,1,1,5,1,NA,NA
"2772",73,"native",12,1,1,6,1,NA,NA
"2773",73,"native",13,1,1,6,1,NA,NA
"2774",73,"native",14,1,1,6,1,NA,NA
"2775",73,"native",15,1,1,5,1,NA,NA
"2776",73,"native",16,1,1,6,1,NA,NA
"2777",73,"native",17,1,1,6,1,NA,NA
"2778",73,"native",18,1,1,5,1,NA,NA
"2779",73,"native",19,1,1,5,1,NA,NA
"2780",73,"native",20,1,1,6,1,NA,NA
"2781",73,"native",21,1,1,3,0,NA,NA
"2782",73,"native",22,1,1,5,0,NA,NA
"2783",73,"native",23,1,1,5,0,NA,NA
"2784",73,"native",24,1,1,2,0,NA,NA
"2785",73,"native",25,1,1,5,0,NA,NA
"2786",73,"native",26,1,1,5,0,NA,NA
"2787",73,"native",27,1,1,4,0,NA,NA
"2788",73,"native",28,1,1,6,0,NA,NA
"2789",73,"native",29,1,1,4,0,NA,NA
"2790",73,"native",30,1,1,5,0,NA,NA
"2791",73,"native",31,1,1,5,0,NA,NA
"2792",73,"native",32,1,1,5,0,NA,NA
"2793",73,"native",33,1,1,5,0,NA,NA
"2794",73,"native",34,1,1,2,0,NA,NA
"2795",73,"native",35,1,1,2,0,NA,NA
"2796",73,"native",36,1,1,2,0,NA,NA
"2797",73,"native",37,1,1,1,0,NA,NA
"2798",73,"native",38,1,1,5,0,NA,NA
"2799",73,"native",39,1,1,5,0,NA,NA
"2800",73,"native",40,1,1,4,0,NA,NA
"2801",74,"native",1,1,1,2,1,NA,NA
"2802",74,"native",2,1,1,5,1,NA,NA
"2803",74,"native",3,1,1,3,1,NA,NA
"2804",74,"native",4,1,1,2,1,NA,NA
"2805",74,"native",5,1,1,6,1,NA,NA
"2806",74,"native",6,1,1,4,1,NA,NA
"2807",74,"native",7,1,1,4,1,NA,NA
"2808",74,"native",8,1,1,4,1,NA,NA
"2809",74,"native",9,1,1,2,1,NA,NA
"2810",74,"native",10,1,1,2,1,NA,NA
"2811",74,"native",11,1,1,3,1,NA,NA
"2812",74,"native",12,1,1,6,1,NA,NA
"2813",74,"native",13,1,1,3,1,NA,NA
"2814",74,"native",14,1,1,5,1,NA,NA
"2815",74,"native",15,1,1,1,1,NA,NA
"2816",74,"native",16,1,1,4,1,NA,NA
"2817",74,"native",17,1,1,4,1,NA,NA
"2818",74,"native",18,1,1,2,1,NA,NA
"2819",74,"native",19,1,1,4,1,NA,NA
"2820",74,"native",20,1,1,3,1,NA,NA
"2821",74,"native",21,1,1,3,0,NA,NA
"2822",74,"native",22,1,1,3,0,NA,NA
"2823",74,"native",23,1,1,2,0,NA,NA
"2824",74,"native",24,1,1,4,0,NA,NA
"2825",74,"native",25,1,1,3,0,NA,NA
"2826",74,"native",26,1,1,2,0,NA,NA
"2827",74,"native",27,1,1,5,0,NA,NA
"2828",74,"native",28,1,1,4,0,NA,NA
"2829",74,"native",29,1,1,5,0,NA,NA
"2830",74,"native",30,1,1,3,0,NA,NA
"2831",74,"native",31,1,1,5,0,NA,NA
"2832",74,"native",32,1,1,3,0,NA,NA
