"","subject","between_identifier","statement_identifier","presentation_identifier","within_identifier","response","repeated","rt","trial"
"1",1,"second",1,1,1,6,1,NA,NA
"2",1,"second",2,1,1,5,1,NA,NA
"3",1,"second",3,1,1,3,1,NA,NA
"4",1,"second",4,1,1,3,1,NA,NA
"5",1,"second",5,1,1,1,1,NA,NA
"6",1,"second",6,1,1,3,1,NA,NA
"7",1,"second",7,1,1,4,1,NA,NA
"8",1,"second",8,1,1,4,1,NA,NA
"9",1,"second",9,1,1,3,1,NA,NA
"10",1,"second",10,1,1,6,1,NA,NA
"11",1,"second",11,1,1,1,1,NA,NA
"12",1,"second",12,1,1,3,1,NA,NA
"13",1,"second",13,1,1,6,1,NA,NA
"14",1,"second",14,1,1,3,1,NA,NA
"15",1,"second",15,1,1,4,1,NA,NA
"16",1,"second",16,1,1,4,1,NA,NA
"17",1,"second",17,1,1,4,1,NA,NA
"18",1,"second",18,1,1,6,1,NA,NA
"19",1,"second",19,1,1,3,1,NA,NA
"20",1,"second",20,1,1,3,1,NA,NA
"21",1,"second",21,1,1,4,0,NA,NA
"22",1,"second",22,1,1,4,0,NA,NA
"23",1,"second",23,1,1,6,0,NA,NA
"24",1,"second",24,1,1,4,0,NA,NA
"25",1,"second",25,1,1,4,0,NA,NA
"26",1,"second",26,1,1,4,0,NA,NA
"27",1,"second",27,1,1,3,0,NA,NA
"28",1,"second",28,1,1,3,0,NA,NA
"29",1,"second",29,1,1,4,0,NA,NA
"30",1,"second",30,1,1,4,0,NA,NA
"31",1,"second",31,1,1,4,0,NA,NA
"32",1,"second",32,1,1,5,0,NA,NA
"33",1,"second",33,1,1,3,0,NA,NA
"34",1,"second",34,1,1,3,0,NA,NA
"35",1,"second",35,1,1,4,0,NA,NA
"36",1,"second",36,1,1,4,0,NA,NA
"37",1,"second",37,1,1,4,0,NA,NA
"38",1,"second",38,1,1,2,0,NA,NA
"39",1,"second",39,1,1,4,0,NA,NA
"40",1,"second",40,1,1,3,0,NA,NA
"41",2,"second",1,1,1,6,1,NA,NA
"42",2,"second",2,1,1,5,1,NA,NA
"43",2,"second",3,1,1,3,1,NA,NA
"44",2,"second",4,1,1,3,1,NA,NA
"45",2,"second",5,1,1,4,1,NA,NA
"46",2,"second",6,1,1,5,1,NA,NA
"47",2,"second",7,1,1,6,1,NA,NA
"48",2,"second",8,1,1,4,1,NA,NA
"49",2,"second",9,1,1,6,1,NA,NA
"50",2,"second",10,1,1,6,1,NA,NA
"51",2,"second",11,1,1,6,1,NA,NA
"52",2,"second",12,1,1,4,1,NA,NA
"53",2,"second",13,1,1,5,1,NA,NA
"54",2,"second",14,1,1,5,1,NA,NA
"55",2,"second",15,1,1,6,1,NA,NA
"56",2,"second",16,1,1,6,1,NA,NA
"57",2,"second",17,1,1,6,1,NA,NA
"58",2,"second",18,1,1,5,1,NA,NA
"59",2,"second",19,1,1,4,1,NA,NA
"60",2,"second",20,1,1,3,1,NA,NA
"61",2,"second",21,1,1,2,0,NA,NA
"62",2,"second",22,1,1,3,0,NA,NA
"63",2,"second",23,1,1,3,0,NA,NA
"64",2,"second",24,1,1,3,0,NA,NA
"65",2,"second",25,1,1,3,0,NA,NA
"66",2,"second",26,1,1,4,0,NA,NA
"67",2,"second",27,1,1,3,0,NA,NA
"68",2,"second",28,1,1,5,0,NA,NA
"69",2,"second",29,1,1,6,0,NA,NA
"70",2,"second",30,1,1,4,0,NA,NA
"71",2,"second",31,1,1,3,0,NA,NA
"72",2,"second",32,1,1,3,0,NA,NA
"73",2,"second",33,1,1,4,0,NA,NA
"74",2,"second",34,1,1,3,0,NA,NA
"75",2,"second",35,1,1,4,0,NA,NA
"76",2,"second",36,1,1,4,0,NA,NA
"77",2,"second",37,1,1,2,0,NA,NA
"78",2,"second",38,1,1,3,0,NA,NA
"79",2,"second",39,1,1,3,0,NA,NA
"80",2,"second",40,1,1,3,0,NA,NA
"81",3,"second",1,1,1,4,1,NA,NA
"82",3,"second",2,1,1,1,1,NA,NA
"83",3,"second",3,1,1,6,1,NA,NA
"84",3,"second",4,1,1,3,1,NA,NA
"85",3,"second",5,1,1,6,1,NA,NA
"86",3,"second",6,1,1,3,1,NA,NA
"87",3,"second",7,1,1,5,1,NA,NA
"88",3,"second",8,1,1,4,1,NA,NA
"89",3,"second",9,1,1,4,1,NA,NA
"90",3,"second",10,1,1,2,1,NA,NA
"91",3,"second",11,1,1,2,1,NA,NA
"92",3,"second",12,1,1,5,1,NA,NA
"93",3,"second",13,1,1,4,1,NA,NA
"94",3,"second",14,1,1,5,1,NA,NA
"95",3,"second",15,1,1,5,1,NA,NA
"96",3,"second",16,1,1,5,1,NA,NA
"97",3,"second",17,1,1,5,1,NA,NA
"98",3,"second",18,1,1,3,1,NA,NA
"99",3,"second",19,1,1,3,1,NA,NA
"100",3,"second",20,1,1,4,1,NA,NA
"101",3,"second",21,1,1,4,0,NA,NA
"102",3,"second",22,1,1,5,0,NA,NA
"103",3,"second",23,1,1,4,0,NA,NA
"104",3,"second",24,1,1,4,0,NA,NA
"105",3,"second",25,1,1,4,0,NA,NA
"106",3,"second",26,1,1,6,0,NA,NA
"107",3,"second",27,1,1,5,0,NA,NA
"108",3,"second",28,1,1,2,0,NA,NA
"109",3,"second",29,1,1,5,0,NA,NA
"110",3,"second",30,1,1,5,0,NA,NA
"111",3,"second",31,1,1,5,0,NA,NA
"112",3,"second",32,1,1,4,0,NA,NA
"113",3,"second",33,1,1,4,0,NA,NA
"114",3,"second",34,1,1,3,0,NA,NA
"115",3,"second",35,1,1,3,0,NA,NA
"116",3,"second",36,1,1,3,0,NA,NA
"117",3,"second",37,1,1,2,0,NA,NA
"118",3,"second",38,1,1,5,0,NA,NA
"119",3,"second",39,1,1,3,0,NA,NA
"120",3,"second",40,1,1,5,0,NA,NA
"121",4,"second",1,1,1,6,1,NA,NA
"122",4,"second",2,1,1,2,1,NA,NA
"123",4,"second",3,1,1,4,1,NA,NA
"124",4,"second",4,1,1,2,1,NA,NA
"125",4,"second",5,1,1,3,1,NA,NA
"126",4,"second",6,1,1,6,1,NA,NA
"127",4,"second",7,1,1,6,1,NA,NA
"128",4,"second",8,1,1,6,1,NA,NA
"129",4,"second",9,1,1,6,1,NA,NA
"130",4,"second",10,1,1,4,1,NA,NA
"131",4,"second",11,1,1,6,1,NA,NA
"132",4,"second",12,1,1,6,1,NA,NA
"133",4,"second",13,1,1,6,1,NA,NA
"134",4,"second",14,1,1,6,1,NA,NA
"135",4,"second",15,1,1,6,1,NA,NA
"136",4,"second",16,1,1,5,1,NA,NA
"137",4,"second",17,1,1,6,1,NA,NA
"138",4,"second",18,1,1,6,1,NA,NA
"139",4,"second",19,1,1,5,1,NA,NA
"140",4,"second",20,1,1,6,1,NA,NA
"141",4,"second",21,1,1,1,0,NA,NA
"142",4,"second",22,1,1,5,0,NA,NA
"143",4,"second",23,1,1,5,0,NA,NA
"144",4,"second",24,1,1,4,0,NA,NA
"145",4,"second",25,1,1,4,0,NA,NA
"146",4,"second",26,1,1,5,0,NA,NA
"147",4,"second",27,1,1,3,0,NA,NA
"148",4,"second",28,1,1,5,0,NA,NA
"149",4,"second",29,1,1,2,0,NA,NA
"150",4,"second",30,1,1,3,0,NA,NA
"151",4,"second",31,1,1,4,0,NA,NA
"152",4,"second",32,1,1,5,0,NA,NA
"153",4,"second",33,1,1,5,0,NA,NA
"154",4,"second",34,1,1,4,0,NA,NA
"155",4,"second",35,1,1,4,0,NA,NA
"156",4,"second",36,1,1,4,0,NA,NA
"157",4,"second",37,1,1,3,0,NA,NA
"158",4,"second",38,1,1,4,0,NA,NA
"159",4,"second",39,1,1,2,0,NA,NA
"160",4,"second",40,1,1,3,0,NA,NA
"161",5,"second",1,1,1,6,1,NA,NA
"162",5,"second",2,1,1,6,1,NA,NA
"163",5,"second",3,1,1,4,1,NA,NA
"164",5,"second",4,1,1,5,1,NA,NA
"165",5,"second",5,1,1,5,1,NA,NA
"166",5,"second",6,1,1,6,1,NA,NA
"167",5,"second",7,1,1,5,1,NA,NA
"168",5,"second",8,1,1,5,1,NA,NA
"169",5,"second",9,1,1,6,1,NA,NA
"170",5,"second",10,1,1,2,1,NA,NA
"171",5,"second",11,1,1,5,1,NA,NA
"172",5,"second",12,1,1,5,1,NA,NA
"173",5,"second",13,1,1,5,1,NA,NA
"174",5,"second",14,1,1,4,1,NA,NA
"175",5,"second",15,1,1,3,1,NA,NA
"176",5,"second",16,1,1,2,1,NA,NA
"177",5,"second",17,1,1,2,1,NA,NA
"178",5,"second",18,1,1,6,1,NA,NA
"179",5,"second",19,1,1,4,1,NA,NA
"180",5,"second",20,1,1,4,1,NA,NA
"181",5,"second",21,1,1,1,0,NA,NA
"182",5,"second",22,1,1,4,0,NA,NA
"183",5,"second",23,1,1,4,0,NA,NA
"184",5,"second",24,1,1,3,0,NA,NA
"185",5,"second",25,1,1,3,0,NA,NA
"186",5,"second",26,1,1,4,0,NA,NA
"187",5,"second",27,1,1,3,0,NA,NA
"188",5,"second",28,1,1,5,0,NA,NA
"189",5,"second",29,1,1,3,0,NA,NA
"190",5,"second",30,1,1,4,0,NA,NA
"191",5,"second",31,1,1,4,0,NA,NA
"192",5,"second",32,1,1,4,0,NA,NA
"193",5,"second",33,1,1,3,0,NA,NA
"194",5,"second",34,1,1,6,0,NA,NA
"195",5,"second",35,1,1,4,0,NA,NA
"196",5,"second",36,1,1,3,0,NA,NA
"197",5,"second",37,1,1,4,0,NA,NA
"198",5,"second",38,1,1,5,0,NA,NA
"199",5,"second",39,1,1,1,0,NA,NA
"200",5,"second",40,1,1,4,0,NA,NA
"201",6,"second",1,1,1,6,1,NA,NA
"202",6,"second",2,1,1,6,1,NA,NA
"203",6,"second",3,1,1,6,1,NA,NA
"204",6,"second",4,1,1,6,1,NA,NA
"205",6,"second",5,1,1,6,1,NA,NA
"206",6,"second",6,1,1,3,1,NA,NA
"207",6,"second",7,1,1,6,1,NA,NA
"208",6,"second",8,1,1,6,1,NA,NA
"209",6,"second",9,1,1,6,1,NA,NA
"210",6,"second",10,1,1,6,1,NA,NA
"211",6,"second",11,1,1,6,1,NA,NA
"212",6,"second",12,1,1,1,1,NA,NA
"213",6,"second",13,1,1,6,1,NA,NA
"214",6,"second",14,1,1,6,1,NA,NA
"215",6,"second",15,1,1,6,1,NA,NA
"216",6,"second",16,1,1,6,1,NA,NA
"217",6,"second",17,1,1,6,1,NA,NA
"218",6,"second",18,1,1,5,1,NA,NA
"219",6,"second",19,1,1,6,1,NA,NA
"220",6,"second",20,1,1,5,1,NA,NA
"221",6,"second",21,1,1,1,0,NA,NA
"222",6,"second",22,1,1,5,0,NA,NA
"223",6,"second",23,1,1,5,0,NA,NA
"224",6,"second",24,1,1,3,0,NA,NA
"225",6,"second",25,1,1,1,0,NA,NA
"226",6,"second",26,1,1,5,0,NA,NA
"227",6,"second",27,1,1,5,0,NA,NA
"228",6,"second",28,1,1,1,0,NA,NA
"229",6,"second",29,1,1,6,0,NA,NA
"230",6,"second",30,1,1,6,0,NA,NA
"231",6,"second",31,1,1,3,0,NA,NA
"232",6,"second",32,1,1,1,0,NA,NA
"233",6,"second",33,1,1,5,0,NA,NA
"234",6,"second",34,1,1,3,0,NA,NA
"235",6,"second",35,1,1,3,0,NA,NA
"236",6,"second",36,1,1,1,0,NA,NA
"237",6,"second",37,1,1,1,0,NA,NA
"238",6,"second",38,1,1,6,0,NA,NA
"239",6,"second",39,1,1,3,0,NA,NA
"240",6,"second",40,1,1,5,0,NA,NA
"241",7,"second",1,1,1,6,1,NA,NA
"242",7,"second",2,1,1,6,1,NA,NA
"243",7,"second",3,1,1,2,1,NA,NA
"244",7,"second",4,1,1,5,1,NA,NA
"245",7,"second",5,1,1,4,1,NA,NA
"246",7,"second",6,1,1,5,1,NA,NA
"247",7,"second",7,1,1,5,1,NA,NA
"248",7,"second",8,1,1,6,1,NA,NA
"249",7,"second",9,1,1,5,1,NA,NA
"250",7,"second",10,1,1,6,1,NA,NA
"251",7,"second",11,1,1,5,1,NA,NA
"252",7,"second",12,1,1,6,1,NA,NA
"253",7,"second",13,1,1,6,1,NA,NA
"254",7,"second",14,1,1,6,1,NA,NA
"255",7,"second",15,1,1,6,1,NA,NA
"256",7,"second",16,1,1,6,1,NA,NA
"257",7,"second",17,1,1,6,1,NA,NA
"258",7,"second",18,1,1,5,1,NA,NA
"259",7,"second",19,1,1,5,1,NA,NA
"260",7,"second",20,1,1,5,1,NA,NA
"261",7,"second",21,1,1,2,0,NA,NA
"262",7,"second",22,1,1,4,0,NA,NA
"263",7,"second",23,1,1,4,0,NA,NA
"264",7,"second",24,1,1,2,0,NA,NA
"265",7,"second",25,1,1,6,0,NA,NA
"266",7,"second",26,1,1,4,0,NA,NA
"267",7,"second",27,1,1,4,0,NA,NA
"268",7,"second",28,1,1,5,0,NA,NA
"269",7,"second",29,1,1,5,0,NA,NA
"270",7,"second",30,1,1,3,0,NA,NA
"271",7,"second",31,1,1,2,0,NA,NA
"272",7,"second",32,1,1,4,0,NA,NA
"273",7,"second",33,1,1,1,0,NA,NA
"274",7,"second",34,1,1,2,0,NA,NA
"275",7,"second",35,1,1,3,0,NA,NA
"276",7,"second",36,1,1,3,0,NA,NA
"277",7,"second",37,1,1,3,0,NA,NA
"278",7,"second",38,1,1,4,0,NA,NA
"279",7,"second",39,1,1,2,0,NA,NA
"280",7,"second",40,1,1,3,0,NA,NA
"281",8,"second",1,1,1,4,1,NA,NA
"282",8,"second",2,1,1,6,1,NA,NA
"283",8,"second",3,1,1,5,1,NA,NA
"284",8,"second",4,1,1,6,1,NA,NA
"285",8,"second",5,1,1,6,1,NA,NA
"286",8,"second",6,1,1,6,1,NA,NA
"287",8,"second",7,1,1,5,1,NA,NA
"288",8,"second",8,1,1,6,1,NA,NA
"289",8,"second",9,1,1,6,1,NA,NA
"290",8,"second",10,1,1,4,1,NA,NA
"291",8,"second",11,1,1,6,1,NA,NA
"292",8,"second",12,1,1,6,1,NA,NA
"293",8,"second",13,1,1,6,1,NA,NA
"294",8,"second",14,1,1,5,1,NA,NA
"295",8,"second",15,1,1,6,1,NA,NA
"296",8,"second",16,1,1,6,1,NA,NA
"297",8,"second",17,1,1,6,1,NA,NA
"298",8,"second",18,1,1,6,1,NA,NA
"299",8,"second",19,1,1,5,1,NA,NA
"300",8,"second",20,1,1,4,1,NA,NA
"301",8,"second",21,1,1,2,0,NA,NA
"302",8,"second",22,1,1,3,0,NA,NA
"303",8,"second",23,1,1,3,0,NA,NA
"304",8,"second",24,1,1,2,0,NA,NA
"305",8,"second",25,1,1,5,0,NA,NA
"306",8,"second",26,1,1,2,0,NA,NA
"307",8,"second",27,1,1,5,0,NA,NA
"308",8,"second",28,1,1,4,0,NA,NA
"309",8,"second",29,1,1,6,0,NA,NA
"310",8,"second",30,1,1,5,0,NA,NA
"311",8,"second",31,1,1,3,0,NA,NA
"312",8,"second",32,1,1,4,0,NA,NA
"313",8,"second",33,1,1,4,0,NA,NA
"314",8,"second",34,1,1,4,0,NA,NA
"315",8,"second",35,1,1,4,0,NA,NA
"316",8,"second",36,1,1,3,0,NA,NA
"317",8,"second",37,1,1,3,0,NA,NA
"318",8,"second",38,1,1,4,0,NA,NA
"319",8,"second",39,1,1,4,0,NA,NA
"320",8,"second",40,1,1,3,0,NA,NA
"321",9,"second",1,1,1,6,1,NA,NA
"322",9,"second",2,1,1,6,1,NA,NA
"323",9,"second",3,1,1,5,1,NA,NA
"324",9,"second",4,1,1,4,1,NA,NA
"325",9,"second",5,1,1,1,1,NA,NA
"326",9,"second",6,1,1,6,1,NA,NA
"327",9,"second",7,1,1,4,1,NA,NA
"328",9,"second",8,1,1,6,1,NA,NA
"329",9,"second",9,1,1,5,1,NA,NA
"330",9,"second",10,1,1,5,1,NA,NA
"331",9,"second",11,1,1,5,1,NA,NA
"332",9,"second",12,1,1,6,1,NA,NA
"333",9,"second",13,1,1,6,1,NA,NA
"334",9,"second",14,1,1,5,1,NA,NA
"335",9,"second",15,1,1,1,1,NA,NA
"336",9,"second",16,1,1,2,1,NA,NA
"337",9,"second",17,1,1,6,1,NA,NA
"338",9,"second",18,1,1,5,1,NA,NA
"339",9,"second",19,1,1,6,1,NA,NA
"340",9,"second",20,1,1,5,1,NA,NA
"341",9,"second",21,1,1,1,0,NA,NA
"342",9,"second",22,1,1,4,0,NA,NA
"343",9,"second",23,1,1,5,0,NA,NA
"344",9,"second",24,1,1,2,0,NA,NA
"345",9,"second",25,1,1,4,0,NA,NA
"346",9,"second",26,1,1,5,0,NA,NA
"347",9,"second",27,1,1,3,0,NA,NA
"348",9,"second",28,1,1,4,0,NA,NA
"349",9,"second",29,1,1,6,0,NA,NA
"350",9,"second",30,1,1,6,0,NA,NA
"351",9,"second",31,1,1,4,0,NA,NA
"352",9,"second",32,1,1,6,0,NA,NA
"353",9,"second",33,1,1,4,0,NA,NA
"354",9,"second",34,1,1,4,0,NA,NA
"355",9,"second",35,1,1,3,0,NA,NA
"356",9,"second",36,1,1,3,0,NA,NA
"357",9,"second",37,1,1,2,0,NA,NA
"358",9,"second",38,1,1,3,0,NA,NA
"359",9,"second",39,1,1,2,0,NA,NA
"360",9,"second",40,1,1,4,0,NA,NA
"361",10,"second",1,1,1,5,1,NA,NA
"362",10,"second",2,1,1,6,1,NA,NA
"363",10,"second",3,1,1,2,1,NA,NA
"364",10,"second",4,1,1,5,1,NA,NA
"365",10,"second",5,1,1,2,1,NA,NA
"366",10,"second",6,1,1,5,1,NA,NA
"367",10,"second",7,1,1,5,1,NA,NA
"368",10,"second",8,1,1,5,1,NA,NA
"369",10,"second",9,1,1,5,1,NA,NA
"370",10,"second",10,1,1,3,1,NA,NA
"371",10,"second",11,1,1,4,1,NA,NA
"372",10,"second",12,1,1,3,1,NA,NA
"373",10,"second",13,1,1,6,1,NA,NA
"374",10,"second",14,1,1,4,1,NA,NA
"375",10,"second",15,1,1,6,1,NA,NA
"376",10,"second",16,1,1,3,1,NA,NA
"377",10,"second",17,1,1,2,1,NA,NA
"378",10,"second",18,1,1,5,1,NA,NA
"379",10,"second",19,1,1,4,1,NA,NA
"380",10,"second",20,1,1,3,1,NA,NA
"381",10,"second",21,1,1,1,0,NA,NA
"382",10,"second",22,1,1,4,0,NA,NA
"383",10,"second",23,1,1,5,0,NA,NA
"384",10,"second",24,1,1,3,0,NA,NA
"385",10,"second",25,1,1,2,0,NA,NA
"386",10,"second",26,1,1,6,0,NA,NA
"387",10,"second",27,1,1,4,0,NA,NA
"388",10,"second",28,1,1,5,0,NA,NA
"389",10,"second",29,1,1,5,0,NA,NA
"390",10,"second",30,1,1,5,0,NA,NA
"391",10,"second",31,1,1,4,0,NA,NA
"392",10,"second",32,1,1,3,0,NA,NA
"393",10,"second",33,1,1,5,0,NA,NA
"394",10,"second",34,1,1,3,0,NA,NA
"395",10,"second",35,1,1,3,0,NA,NA
"396",10,"second",36,1,1,4,0,NA,NA
"397",10,"second",37,1,1,5,0,NA,NA
"398",10,"second",38,1,1,4,0,NA,NA
"399",10,"second",39,1,1,5,0,NA,NA
"400",10,"second",40,1,1,3,0,NA,NA
"401",11,"second",1,1,1,4,1,NA,NA
"402",11,"second",2,1,1,1,1,NA,NA
"403",11,"second",3,1,1,2,1,NA,NA
"404",11,"second",4,1,1,2,1,NA,NA
"405",11,"second",5,1,1,2,1,NA,NA
"406",11,"second",6,1,1,5,1,NA,NA
"407",11,"second",7,1,1,5,1,NA,NA
"408",11,"second",8,1,1,4,1,NA,NA
"409",11,"second",9,1,1,4,1,NA,NA
"410",11,"second",10,1,1,4,1,NA,NA
"411",11,"second",11,1,1,6,1,NA,NA
"412",11,"second",12,1,1,5,1,NA,NA
"413",11,"second",13,1,1,5,1,NA,NA
"414",11,"second",14,1,1,4,1,NA,NA
"415",11,"second",15,1,1,2,1,NA,NA
"416",11,"second",16,1,1,2,1,NA,NA
"417",11,"second",17,1,1,3,1,NA,NA
"418",11,"second",18,1,1,5,1,NA,NA
"419",11,"second",19,1,1,5,1,NA,NA
"420",11,"second",20,1,1,4,1,NA,NA
"421",11,"second",21,1,1,4,0,NA,NA
"422",11,"second",22,1,1,5,0,NA,NA
"423",11,"second",23,1,1,5,0,NA,NA
"424",11,"second",24,1,1,4,0,NA,NA
"425",11,"second",25,1,1,5,0,NA,NA
"426",11,"second",26,1,1,5,0,NA,NA
"427",11,"second",27,1,1,4,0,NA,NA
"428",11,"second",28,1,1,5,0,NA,NA
"429",11,"second",29,1,1,3,0,NA,NA
"430",11,"second",30,1,1,5,0,NA,NA
"431",11,"second",31,1,1,4,0,NA,NA
"432",11,"second",32,1,1,5,0,NA,NA
"433",11,"second",33,1,1,5,0,NA,NA
"434",11,"second",34,1,1,1,0,NA,NA
"435",11,"second",35,1,1,2,0,NA,NA
"436",11,"second",36,1,1,3,0,NA,NA
"437",11,"second",37,1,1,5,0,NA,NA
"438",11,"second",38,1,1,5,0,NA,NA
"439",11,"second",39,1,1,2,0,NA,NA
"440",11,"second",40,1,1,5,0,NA,NA
"441",13,"second",1,1,1,6,1,NA,NA
"442",13,"second",2,1,1,6,1,NA,NA
"443",13,"second",3,1,1,3,1,NA,NA
"444",13,"second",4,1,1,6,1,NA,NA
"445",13,"second",5,1,1,6,1,NA,NA
"446",13,"second",6,1,1,6,1,NA,NA
"447",13,"second",7,1,1,3,1,NA,NA
"448",13,"second",8,1,1,3,1,NA,NA
"449",13,"second",9,1,1,4,1,NA,NA
"450",13,"second",10,1,1,2,1,NA,NA
"451",13,"second",11,1,1,3,1,NA,NA
"452",13,"second",12,1,1,6,1,NA,NA
"453",13,"second",13,1,1,6,1,NA,NA
"454",13,"second",14,1,1,3,1,NA,NA
"455",13,"second",15,1,1,6,1,NA,NA
"456",13,"second",16,1,1,3,1,NA,NA
"457",13,"second",17,1,1,1,1,NA,NA
"458",13,"second",18,1,1,6,1,NA,NA
"459",13,"second",19,1,1,6,1,NA,NA
"460",13,"second",20,1,1,3,1,NA,NA
"461",13,"second",21,1,1,1,0,NA,NA
"462",13,"second",22,1,1,3,0,NA,NA
"463",13,"second",23,1,1,3,0,NA,NA
"464",13,"second",24,1,1,3,0,NA,NA
"465",13,"second",25,1,1,5,0,NA,NA
"466",13,"second",26,1,1,4,0,NA,NA
"467",13,"second",27,1,1,2,0,NA,NA
"468",13,"second",28,1,1,5,0,NA,NA
"469",13,"second",29,1,1,3,0,NA,NA
"470",13,"second",30,1,1,6,0,NA,NA
"471",13,"second",31,1,1,3,0,NA,NA
"472",13,"second",32,1,1,3,0,NA,NA
"473",13,"second",33,1,1,3,0,NA,NA
"474",13,"second",34,1,1,1,0,NA,NA
"475",13,"second",35,1,1,3,0,NA,NA
"476",13,"second",36,1,1,3,0,NA,NA
"477",13,"second",37,1,1,1,0,NA,NA
"478",13,"second",38,1,1,3,0,NA,NA
"479",13,"second",39,1,1,6,0,NA,NA
"480",13,"second",40,1,1,3,0,NA,NA
"481",14,"second",1,1,1,5,1,NA,NA
"482",14,"second",2,1,1,6,1,NA,NA
"483",14,"second",3,1,1,4,1,NA,NA
"484",14,"second",4,1,1,4,1,NA,NA
"485",14,"second",5,1,1,5,1,NA,NA
"486",14,"second",6,1,1,6,1,NA,NA
"487",14,"second",7,1,1,4,1,NA,NA
"488",14,"second",8,1,1,5,1,NA,NA
"489",14,"second",9,1,1,5,1,NA,NA
"490",14,"second",10,1,1,1,1,NA,NA
"491",14,"second",11,1,1,5,1,NA,NA
"492",14,"second",12,1,1,6,1,NA,NA
"493",14,"second",13,1,1,5,1,NA,NA
"494",14,"second",14,1,1,4,1,NA,NA
"495",14,"second",15,1,1,6,1,NA,NA
"496",14,"second",16,1,1,5,1,NA,NA
"497",14,"second",17,1,1,4,1,NA,NA
"498",14,"second",18,1,1,5,1,NA,NA
"499",14,"second",19,1,1,6,1,NA,NA
"500",14,"second",20,1,1,5,1,NA,NA
"501",14,"second",21,1,1,2,0,NA,NA
"502",14,"second",22,1,1,4,0,NA,NA
"503",14,"second",23,1,1,5,0,NA,NA
"504",14,"second",24,1,1,3,0,NA,NA
"505",14,"second",25,1,1,5,0,NA,NA
"506",14,"second",26,1,1,5,0,NA,NA
"507",14,"second",27,1,1,4,0,NA,NA
"508",14,"second",28,1,1,5,0,NA,NA
"509",14,"second",29,1,1,5,0,NA,NA
"510",14,"second",30,1,1,4,0,NA,NA
"511",14,"second",31,1,1,4,0,NA,NA
"512",14,"second",32,1,1,4,0,NA,NA
"513",14,"second",33,1,1,5,0,NA,NA
"514",14,"second",34,1,1,5,0,NA,NA
"515",14,"second",35,1,1,3,0,NA,NA
"516",14,"second",36,1,1,5,0,NA,NA
"517",14,"second",37,1,1,2,0,NA,NA
"518",14,"second",38,1,1,4,0,NA,NA
"519",14,"second",39,1,1,5,0,NA,NA
"520",14,"second",40,1,1,5,0,NA,NA
"521",15,"second",1,1,1,6,1,NA,NA
"522",15,"second",2,1,1,6,1,NA,NA
"523",15,"second",3,1,1,5,1,NA,NA
"524",15,"second",4,1,1,5,1,NA,NA
"525",15,"second",5,1,1,3,1,NA,NA
"526",15,"second",6,1,1,6,1,NA,NA
"527",15,"second",7,1,1,4,1,NA,NA
"528",15,"second",8,1,1,3,1,NA,NA
"529",15,"second",9,1,1,3,1,NA,NA
"530",15,"second",10,1,1,1,1,NA,NA
"531",15,"second",11,1,1,5,1,NA,NA
"532",15,"second",12,1,1,6,1,NA,NA
"533",15,"second",13,1,1,6,1,NA,NA
"534",15,"second",14,1,1,3,1,NA,NA
"535",15,"second",15,1,1,1,1,NA,NA
"536",15,"second",16,1,1,4,1,NA,NA
"537",15,"second",17,1,1,3,1,NA,NA
"538",15,"second",18,1,1,4,1,NA,NA
"539",15,"second",19,1,1,2,1,NA,NA
"540",15,"second",20,1,1,1,1,NA,NA
"541",15,"second",21,1,1,4,0,NA,NA
"542",15,"second",22,1,1,3,0,NA,NA
"543",15,"second",23,1,1,3,0,NA,NA
"544",15,"second",24,1,1,3,0,NA,NA
"545",15,"second",25,1,1,3,0,NA,NA
"546",15,"second",26,1,1,5,0,NA,NA
"547",15,"second",27,1,1,5,0,NA,NA
"548",15,"second",28,1,1,6,0,NA,NA
"549",15,"second",29,1,1,6,0,NA,NA
"550",15,"second",30,1,1,4,0,NA,NA
"551",15,"second",31,1,1,2,0,NA,NA
"552",15,"second",32,1,1,5,0,NA,NA
"553",15,"second",33,1,1,5,0,NA,NA
"554",15,"second",34,1,1,2,0,NA,NA
"555",15,"second",35,1,1,4,0,NA,NA
"556",15,"second",36,1,1,3,0,NA,NA
"557",15,"second",37,1,1,1,0,NA,NA
"558",15,"second",38,1,1,5,0,NA,NA
"559",15,"second",39,1,1,6,0,NA,NA
"560",15,"second",40,1,1,5,0,NA,NA
"561",16,"second",1,1,1,6,1,NA,NA
"562",16,"second",2,1,1,6,1,NA,NA
"563",16,"second",3,1,1,6,1,NA,NA
"564",16,"second",4,1,1,6,1,NA,NA
"565",16,"second",5,1,1,1,1,NA,NA
"566",16,"second",6,1,1,1,1,NA,NA
"567",16,"second",7,1,1,6,1,NA,NA
"568",16,"second",8,1,1,1,1,NA,NA
"569",16,"second",9,1,1,1,1,NA,NA
"570",16,"second",10,1,1,1,1,NA,NA
"571",16,"second",11,1,1,6,1,NA,NA
"572",16,"second",12,1,1,6,1,NA,NA
"573",16,"second",13,1,1,6,1,NA,NA
"574",16,"second",14,1,1,6,1,NA,NA
"575",16,"second",15,1,1,1,1,NA,NA
"576",16,"second",16,1,1,1,1,NA,NA
"577",16,"second",17,1,1,1,1,NA,NA
"578",16,"second",18,1,1,6,1,NA,NA
"579",16,"second",19,1,1,1,1,NA,NA
"580",16,"second",20,1,1,6,1,NA,NA
"581",16,"second",21,1,1,1,0,NA,NA
"582",16,"second",22,1,1,6,0,NA,NA
"583",16,"second",23,1,1,6,0,NA,NA
"584",16,"second",24,1,1,1,0,NA,NA
"585",16,"second",25,1,1,1,0,NA,NA
"586",16,"second",26,1,1,1,0,NA,NA
"587",16,"second",27,1,1,6,0,NA,NA
"588",16,"second",28,1,1,6,0,NA,NA
"589",16,"second",29,1,1,1,0,NA,NA
"590",16,"second",30,1,1,6,0,NA,NA
"591",16,"second",31,1,1,6,0,NA,NA
"592",16,"second",32,1,1,6,0,NA,NA
"593",16,"second",33,1,1,6,0,NA,NA
"594",16,"second",34,1,1,5,0,NA,NA
"595",16,"second",35,1,1,1,0,NA,NA
"596",16,"second",36,1,1,1,0,NA,NA
"597",16,"second",37,1,1,1,0,NA,NA
"598",16,"second",38,1,1,6,0,NA,NA
"599",16,"second",39,1,1,6,0,NA,NA
"600",16,"second",40,1,1,6,0,NA,NA
"601",17,"second",1,1,1,6,1,NA,NA
"602",17,"second",2,1,1,6,1,NA,NA
"603",17,"second",3,1,1,6,1,NA,NA
"604",17,"second",4,1,1,6,1,NA,NA
"605",17,"second",5,1,1,5,1,NA,NA
"606",17,"second",6,1,1,6,1,NA,NA
"607",17,"second",7,1,1,5,1,NA,NA
"608",17,"second",8,1,1,6,1,NA,NA
"609",17,"second",9,1,1,6,1,NA,NA
"610",17,"second",10,1,1,5,1,NA,NA
"611",17,"second",11,1,1,2,1,NA,NA
"612",17,"second",12,1,1,1,1,NA,NA
"613",17,"second",13,1,1,6,1,NA,NA
"614",17,"second",14,1,1,6,1,NA,NA
"615",17,"second",15,1,1,1,1,NA,NA
"616",17,"second",16,1,1,6,1,NA,NA
"617",17,"second",17,1,1,6,1,NA,NA
"618",17,"second",18,1,1,6,1,NA,NA
"619",17,"second",19,1,1,5,1,NA,NA
"620",17,"second",20,1,1,4,1,NA,NA
"621",17,"second",21,1,1,1,0,NA,NA
"622",17,"second",22,1,1,4,0,NA,NA
"623",17,"second",23,1,1,5,0,NA,NA
"624",17,"second",24,1,1,4,0,NA,NA
"625",17,"second",25,1,1,2,0,NA,NA
"626",17,"second",26,1,1,4,0,NA,NA
"627",17,"second",27,1,1,5,0,NA,NA
"628",17,"second",28,1,1,3,0,NA,NA
"629",17,"second",29,1,1,3,0,NA,NA
"630",17,"second",30,1,1,4,0,NA,NA
"631",17,"second",31,1,1,5,0,NA,NA
"632",17,"second",32,1,1,3,0,NA,NA
"633",17,"second",33,1,1,5,0,NA,NA
"634",17,"second",34,1,1,5,0,NA,NA
"635",17,"second",35,1,1,5,0,NA,NA
"636",17,"second",36,1,1,6,0,NA,NA
"637",17,"second",37,1,1,1,0,NA,NA
"638",17,"second",38,1,1,3,0,NA,NA
"639",17,"second",39,1,1,5,0,NA,NA
"640",17,"second",40,1,1,5,0,NA,NA
"641",18,"second",1,1,1,2,1,NA,NA
"642",18,"second",2,1,1,6,1,NA,NA
"643",18,"second",3,1,1,4,1,NA,NA
"644",18,"second",4,1,1,3,1,NA,NA
"645",18,"second",5,1,1,1,1,NA,NA
"646",18,"second",6,1,1,5,1,NA,NA
"647",18,"second",7,1,1,3,1,NA,NA
"648",18,"second",8,1,1,2,1,NA,NA
"649",18,"second",9,1,1,3,1,NA,NA
"650",18,"second",10,1,1,3,1,NA,NA
"651",18,"second",11,1,1,5,1,NA,NA
"652",18,"second",12,1,1,5,1,NA,NA
"653",18,"second",13,1,1,5,1,NA,NA
"654",18,"second",14,1,1,3,1,NA,NA
"655",18,"second",15,1,1,1,1,NA,NA
"656",18,"second",16,1,1,3,1,NA,NA
"657",18,"second",17,1,1,2,1,NA,NA
"658",18,"second",18,1,1,3,1,NA,NA
"659",18,"second",19,1,1,2,1,NA,NA
"660",18,"second",20,1,1,2,1,NA,NA
"661",18,"second",21,1,1,1,0,NA,NA
"662",18,"second",22,1,1,2,0,NA,NA
"663",18,"second",23,1,1,4,0,NA,NA
"664",18,"second",24,1,1,2,0,NA,NA
"665",18,"second",25,1,1,6,0,NA,NA
"666",18,"second",26,1,1,4,0,NA,NA
"667",18,"second",27,1,1,4,0,NA,NA
"668",18,"second",28,1,1,5,0,NA,NA
"669",18,"second",29,1,1,4,0,NA,NA
"670",18,"second",30,1,1,6,0,NA,NA
"671",18,"second",31,1,1,4,0,NA,NA
"672",18,"second",32,1,1,2,0,NA,NA
"673",18,"second",33,1,1,6,0,NA,NA
"674",18,"second",34,1,1,2,0,NA,NA
"675",18,"second",35,1,1,3,0,NA,NA
"676",18,"second",36,1,1,4,0,NA,NA
"677",18,"second",37,1,1,6,0,NA,NA
"678",18,"second",38,1,1,2,0,NA,NA
"679",18,"second",39,1,1,2,0,NA,NA
"680",18,"second",40,1,1,4,0,NA,NA
"681",19,"second",1,1,1,3,1,NA,NA
"682",19,"second",2,1,1,1,1,NA,NA
"683",19,"second",3,1,1,1,1,NA,NA
"684",19,"second",4,1,1,3,1,NA,NA
"685",19,"second",5,1,1,6,1,NA,NA
"686",19,"second",6,1,1,3,1,NA,NA
"687",19,"second",7,1,1,3,1,NA,NA
"688",19,"second",8,1,1,3,1,NA,NA
"689",19,"second",9,1,1,3,1,NA,NA
"690",19,"second",10,1,1,6,1,NA,NA
"691",19,"second",11,1,1,3,1,NA,NA
"692",19,"second",12,1,1,6,1,NA,NA
"693",19,"second",13,1,1,6,1,NA,NA
"694",19,"second",14,1,1,1,1,NA,NA
"695",19,"second",15,1,1,1,1,NA,NA
"696",19,"second",16,1,1,3,1,NA,NA
"697",19,"second",17,1,1,6,1,NA,NA
"698",19,"second",18,1,1,3,1,NA,NA
"699",19,"second",19,1,1,4,1,NA,NA
"700",19,"second",20,1,1,3,1,NA,NA
"701",19,"second",21,1,1,1,0,NA,NA
"702",19,"second",22,1,1,6,0,NA,NA
"703",19,"second",23,1,1,1,0,NA,NA
"704",19,"second",24,1,1,1,0,NA,NA
"705",19,"second",25,1,1,6,0,NA,NA
"706",19,"second",26,1,1,4,0,NA,NA
"707",19,"second",27,1,1,6,0,NA,NA
"708",19,"second",28,1,1,6,0,NA,NA
"709",19,"second",29,1,1,6,0,NA,NA
"710",19,"second",30,1,1,6,0,NA,NA
"711",19,"second",31,1,1,4,0,NA,NA
"712",19,"second",32,1,1,1,0,NA,NA
"713",19,"second",33,1,1,6,0,NA,NA
"714",19,"second",34,1,1,1,0,NA,NA
"715",19,"second",35,1,1,3,0,NA,NA
"716",19,"second",36,1,1,3,0,NA,NA
"717",19,"second",37,1,1,1,0,NA,NA
"718",19,"second",38,1,1,6,0,NA,NA
"719",19,"second",39,1,1,3,0,NA,NA
"720",19,"second",40,1,1,5,0,NA,NA
"721",20,"second",1,1,1,6,1,NA,NA
"722",20,"second",2,1,1,6,1,NA,NA
"723",20,"second",3,1,1,5,1,NA,NA
"724",20,"second",4,1,1,6,1,NA,NA
"725",20,"second",5,1,1,6,1,NA,NA
"726",20,"second",6,1,1,6,1,NA,NA
"727",20,"second",7,1,1,4,1,NA,NA
"728",20,"second",8,1,1,3,1,NA,NA
"729",20,"second",9,1,1,5,1,NA,NA
"730",20,"second",10,1,1,5,1,NA,NA
"731",20,"second",11,1,1,5,1,NA,NA
"732",20,"second",12,1,1,6,1,NA,NA
"733",20,"second",13,1,1,3,1,NA,NA
"734",20,"second",14,1,1,3,1,NA,NA
"735",20,"second",15,1,1,6,1,NA,NA
"736",20,"second",16,1,1,5,1,NA,NA
"737",20,"second",17,1,1,6,1,NA,NA
"738",20,"second",18,1,1,5,1,NA,NA
"739",20,"second",19,1,1,6,1,NA,NA
"740",20,"second",20,1,1,2,1,NA,NA
"741",20,"second",21,1,1,3,0,NA,NA
"742",20,"second",22,1,1,3,0,NA,NA
"743",20,"second",23,1,1,4,0,NA,NA
"744",20,"second",24,1,1,2,0,NA,NA
"745",20,"second",25,1,1,6,0,NA,NA
"746",20,"second",26,1,1,4,0,NA,NA
"747",20,"second",27,1,1,3,0,NA,NA
"748",20,"second",28,1,1,6,0,NA,NA
"749",20,"second",29,1,1,6,0,NA,NA
"750",20,"second",30,1,1,2,0,NA,NA
"751",20,"second",31,1,1,2,0,NA,NA
"752",20,"second",32,1,1,5,0,NA,NA
"753",20,"second",33,1,1,5,0,NA,NA
"754",20,"second",34,1,1,2,0,NA,NA
"755",20,"second",35,1,1,4,0,NA,NA
"756",20,"second",36,1,1,5,0,NA,NA
"757",20,"second",37,1,1,6,0,NA,NA
"758",20,"second",38,1,1,4,0,NA,NA
"759",20,"second",39,1,1,6,0,NA,NA
"760",20,"second",40,1,1,4,0,NA,NA
"761",21,"second",1,1,1,5,1,NA,NA
"762",21,"second",2,1,1,1,1,NA,NA
"763",21,"second",3,1,1,2,1,NA,NA
"764",21,"second",4,1,1,1,1,NA,NA
"765",21,"second",5,1,1,6,1,NA,NA
"766",21,"second",6,1,1,6,1,NA,NA
"767",21,"second",7,1,1,6,1,NA,NA
"768",21,"second",8,1,1,6,1,NA,NA
"769",21,"second",9,1,1,2,1,NA,NA
"770",21,"second",10,1,1,1,1,NA,NA
"771",21,"second",11,1,1,6,1,NA,NA
"772",21,"second",12,1,1,4,1,NA,NA
"773",21,"second",13,1,1,5,1,NA,NA
"774",21,"second",14,1,1,2,1,NA,NA
"775",21,"second",15,1,1,6,1,NA,NA
"776",21,"second",16,1,1,6,1,NA,NA
"777",21,"second",17,1,1,5,1,NA,NA
"778",21,"second",18,1,1,5,1,NA,NA
"779",21,"second",19,1,1,2,1,NA,NA
"780",21,"second",20,1,1,1,1,NA,NA
"781",21,"second",21,1,1,1,0,NA,NA
"782",21,"second",22,1,1,6,0,NA,NA
"783",21,"second",23,1,1,3,0,NA,NA
"784",21,"second",24,1,1,3,0,NA,NA
"785",21,"second",25,1,1,6,0,NA,NA
"786",21,"second",26,1,1,6,0,NA,NA
"787",21,"second",27,1,1,6,0,NA,NA
"788",21,"second",28,1,1,6,0,NA,NA
"789",21,"second",29,1,1,6,0,NA,NA
"790",21,"second",30,1,1,6,0,NA,NA
"791",21,"second",31,1,1,4,0,NA,NA
"792",21,"second",32,1,1,3,0,NA,NA
"793",21,"second",33,1,1,6,0,NA,NA
"794",21,"second",34,1,1,5,0,NA,NA
"795",21,"second",35,1,1,6,0,NA,NA
"796",21,"second",36,1,1,3,0,NA,NA
"797",21,"second",37,1,1,1,0,NA,NA
"798",21,"second",38,1,1,5,0,NA,NA
"799",21,"second",39,1,1,5,0,NA,NA
"800",21,"second",40,1,1,6,0,NA,NA
"801",22,"second",1,1,1,5,1,NA,NA
"802",22,"second",2,1,1,6,1,NA,NA
"803",22,"second",3,1,1,4,1,NA,NA
"804",22,"second",4,1,1,6,1,NA,NA
"805",22,"second",5,1,1,6,1,NA,NA
"806",22,"second",6,1,1,5,1,NA,NA
"807",22,"second",7,1,1,4,1,NA,NA
"808",22,"second",8,1,1,2,1,NA,NA
"809",22,"second",9,1,1,6,1,NA,NA
"810",22,"second",10,1,1,6,1,NA,NA
"811",22,"second",11,1,1,5,1,NA,NA
"812",22,"second",12,1,1,6,1,NA,NA
"813",22,"second",13,1,1,6,1,NA,NA
"814",22,"second",14,1,1,3,1,NA,NA
"815",22,"second",15,1,1,1,1,NA,NA
"816",22,"second",16,1,1,4,1,NA,NA
"817",22,"second",17,1,1,5,1,NA,NA
"818",22,"second",18,1,1,5,1,NA,NA
"819",22,"second",19,1,1,1,1,NA,NA
"820",22,"second",20,1,1,5,1,NA,NA
"821",22,"second",21,1,1,2,0,NA,NA
"822",22,"second",22,1,1,2,0,NA,NA
"823",22,"second",23,1,1,4,0,NA,NA
"824",22,"second",24,1,1,2,0,NA,NA
"825",22,"second",25,1,1,5,0,NA,NA
"826",22,"second",26,1,1,4,0,NA,NA
"827",22,"second",27,1,1,5,0,NA,NA
"828",22,"second",28,1,1,6,0,NA,NA
"829",22,"second",29,1,1,5,0,NA,NA
"830",22,"second",30,1,1,3,0,NA,NA
"831",22,"second",31,1,1,2,0,NA,NA
"832",22,"second",32,1,1,3,0,NA,NA
"833",22,"second",33,1,1,5,0,NA,NA
"834",22,"second",34,1,1,1,0,NA,NA
"835",22,"second",35,1,1,4,0,NA,NA
"836",22,"second",36,1,1,2,0,NA,NA
"837",22,"second",37,1,1,1,0,NA,NA
"838",22,"second",38,1,1,4,0,NA,NA
"839",22,"second",39,1,1,5,0,NA,NA
"840",22,"second",40,1,1,4,0,NA,NA
"841",23,"second",1,1,1,6,1,NA,NA
"842",23,"second",2,1,1,6,1,NA,NA
"843",23,"second",3,1,1,6,1,NA,NA
"844",23,"second",4,1,1,6,1,NA,NA
"845",23,"second",5,1,1,6,1,NA,NA
"846",23,"second",6,1,1,6,1,NA,NA
"847",23,"second",7,1,1,4,1,NA,NA
"848",23,"second",8,1,1,6,1,NA,NA
"849",23,"second",9,1,1,6,1,NA,NA
"850",23,"second",10,1,1,6,1,NA,NA
"851",23,"second",11,1,1,6,1,NA,NA
"852",23,"second",12,1,1,6,1,NA,NA
"853",23,"second",13,1,1,6,1,NA,NA
"854",23,"second",14,1,1,6,1,NA,NA
"855",23,"second",15,1,1,6,1,NA,NA
"856",23,"second",16,1,1,6,1,NA,NA
"857",23,"second",17,1,1,6,1,NA,NA
"858",23,"second",18,1,1,6,1,NA,NA
"859",23,"second",19,1,1,6,1,NA,NA
"860",23,"second",20,1,1,6,1,NA,NA
"861",23,"second",21,1,1,2,0,NA,NA
"862",23,"second",22,1,1,3,0,NA,NA
"863",23,"second",23,1,1,5,0,NA,NA
"864",23,"second",24,1,1,4,0,NA,NA
"865",23,"second",25,1,1,3,0,NA,NA
"866",23,"second",26,1,1,4,0,NA,NA
"867",23,"second",27,1,1,4,0,NA,NA
"868",23,"second",28,1,1,1,0,NA,NA
"869",23,"second",29,1,1,6,0,NA,NA
"870",23,"second",30,1,1,5,0,NA,NA
"871",23,"second",31,1,1,4,0,NA,NA
"872",23,"second",32,1,1,3,0,NA,NA
"873",23,"second",33,1,1,4,0,NA,NA
"874",23,"second",34,1,1,5,0,NA,NA
"875",23,"second",35,1,1,4,0,NA,NA
"876",23,"second",36,1,1,4,0,NA,NA
"877",23,"second",37,1,1,1,0,NA,NA
"878",23,"second",38,1,1,4,0,NA,NA
"879",23,"second",39,1,1,6,0,NA,NA
"880",23,"second",40,1,1,5,0,NA,NA
"881",24,"second",1,1,1,5,1,NA,NA
"882",24,"second",2,1,1,6,1,NA,NA
"883",24,"second",3,1,1,2,1,NA,NA
"884",24,"second",4,1,1,2,1,NA,NA
"885",24,"second",5,1,1,1,1,NA,NA
"886",24,"second",6,1,1,6,1,NA,NA
"887",24,"second",7,1,1,2,1,NA,NA
"888",24,"second",8,1,1,5,1,NA,NA
"889",24,"second",9,1,1,5,1,NA,NA
"890",24,"second",10,1,1,2,1,NA,NA
"891",24,"second",11,1,1,6,1,NA,NA
"892",24,"second",12,1,1,6,1,NA,NA
"893",24,"second",13,1,1,6,1,NA,NA
"894",24,"second",14,1,1,6,1,NA,NA
"895",24,"second",15,1,1,6,1,NA,NA
"896",24,"second",16,1,1,6,1,NA,NA
"897",24,"second",17,1,1,6,1,NA,NA
"898",24,"second",18,1,1,6,1,NA,NA
"899",24,"second",19,1,1,6,1,NA,NA
"900",24,"second",20,1,1,5,1,NA,NA
"901",24,"second",21,1,1,2,0,NA,NA
"902",24,"second",22,1,1,4,0,NA,NA
"903",24,"second",23,1,1,5,0,NA,NA
"904",24,"second",24,1,1,2,0,NA,NA
"905",24,"second",25,1,1,5,0,NA,NA
"906",24,"second",26,1,1,6,0,NA,NA
"907",24,"second",27,1,1,1,0,NA,NA
"908",24,"second",28,1,1,6,0,NA,NA
"909",24,"second",29,1,1,6,0,NA,NA
"910",24,"second",30,1,1,6,0,NA,NA
"911",24,"second",31,1,1,2,0,NA,NA
"912",24,"second",32,1,1,2,0,NA,NA
"913",24,"second",33,1,1,6,0,NA,NA
"914",24,"second",34,1,1,5,0,NA,NA
"915",24,"second",35,1,1,6,0,NA,NA
"916",24,"second",36,1,1,5,0,NA,NA
"917",24,"second",37,1,1,1,0,NA,NA
"918",24,"second",38,1,1,6,0,NA,NA
"919",24,"second",39,1,1,5,0,NA,NA
"920",24,"second",40,1,1,5,0,NA,NA
"921",25,"second",1,1,1,5,1,NA,NA
"922",25,"second",2,1,1,6,1,NA,NA
"923",25,"second",3,1,1,5,1,NA,NA
"924",25,"second",4,1,1,4,1,NA,NA
"925",25,"second",5,1,1,5,1,NA,NA
"926",25,"second",6,1,1,5,1,NA,NA
"927",25,"second",7,1,1,5,1,NA,NA
"928",25,"second",8,1,1,5,1,NA,NA
"929",25,"second",9,1,1,5,1,NA,NA
"930",25,"second",10,1,1,3,1,NA,NA
"931",25,"second",11,1,1,4,1,NA,NA
"932",25,"second",12,1,1,6,1,NA,NA
"933",25,"second",13,1,1,5,1,NA,NA
"934",25,"second",14,1,1,2,1,NA,NA
"935",25,"second",15,1,1,2,1,NA,NA
"936",25,"second",16,1,1,3,1,NA,NA
"937",25,"second",17,1,1,4,1,NA,NA
"938",25,"second",18,1,1,4,1,NA,NA
"939",25,"second",19,1,1,5,1,NA,NA
"940",25,"second",20,1,1,5,1,NA,NA
"941",25,"second",21,1,1,1,0,NA,NA
"942",25,"second",22,1,1,5,0,NA,NA
"943",25,"second",23,1,1,6,0,NA,NA
"944",25,"second",24,1,1,4,0,NA,NA
"945",25,"second",25,1,1,5,0,NA,NA
"946",25,"second",26,1,1,5,0,NA,NA
"947",25,"second",27,1,1,6,0,NA,NA
"948",25,"second",28,1,1,6,0,NA,NA
"949",25,"second",29,1,1,5,0,NA,NA
"950",25,"second",30,1,1,6,0,NA,NA
"951",25,"second",31,1,1,6,0,NA,NA
"952",25,"second",32,1,1,6,0,NA,NA
"953",25,"second",33,1,1,4,0,NA,NA
"954",25,"second",34,1,1,6,0,NA,NA
"955",25,"second",35,1,1,5,0,NA,NA
"956",25,"second",36,1,1,6,0,NA,NA
"957",25,"second",37,1,1,1,0,NA,NA
"958",25,"second",38,1,1,6,0,NA,NA
"959",25,"second",39,1,1,4,0,NA,NA
"960",25,"second",40,1,1,4,0,NA,NA
"961",26,"second",1,1,1,6,1,NA,NA
"962",26,"second",2,1,1,5,1,NA,NA
"963",26,"second",3,1,1,4,1,NA,NA
"964",26,"second",4,1,1,6,1,NA,NA
"965",26,"second",5,1,1,6,1,NA,NA
"966",26,"second",6,1,1,6,1,NA,NA
"967",26,"second",7,1,1,3,1,NA,NA
"968",26,"second",8,1,1,6,1,NA,NA
"969",26,"second",9,1,1,6,1,NA,NA
"970",26,"second",10,1,1,6,1,NA,NA
"971",26,"second",11,1,1,6,1,NA,NA
"972",26,"second",12,1,1,5,1,NA,NA
"973",26,"second",13,1,1,6,1,NA,NA
"974",26,"second",14,1,1,2,1,NA,NA
"975",26,"second",15,1,1,6,1,NA,NA
"976",26,"second",16,1,1,6,1,NA,NA
"977",26,"second",17,1,1,6,1,NA,NA
"978",26,"second",18,1,1,5,1,NA,NA
"979",26,"second",19,1,1,6,1,NA,NA
"980",26,"second",20,1,1,6,1,NA,NA
"981",26,"second",21,1,1,4,0,NA,NA
"982",26,"second",22,1,1,3,0,NA,NA
"983",26,"second",23,1,1,2,0,NA,NA
"984",26,"second",24,1,1,2,0,NA,NA
"985",26,"second",25,1,1,3,0,NA,NA
"986",26,"second",26,1,1,3,0,NA,NA
"987",26,"second",27,1,1,2,0,NA,NA
"988",26,"second",28,1,1,4,0,NA,NA
"989",26,"second",29,1,1,4,0,NA,NA
"990",26,"second",30,1,1,5,0,NA,NA
"991",26,"second",31,1,1,3,0,NA,NA
"992",26,"second",32,1,1,1,0,NA,NA
"993",26,"second",33,1,1,1,0,NA,NA
"994",26,"second",34,1,1,2,0,NA,NA
"995",26,"second",35,1,1,2,0,NA,NA
"996",26,"second",36,1,1,1,0,NA,NA
"997",26,"second",37,1,1,3,0,NA,NA
"998",26,"second",38,1,1,4,0,NA,NA
"999",26,"second",39,1,1,3,0,NA,NA
"1000",26,"second",40,1,1,2,0,NA,NA
"1001",27,"second",1,1,1,3,1,NA,NA
"1002",27,"second",2,1,1,2,1,NA,NA
"1003",27,"second",3,1,1,5,1,NA,NA
"1004",27,"second",4,1,1,4,1,NA,NA
"1005",27,"second",5,1,1,2,1,NA,NA
"1006",27,"second",6,1,1,4,1,NA,NA
"1007",27,"second",7,1,1,3,1,NA,NA
"1008",27,"second",8,1,1,4,1,NA,NA
"1009",27,"second",9,1,1,3,1,NA,NA
"1010",27,"second",10,1,1,2,1,NA,NA
"1011",27,"second",11,1,1,4,1,NA,NA
"1012",27,"second",12,1,1,4,1,NA,NA
"1013",27,"second",13,1,1,2,1,NA,NA
"1014",27,"second",14,1,1,5,1,NA,NA
"1015",27,"second",15,1,1,1,1,NA,NA
"1016",27,"second",16,1,1,4,1,NA,NA
"1017",27,"second",17,1,1,3,1,NA,NA
"1018",27,"second",18,1,1,3,1,NA,NA
"1019",27,"second",19,1,1,3,1,NA,NA
"1020",27,"second",20,1,1,3,1,NA,NA
"1021",27,"second",21,1,1,2,0,NA,NA
"1022",27,"second",22,1,1,3,0,NA,NA
"1023",27,"second",23,1,1,4,0,NA,NA
"1024",27,"second",24,1,1,3,0,NA,NA
"1025",27,"second",25,1,1,3,0,NA,NA
"1026",27,"second",26,1,1,5,0,NA,NA
"1027",27,"second",27,1,1,3,0,NA,NA
"1028",27,"second",28,1,1,3,0,NA,NA
"1029",27,"second",29,1,1,4,0,NA,NA
"1030",27,"second",30,1,1,4,0,NA,NA
"1031",27,"second",31,1,1,3,0,NA,NA
"1032",27,"second",32,1,1,3,0,NA,NA
"1033",27,"second",33,1,1,4,0,NA,NA
"1034",27,"second",34,1,1,2,0,NA,NA
"1035",27,"second",35,1,1,3,0,NA,NA
"1036",27,"second",36,1,1,2,0,NA,NA
"1037",27,"second",37,1,1,3,0,NA,NA
"1038",27,"second",38,1,1,4,0,NA,NA
"1039",27,"second",39,1,1,4,0,NA,NA
"1040",27,"second",40,1,1,3,0,NA,NA
"1041",28,"second",1,1,1,6,1,NA,NA
"1042",28,"second",2,1,1,4,1,NA,NA
"1043",28,"second",3,1,1,6,1,NA,NA
"1044",28,"second",4,1,1,6,1,NA,NA
"1045",28,"second",5,1,1,1,1,NA,NA
"1046",28,"second",6,1,1,5,1,NA,NA
"1047",28,"second",7,1,1,6,1,NA,NA
"1048",28,"second",8,1,1,4,1,NA,NA
"1049",28,"second",9,1,1,5,1,NA,NA
"1050",28,"second",10,1,1,4,1,NA,NA
"1051",28,"second",11,1,1,5,1,NA,NA
"1052",28,"second",12,1,1,6,1,NA,NA
"1053",28,"second",13,1,1,6,1,NA,NA
"1054",28,"second",14,1,1,4,1,NA,NA
"1055",28,"second",15,1,1,1,1,NA,NA
"1056",28,"second",16,1,1,2,1,NA,NA
"1057",28,"second",17,1,1,3,1,NA,NA
"1058",28,"second",18,1,1,5,1,NA,NA
"1059",28,"second",19,1,1,4,1,NA,NA
"1060",28,"second",20,1,1,3,1,NA,NA
"1061",28,"second",21,1,1,1,0,NA,NA
"1062",28,"second",22,1,1,4,0,NA,NA
"1063",28,"second",23,1,1,4,0,NA,NA
"1064",28,"second",24,1,1,3,0,NA,NA
"1065",28,"second",25,1,1,4,0,NA,NA
"1066",28,"second",26,1,1,4,0,NA,NA
"1067",28,"second",27,1,1,6,0,NA,NA
"1068",28,"second",28,1,1,6,0,NA,NA
"1069",28,"second",29,1,1,5,0,NA,NA
"1070",28,"second",30,1,1,3,0,NA,NA
"1071",28,"second",31,1,1,3,0,NA,NA
"1072",28,"second",32,1,1,1,0,NA,NA
"1073",28,"second",33,1,1,5,0,NA,NA
"1074",28,"second",34,1,1,4,0,NA,NA
"1075",28,"second",35,1,1,1,0,NA,NA
"1076",28,"second",36,1,1,5,0,NA,NA
"1077",28,"second",37,1,1,1,0,NA,NA
"1078",28,"second",38,1,1,5,0,NA,NA
"1079",28,"second",39,1,1,6,0,NA,NA
"1080",28,"second",40,1,1,4,0,NA,NA
"1081",29,"second",1,1,1,5,1,NA,NA
"1082",29,"second",2,1,1,1,1,NA,NA
"1083",29,"second",3,1,1,5,1,NA,NA
"1084",29,"second",4,1,1,5,1,NA,NA
"1085",29,"second",5,1,1,1,1,NA,NA
"1086",29,"second",6,1,1,4,1,NA,NA
"1087",29,"second",7,1,1,3,1,NA,NA
"1088",29,"second",8,1,1,4,1,NA,NA
"1089",29,"second",9,1,1,5,1,NA,NA
"1090",29,"second",10,1,1,2,1,NA,NA
"1091",29,"second",11,1,1,4,1,NA,NA
"1092",29,"second",12,1,1,6,1,NA,NA
"1093",29,"second",13,1,1,6,1,NA,NA
"1094",29,"second",14,1,1,4,1,NA,NA
"1095",29,"second",15,1,1,6,1,NA,NA
"1096",29,"second",16,1,1,1,1,NA,NA
"1097",29,"second",17,1,1,1,1,NA,NA
"1098",29,"second",18,1,1,4,1,NA,NA
"1099",29,"second",19,1,1,6,1,NA,NA
"1100",29,"second",20,1,1,4,1,NA,NA
"1101",29,"second",21,1,1,1,0,NA,NA
"1102",29,"second",22,1,1,4,0,NA,NA
"1103",29,"second",23,1,1,5,0,NA,NA
"1104",29,"second",24,1,1,3,0,NA,NA
"1105",29,"second",25,1,1,6,0,NA,NA
"1106",29,"second",26,1,1,4,0,NA,NA
"1107",29,"second",27,1,1,5,0,NA,NA
"1108",29,"second",28,1,1,6,0,NA,NA
"1109",29,"second",29,1,1,6,0,NA,NA
"1110",29,"second",30,1,1,6,0,NA,NA
"1111",29,"second",31,1,1,5,0,NA,NA
"1112",29,"second",32,1,1,6,0,NA,NA
"1113",29,"second",33,1,1,2,0,NA,NA
"1114",29,"second",34,1,1,3,0,NA,NA
"1115",29,"second",35,1,1,4,0,NA,NA
"1116",29,"second",36,1,1,4,0,NA,NA
"1117",29,"second",37,1,1,1,0,NA,NA
"1118",29,"second",38,1,1,6,0,NA,NA
"1119",29,"second",39,1,1,1,0,NA,NA
"1120",29,"second",40,1,1,4,0,NA,NA
"1121",30,"second",1,1,1,5,1,NA,NA
"1122",30,"second",2,1,1,5,1,NA,NA
"1123",30,"second",3,1,1,5,1,NA,NA
"1124",30,"second",4,1,1,5,1,NA,NA
"1125",30,"second",5,1,1,2,1,NA,NA
"1126",30,"second",6,1,1,5,1,NA,NA
"1127",30,"second",7,1,1,4,1,NA,NA
"1128",30,"second",8,1,1,4,1,NA,NA
"1129",30,"second",9,1,1,4,1,NA,NA
"1130",30,"second",10,1,1,2,1,NA,NA
"1131",30,"second",11,1,1,5,1,NA,NA
"1132",30,"second",12,1,1,6,1,NA,NA
"1133",30,"second",13,1,1,6,1,NA,NA
"1134",30,"second",14,1,1,6,1,NA,NA
"1135",30,"second",15,1,1,1,1,NA,NA
"1136",30,"second",16,1,1,2,1,NA,NA
"1137",30,"second",17,1,1,2,1,NA,NA
"1138",30,"second",18,1,1,4,1,NA,NA
"1139",30,"second",19,1,1,4,1,NA,NA
"1140",30,"second",20,1,1,4,1,NA,NA
"1141",30,"second",21,1,1,3,0,NA,NA
"1142",30,"second",22,1,1,2,0,NA,NA
"1143",30,"second",23,1,1,5,0,NA,NA
"1144",30,"second",24,1,1,4,0,NA,NA
"1145",30,"second",25,1,1,6,0,NA,NA
"1146",30,"second",26,1,1,5,0,NA,NA
"1147",30,"second",27,1,1,4,0,NA,NA
"1148",30,"second",28,1,1,5,0,NA,NA
"1149",30,"second",29,1,1,6,0,NA,NA
"1150",30,"second",30,1,1,3,0,NA,NA
"1151",30,"second",31,1,1,4,0,NA,NA
"1152",30,"second",32,1,1,5,0,NA,NA
"1153",30,"second",33,1,1,4,0,NA,NA
"1154",30,"second",34,1,1,3,0,NA,NA
"1155",30,"second",35,1,1,3,0,NA,NA
"1156",30,"second",36,1,1,1,0,NA,NA
"1157",30,"second",37,1,1,2,0,NA,NA
"1158",30,"second",38,1,1,3,0,NA,NA
"1159",30,"second",39,1,1,3,0,NA,NA
"1160",30,"second",40,1,1,3,0,NA,NA
"1161",31,"second",1,1,1,6,1,NA,NA
"1162",31,"second",2,1,1,6,1,NA,NA
"1163",31,"second",3,1,1,6,1,NA,NA
"1164",31,"second",4,1,1,6,1,NA,NA
"1165",31,"second",5,1,1,1,1,NA,NA
"1166",31,"second",6,1,1,6,1,NA,NA
"1167",31,"second",7,1,1,6,1,NA,NA
"1168",31,"second",8,1,1,6,1,NA,NA
"1169",31,"second",9,1,1,5,1,NA,NA
"1170",31,"second",10,1,1,6,1,NA,NA
"1171",31,"second",11,1,1,6,1,NA,NA
"1172",31,"second",12,1,1,6,1,NA,NA
"1173",31,"second",13,1,1,5,1,NA,NA
"1174",31,"second",14,1,1,6,1,NA,NA
"1175",31,"second",15,1,1,1,1,NA,NA
"1176",31,"second",16,1,1,6,1,NA,NA
"1177",31,"second",17,1,1,6,1,NA,NA
"1178",31,"second",18,1,1,6,1,NA,NA
"1179",31,"second",19,1,1,6,1,NA,NA
"1180",31,"second",20,1,1,6,1,NA,NA
"1181",31,"second",21,1,1,4,0,NA,NA
"1182",31,"second",22,1,1,4,0,NA,NA
"1183",31,"second",23,1,1,4,0,NA,NA
"1184",31,"second",24,1,1,2,0,NA,NA
"1185",31,"second",25,1,1,5,0,NA,NA
"1186",31,"second",26,1,1,6,0,NA,NA
"1187",31,"second",27,1,1,4,0,NA,NA
"1188",31,"second",28,1,1,6,0,NA,NA
"1189",31,"second",29,1,1,4,0,NA,NA
"1190",31,"second",30,1,1,6,0,NA,NA
"1191",31,"second",31,1,1,6,0,NA,NA
"1192",31,"second",32,1,1,5,0,NA,NA
"1193",31,"second",33,1,1,4,0,NA,NA
"1194",31,"second",34,1,1,1,0,NA,NA
"1195",31,"second",35,1,1,3,0,NA,NA
"1196",31,"second",36,1,1,3,0,NA,NA
"1197",31,"second",37,1,1,2,0,NA,NA
"1198",31,"second",38,1,1,4,0,NA,NA
"1199",31,"second",39,1,1,6,0,NA,NA
"1200",31,"second",40,1,1,5,0,NA,NA
"1201",32,"second",1,1,1,4,1,NA,NA
"1202",32,"second",2,1,1,1,1,NA,NA
"1203",32,"second",3,1,1,5,1,NA,NA
"1204",32,"second",4,1,1,4,1,NA,NA
"1205",32,"second",5,1,1,1,1,NA,NA
"1206",32,"second",6,1,1,4,1,NA,NA
"1207",32,"second",7,1,1,4,1,NA,NA
"1208",32,"second",8,1,1,4,1,NA,NA
"1209",32,"second",9,1,1,3,1,NA,NA
"1210",32,"second",10,1,1,1,1,NA,NA
"1211",32,"second",11,1,1,6,1,NA,NA
"1212",32,"second",12,1,1,6,1,NA,NA
"1213",32,"second",13,1,1,6,1,NA,NA
"1214",32,"second",14,1,1,3,1,NA,NA
"1215",32,"second",15,1,1,6,1,NA,NA
"1216",32,"second",16,1,1,6,1,NA,NA
"1217",32,"second",17,1,1,4,1,NA,NA
"1218",32,"second",18,1,1,5,1,NA,NA
"1219",32,"second",19,1,1,3,1,NA,NA
"1220",32,"second",20,1,1,5,1,NA,NA
"1221",32,"second",21,1,1,5,0,NA,NA
"1222",32,"second",22,1,1,6,0,NA,NA
"1223",32,"second",23,1,1,6,0,NA,NA
"1224",32,"second",24,1,1,3,0,NA,NA
"1225",32,"second",25,1,1,3,0,NA,NA
"1226",32,"second",26,1,1,4,0,NA,NA
"1227",32,"second",27,1,1,6,0,NA,NA
"1228",32,"second",28,1,1,3,0,NA,NA
"1229",32,"second",29,1,1,1,0,NA,NA
"1230",32,"second",30,1,1,6,0,NA,NA
"1231",32,"second",31,1,1,4,0,NA,NA
"1232",32,"second",32,1,1,6,0,NA,NA
"1233",32,"second",33,1,1,5,0,NA,NA
"1234",32,"second",34,1,1,4,0,NA,NA
"1235",32,"second",35,1,1,4,0,NA,NA
"1236",32,"second",36,1,1,4,0,NA,NA
"1237",32,"second",37,1,1,3,0,NA,NA
"1238",32,"second",38,1,1,3,0,NA,NA
"1239",32,"second",39,1,1,4,0,NA,NA
"1240",32,"second",40,1,1,4,0,NA,NA
"1241",33,"second",1,1,1,6,1,NA,NA
"1242",33,"second",2,1,1,1,1,NA,NA
"1243",33,"second",3,1,1,5,1,NA,NA
"1244",33,"second",4,1,1,4,1,NA,NA
"1245",33,"second",5,1,1,6,1,NA,NA
"1246",33,"second",6,1,1,6,1,NA,NA
"1247",33,"second",7,1,1,5,1,NA,NA
"1248",33,"second",8,1,1,4,1,NA,NA
"1249",33,"second",9,1,1,4,1,NA,NA
"1250",33,"second",10,1,1,2,1,NA,NA
"1251",33,"second",11,1,1,6,1,NA,NA
"1252",33,"second",12,1,1,6,1,NA,NA
"1253",33,"second",13,1,1,1,1,NA,NA
"1254",33,"second",14,1,1,2,1,NA,NA
"1255",33,"second",15,1,1,6,1,NA,NA
"1256",33,"second",16,1,1,5,1,NA,NA
"1257",33,"second",17,1,1,3,1,NA,NA
"1258",33,"second",18,1,1,6,1,NA,NA
"1259",33,"second",19,1,1,3,1,NA,NA
"1260",33,"second",20,1,1,5,1,NA,NA
"1261",33,"second",21,1,1,6,0,NA,NA
"1262",33,"second",22,1,1,5,0,NA,NA
"1263",33,"second",23,1,1,6,0,NA,NA
"1264",33,"second",24,1,1,4,0,NA,NA
"1265",33,"second",25,1,1,2,0,NA,NA
"1266",33,"second",26,1,1,4,0,NA,NA
"1267",33,"second",27,1,1,4,0,NA,NA
"1268",33,"second",28,1,1,6,0,NA,NA
"1269",33,"second",29,1,1,5,0,NA,NA
"1270",33,"second",30,1,1,6,0,NA,NA
"1271",33,"second",31,1,1,6,0,NA,NA
"1272",33,"second",32,1,1,5,0,NA,NA
"1273",33,"second",33,1,1,1,0,NA,NA
"1274",33,"second",34,1,1,6,0,NA,NA
"1275",33,"second",35,1,1,4,0,NA,NA
"1276",33,"second",36,1,1,3,0,NA,NA
"1277",33,"second",37,1,1,3,0,NA,NA
"1278",33,"second",38,1,1,6,0,NA,NA
"1279",33,"second",39,1,1,1,0,NA,NA
"1280",33,"second",40,1,1,6,0,NA,NA
"1281",34,"second",1,1,1,4,1,NA,NA
"1282",34,"second",2,1,1,3,1,NA,NA
"1283",34,"second",3,1,1,3,1,NA,NA
"1284",34,"second",4,1,1,6,1,NA,NA
"1285",34,"second",5,1,1,2,1,NA,NA
"1286",34,"second",6,1,1,6,1,NA,NA
"1287",34,"second",7,1,1,4,1,NA,NA
"1288",34,"second",8,1,1,4,1,NA,NA
"1289",34,"second",9,1,1,1,1,NA,NA
"1290",34,"second",10,1,1,1,1,NA,NA
"1291",34,"second",11,1,1,3,1,NA,NA
"1292",34,"second",12,1,1,6,1,NA,NA
"1293",34,"second",13,1,1,5,1,NA,NA
"1294",34,"second",14,1,1,3,1,NA,NA
"1295",34,"second",15,1,1,5,1,NA,NA
"1296",34,"second",16,1,1,5,1,NA,NA
"1297",34,"second",17,1,1,5,1,NA,NA
"1298",34,"second",18,1,1,4,1,NA,NA
"1299",34,"second",19,1,1,3,1,NA,NA
"1300",34,"second",20,1,1,5,1,NA,NA
"1301",34,"second",21,1,1,3,0,NA,NA
"1302",34,"second",22,1,1,3,0,NA,NA
"1303",34,"second",23,1,1,2,0,NA,NA
"1304",34,"second",24,1,1,2,0,NA,NA
"1305",34,"second",25,1,1,1,0,NA,NA
"1306",34,"second",26,1,1,5,0,NA,NA
"1307",34,"second",27,1,1,2,0,NA,NA
"1308",34,"second",28,1,1,3,0,NA,NA
"1309",34,"second",29,1,1,4,0,NA,NA
"1310",34,"second",30,1,1,5,0,NA,NA
"1311",34,"second",31,1,1,4,0,NA,NA
"1312",34,"second",32,1,1,4,0,NA,NA
"1313",34,"second",33,1,1,3,0,NA,NA
"1314",34,"second",34,1,1,1,0,NA,NA
"1315",34,"second",35,1,1,4,0,NA,NA
"1316",34,"second",36,1,1,4,0,NA,NA
"1317",34,"second",37,1,1,5,0,NA,NA
"1318",34,"second",38,1,1,5,0,NA,NA
"1319",34,"second",39,1,1,2,0,NA,NA
"1320",34,"second",40,1,1,5,0,NA,NA
"1321",35,"second",1,1,1,5,1,NA,NA
"1322",35,"second",2,1,1,4,1,NA,NA
"1323",35,"second",3,1,1,3,1,NA,NA
"1324",35,"second",4,1,1,2,1,NA,NA
"1325",35,"second",5,1,1,4,1,NA,NA
"1326",35,"second",6,1,1,4,1,NA,NA
"1327",35,"second",7,1,1,3,1,NA,NA
"1328",35,"second",8,1,1,3,1,NA,NA
"1329",35,"second",9,1,1,4,1,NA,NA
"1330",35,"second",10,1,1,2,1,NA,NA
"1331",35,"second",11,1,1,5,1,NA,NA
"1332",35,"second",12,1,1,2,1,NA,NA
"1333",35,"second",13,1,1,5,1,NA,NA
"1334",35,"second",14,1,1,3,1,NA,NA
"1335",35,"second",15,1,1,1,1,NA,NA
"1336",35,"second",16,1,1,2,1,NA,NA
"1337",35,"second",17,1,1,3,1,NA,NA
"1338",35,"second",18,1,1,4,1,NA,NA
"1339",35,"second",19,1,1,2,1,NA,NA
"1340",35,"second",20,1,1,2,1,NA,NA
"1341",35,"second",21,1,1,4,0,NA,NA
"1342",35,"second",22,1,1,3,0,NA,NA
"1343",35,"second",23,1,1,3,0,NA,NA
"1344",35,"second",24,1,1,3,0,NA,NA
"1345",35,"second",25,1,1,2,0,NA,NA
"1346",35,"second",26,1,1,5,0,NA,NA
"1347",35,"second",27,1,1,3,0,NA,NA
"1348",35,"second",28,1,1,2,0,NA,NA
"1349",35,"second",29,1,1,4,0,NA,NA
"1350",35,"second",30,1,1,4,0,NA,NA
"1351",35,"second",31,1,1,4,0,NA,NA
"1352",35,"second",32,1,1,6,0,NA,NA
"1353",35,"second",33,1,1,5,0,NA,NA
"1354",35,"second",34,1,1,3,0,NA,NA
"1355",35,"second",35,1,1,4,0,NA,NA
"1356",35,"second",36,1,1,2,0,NA,NA
"1357",35,"second",37,1,1,1,0,NA,NA
"1358",35,"second",38,1,1,3,0,NA,NA
"1359",35,"second",39,1,1,3,0,NA,NA
"1360",35,"second",40,1,1,4,0,NA,NA
"1361",36,"second",1,1,1,5,1,NA,NA
"1362",36,"second",2,1,1,6,1,NA,NA
"1363",36,"second",3,1,1,5,1,NA,NA
"1364",36,"second",4,1,1,3,1,NA,NA
"1365",36,"second",5,1,1,3,1,NA,NA
"1366",36,"second",6,1,1,5,1,NA,NA
"1367",36,"second",7,1,1,4,1,NA,NA
"1368",36,"second",8,1,1,5,1,NA,NA
"1369",36,"second",9,1,1,3,1,NA,NA
"1370",36,"second",10,1,1,4,1,NA,NA
"1371",36,"second",11,1,1,2,1,NA,NA
"1372",36,"second",12,1,1,4,1,NA,NA
"1373",36,"second",13,1,1,4,1,NA,NA
"1374",36,"second",14,1,1,4,1,NA,NA
"1375",36,"second",15,1,1,3,1,NA,NA
"1376",36,"second",16,1,1,2,1,NA,NA
"1377",36,"second",17,1,1,4,1,NA,NA
"1378",36,"second",18,1,1,5,1,NA,NA
"1379",36,"second",19,1,1,5,1,NA,NA
"1380",36,"second",20,1,1,4,1,NA,NA
"1381",36,"second",21,1,1,2,0,NA,NA
"1382",36,"second",22,1,1,4,0,NA,NA
"1383",36,"second",23,1,1,3,0,NA,NA
"1384",36,"second",24,1,1,3,0,NA,NA
"1385",36,"second",25,1,1,6,0,NA,NA
"1386",36,"second",26,1,1,6,0,NA,NA
"1387",36,"second",27,1,1,5,0,NA,NA
"1388",36,"second",28,1,1,6,0,NA,NA
"1389",36,"second",29,1,1,4,0,NA,NA
"1390",36,"second",30,1,1,4,0,NA,NA
"1391",36,"second",31,1,1,4,0,NA,NA
"1392",36,"second",32,1,1,5,0,NA,NA
"1393",36,"second",33,1,1,4,0,NA,NA
"1394",36,"second",34,1,1,1,0,NA,NA
"1395",36,"second",35,1,1,5,0,NA,NA
"1396",36,"second",36,1,1,4,0,NA,NA
"1397",36,"second",37,1,1,5,0,NA,NA
"1398",36,"second",38,1,1,4,0,NA,NA
"1399",36,"second",39,1,1,5,0,NA,NA
"1400",36,"second",40,1,1,4,0,NA,NA
"1401",37,"second",1,1,1,6,1,NA,NA
"1402",37,"second",2,1,1,6,1,NA,NA
"1403",37,"second",3,1,1,6,1,NA,NA
"1404",37,"second",4,1,1,6,1,NA,NA
"1405",37,"second",5,1,1,6,1,NA,NA
"1406",37,"second",6,1,1,6,1,NA,NA
"1407",37,"second",7,1,1,5,1,NA,NA
"1408",37,"second",8,1,1,6,1,NA,NA
"1409",37,"second",9,1,1,6,1,NA,NA
"1410",37,"second",10,1,1,5,1,NA,NA
"1411",37,"second",11,1,1,6,1,NA,NA
"1412",37,"second",12,1,1,6,1,NA,NA
"1413",37,"second",13,1,1,6,1,NA,NA
"1414",37,"second",14,1,1,4,1,NA,NA
"1415",37,"second",15,1,1,6,1,NA,NA
"1416",37,"second",16,1,1,4,1,NA,NA
"1417",37,"second",17,1,1,6,1,NA,NA
"1418",37,"second",18,1,1,6,1,NA,NA
"1419",37,"second",19,1,1,6,1,NA,NA
"1420",37,"second",20,1,1,4,1,NA,NA
"1421",37,"second",21,1,1,1,0,NA,NA
"1422",37,"second",22,1,1,6,0,NA,NA
"1423",37,"second",23,1,1,5,0,NA,NA
"1424",37,"second",24,1,1,4,0,NA,NA
"1425",37,"second",25,1,1,1,0,NA,NA
"1426",37,"second",26,1,1,6,0,NA,NA
"1427",37,"second",27,1,1,1,0,NA,NA
"1428",37,"second",28,1,1,6,0,NA,NA
"1429",37,"second",29,1,1,6,0,NA,NA
"1430",37,"second",30,1,1,6,0,NA,NA
"1431",37,"second",31,1,1,4,0,NA,NA
"1432",37,"second",32,1,1,6,0,NA,NA
"1433",37,"second",33,1,1,6,0,NA,NA
"1434",37,"second",34,1,1,5,0,NA,NA
"1435",37,"second",35,1,1,6,0,NA,NA
"1436",37,"second",36,1,1,5,0,NA,NA
"1437",37,"second",37,1,1,1,0,NA,NA
"1438",37,"second",38,1,1,6,0,NA,NA
"1439",37,"second",39,1,1,4,0,NA,NA
"1440",37,"second",40,1,1,3,0,NA,NA
"1441",38,"second",1,1,1,6,1,NA,NA
"1442",38,"second",2,1,1,6,1,NA,NA
"1443",38,"second",3,1,1,6,1,NA,NA
"1444",38,"second",4,1,1,6,1,NA,NA
"1445",38,"second",5,1,1,1,1,NA,NA
"1446",38,"second",6,1,1,6,1,NA,NA
"1447",38,"second",7,1,1,6,1,NA,NA
"1448",38,"second",8,1,1,6,1,NA,NA
"1449",38,"second",9,1,1,6,1,NA,NA
"1450",38,"second",10,1,1,6,1,NA,NA
"1451",38,"second",11,1,1,6,1,NA,NA
"1452",38,"second",12,1,1,6,1,NA,NA
"1453",38,"second",13,1,1,6,1,NA,NA
"1454",38,"second",14,1,1,6,1,NA,NA
"1455",38,"second",15,1,1,6,1,NA,NA
"1456",38,"second",16,1,1,6,1,NA,NA
"1457",38,"second",17,1,1,5,1,NA,NA
"1458",38,"second",18,1,1,6,1,NA,NA
"1459",38,"second",19,1,1,6,1,NA,NA
"1460",38,"second",20,1,1,6,1,NA,NA
"1461",38,"second",21,1,1,1,0,NA,NA
"1462",38,"second",22,1,1,6,0,NA,NA
"1463",38,"second",23,1,1,1,0,NA,NA
"1464",38,"second",24,1,1,6,0,NA,NA
"1465",38,"second",25,1,1,6,0,NA,NA
"1466",38,"second",26,1,1,6,0,NA,NA
"1467",38,"second",27,1,1,6,0,NA,NA
"1468",38,"second",28,1,1,6,0,NA,NA
"1469",38,"second",29,1,1,6,0,NA,NA
"1470",38,"second",30,1,1,6,0,NA,NA
"1471",38,"second",31,1,1,6,0,NA,NA
"1472",38,"second",32,1,1,6,0,NA,NA
"1473",38,"second",33,1,1,1,0,NA,NA
"1474",38,"second",34,1,1,6,0,NA,NA
"1475",38,"second",35,1,1,3,0,NA,NA
"1476",38,"second",36,1,1,1,0,NA,NA
"1477",38,"second",37,1,1,6,0,NA,NA
"1478",38,"second",38,1,1,5,0,NA,NA
"1479",38,"second",39,1,1,1,0,NA,NA
"1480",38,"second",40,1,1,6,0,NA,NA
"1481",39,"second",1,1,1,4,1,NA,NA
"1482",39,"second",2,1,1,4,1,NA,NA
"1483",39,"second",3,1,1,2,1,NA,NA
"1484",39,"second",4,1,1,3,1,NA,NA
"1485",39,"second",5,1,1,3,1,NA,NA
"1486",39,"second",6,1,1,5,1,NA,NA
"1487",39,"second",7,1,1,5,1,NA,NA
"1488",39,"second",8,1,1,4,1,NA,NA
"1489",39,"second",9,1,1,3,1,NA,NA
"1490",39,"second",10,1,1,4,1,NA,NA
"1491",39,"second",11,1,1,5,1,NA,NA
"1492",39,"second",12,1,1,5,1,NA,NA
"1493",39,"second",13,1,1,5,1,NA,NA
"1494",39,"second",14,1,1,5,1,NA,NA
"1495",39,"second",15,1,1,1,1,NA,NA
"1496",39,"second",16,1,1,2,1,NA,NA
"1497",39,"second",17,1,1,4,1,NA,NA
"1498",39,"second",18,1,1,4,1,NA,NA
"1499",39,"second",19,1,1,4,1,NA,NA
"1500",39,"second",20,1,1,4,1,NA,NA
"1501",39,"second",21,1,1,5,0,NA,NA
"1502",39,"second",22,1,1,3,0,NA,NA
"1503",39,"second",23,1,1,3,0,NA,NA
"1504",39,"second",24,1,1,3,0,NA,NA
"1505",39,"second",25,1,1,3,0,NA,NA
"1506",39,"second",26,1,1,3,0,NA,NA
"1507",39,"second",27,1,1,5,0,NA,NA
"1508",39,"second",28,1,1,4,0,NA,NA
"1509",39,"second",29,1,1,6,0,NA,NA
"1510",39,"second",30,1,1,4,0,NA,NA
"1511",39,"second",31,1,1,3,0,NA,NA
"1512",39,"second",32,1,1,4,0,NA,NA
"1513",39,"second",33,1,1,2,0,NA,NA
"1514",39,"second",34,1,1,3,0,NA,NA
"1515",39,"second",35,1,1,5,0,NA,NA
"1516",39,"second",36,1,1,4,0,NA,NA
"1517",39,"second",37,1,1,3,0,NA,NA
"1518",39,"second",38,1,1,5,0,NA,NA
"1519",39,"second",39,1,1,4,0,NA,NA
"1520",39,"second",40,1,1,3,0,NA,NA
"1521",40,"second",1,1,1,6,1,NA,NA
"1522",40,"second",2,1,1,4,1,NA,NA
"1523",40,"second",3,1,1,6,1,NA,NA
"1524",40,"second",4,1,1,5,1,NA,NA
"1525",40,"second",5,1,1,6,1,NA,NA
"1526",40,"second",6,1,1,5,1,NA,NA
"1527",40,"second",7,1,1,6,1,NA,NA
"1528",40,"second",8,1,1,6,1,NA,NA
"1529",40,"second",9,1,1,6,1,NA,NA
"1530",40,"second",10,1,1,4,1,NA,NA
"1531",40,"second",11,1,1,6,1,NA,NA
"1532",40,"second",12,1,1,6,1,NA,NA
"1533",40,"second",13,1,1,6,1,NA,NA
"1534",40,"second",14,1,1,6,1,NA,NA
"1535",40,"second",15,1,1,4,1,NA,NA
"1536",40,"second",16,1,1,4,1,NA,NA
"1537",40,"second",17,1,1,5,1,NA,NA
"1538",40,"second",18,1,1,6,1,NA,NA
"1539",40,"second",19,1,1,6,1,NA,NA
"1540",40,"second",20,1,1,4,1,NA,NA
"1541",40,"second",21,1,1,1,0,NA,NA
"1542",40,"second",22,1,1,4,0,NA,NA
"1543",40,"second",23,1,1,5,0,NA,NA
"1544",40,"second",24,1,1,5,0,NA,NA
"1545",40,"second",25,1,1,4,0,NA,NA
"1546",40,"second",26,1,1,6,0,NA,NA
"1547",40,"second",27,1,1,4,0,NA,NA
"1548",40,"second",28,1,1,6,0,NA,NA
"1549",40,"second",29,1,1,3,0,NA,NA
"1550",40,"second",30,1,1,5,0,NA,NA
"1551",40,"second",31,1,1,5,0,NA,NA
"1552",40,"second",32,1,1,6,0,NA,NA
"1553",40,"second",33,1,1,5,0,NA,NA
"1554",40,"second",34,1,1,4,0,NA,NA
"1555",40,"second",35,1,1,4,0,NA,NA
"1556",40,"second",36,1,1,1,0,NA,NA
"1557",40,"second",37,1,1,4,0,NA,NA
"1558",40,"second",38,1,1,4,0,NA,NA
"1559",40,"second",39,1,1,2,0,NA,NA
"1560",40,"second",40,1,1,4,0,NA,NA
"1561",41,"second",1,1,1,6,1,NA,NA
"1562",41,"second",2,1,1,6,1,NA,NA
"1563",41,"second",3,1,1,5,1,NA,NA
"1564",41,"second",4,1,1,6,1,NA,NA
"1565",41,"second",5,1,1,2,1,NA,NA
"1566",41,"second",6,1,1,6,1,NA,NA
"1567",41,"second",7,1,1,6,1,NA,NA
"1568",41,"second",8,1,1,1,1,NA,NA
"1569",41,"second",9,1,1,6,1,NA,NA
"1570",41,"second",10,1,1,3,1,NA,NA
"1571",41,"second",11,1,1,5,1,NA,NA
"1572",41,"second",12,1,1,6,1,NA,NA
"1573",41,"second",13,1,1,6,1,NA,NA
"1574",41,"second",14,1,1,6,1,NA,NA
"1575",41,"second",15,1,1,1,1,NA,NA
"1576",41,"second",16,1,1,1,1,NA,NA
"1577",41,"second",17,1,1,4,1,NA,NA
"1578",41,"second",18,1,1,5,1,NA,NA
"1579",41,"second",19,1,1,6,1,NA,NA
"1580",41,"second",20,1,1,4,1,NA,NA
"1581",41,"second",21,1,1,2,0,NA,NA
"1582",41,"second",22,1,1,6,0,NA,NA
"1583",41,"second",23,1,1,4,0,NA,NA
"1584",41,"second",24,1,1,6,0,NA,NA
"1585",41,"second",25,1,1,1,0,NA,NA
"1586",41,"second",26,1,1,6,0,NA,NA
"1587",41,"second",27,1,1,1,0,NA,NA
"1588",41,"second",28,1,1,6,0,NA,NA
"1589",41,"second",29,1,1,4,0,NA,NA
"1590",41,"second",30,1,1,3,0,NA,NA
"1591",41,"second",31,1,1,4,0,NA,NA
"1592",41,"second",32,1,1,4,0,NA,NA
"1593",41,"second",33,1,1,5,0,NA,NA
"1594",41,"second",34,1,1,1,0,NA,NA
"1595",41,"second",35,1,1,2,0,NA,NA
"1596",41,"second",36,1,1,3,0,NA,NA
"1597",41,"second",37,1,1,1,0,NA,NA
"1598",41,"second",38,1,1,5,0,NA,NA
"1599",41,"second",39,1,1,6,0,NA,NA
"1600",41,"second",40,1,1,6,0,NA,NA
"1601",42,"second",1,1,1,5,1,NA,NA
"1602",42,"second",2,1,1,6,1,NA,NA
"1603",42,"second",3,1,1,5,1,NA,NA
"1604",42,"second",4,1,1,6,1,NA,NA
"1605",42,"second",5,1,1,6,1,NA,NA
"1606",42,"second",6,1,1,5,1,NA,NA
"1607",42,"second",7,1,1,5,1,NA,NA
"1608",42,"second",8,1,1,5,1,NA,NA
"1609",42,"second",9,1,1,5,1,NA,NA
"1610",42,"second",10,1,1,5,1,NA,NA
"1611",42,"second",11,1,1,5,1,NA,NA
"1612",42,"second",12,1,1,6,1,NA,NA
"1613",42,"second",13,1,1,6,1,NA,NA
"1614",42,"second",14,1,1,5,1,NA,NA
"1615",42,"second",15,1,1,5,1,NA,NA
"1616",42,"second",16,1,1,5,1,NA,NA
"1617",42,"second",17,1,1,6,1,NA,NA
"1618",42,"second",18,1,1,5,1,NA,NA
"1619",42,"second",19,1,1,5,1,NA,NA
"1620",42,"second",20,1,1,6,1,NA,NA
"1621",42,"second",21,1,1,2,0,NA,NA
"1622",42,"second",22,1,1,4,0,NA,NA
"1623",42,"second",23,1,1,4,0,NA,NA
"1624",42,"second",24,1,1,4,0,NA,NA
"1625",42,"second",25,1,1,6,0,NA,NA
"1626",42,"second",26,1,1,4,0,NA,NA
"1627",42,"second",27,1,1,2,0,NA,NA
"1628",42,"second",28,1,1,6,0,NA,NA
"1629",42,"second",29,1,1,4,0,NA,NA
"1630",42,"second",30,1,1,6,0,NA,NA
"1631",42,"second",31,1,1,4,0,NA,NA
"1632",42,"second",32,1,1,4,0,NA,NA
"1633",42,"second",33,1,1,3,0,NA,NA
"1634",42,"second",34,1,1,3,0,NA,NA
"1635",42,"second",35,1,1,4,0,NA,NA
"1636",42,"second",36,1,1,3,0,NA,NA
"1637",42,"second",37,1,1,4,0,NA,NA
"1638",42,"second",38,1,1,6,0,NA,NA
"1639",42,"second",39,1,1,6,0,NA,NA
"1640",42,"second",40,1,1,6,0,NA,NA
"1641",43,"second",1,1,1,4,1,NA,NA
"1642",43,"second",2,1,1,4,1,NA,NA
"1643",43,"second",3,1,1,4,1,NA,NA
"1644",43,"second",4,1,1,4,1,NA,NA
"1645",43,"second",5,1,1,4,1,NA,NA
"1646",43,"second",6,1,1,4,1,NA,NA
"1647",43,"second",7,1,1,4,1,NA,NA
"1648",43,"second",8,1,1,4,1,NA,NA
"1649",43,"second",9,1,1,4,1,NA,NA
"1650",43,"second",10,1,1,3,1,NA,NA
"1651",43,"second",11,1,1,3,1,NA,NA
"1652",43,"second",12,1,1,5,1,NA,NA
"1653",43,"second",13,1,1,5,1,NA,NA
"1654",43,"second",14,1,1,5,1,NA,NA
"1655",43,"second",15,1,1,2,1,NA,NA
"1656",43,"second",16,1,1,4,1,NA,NA
"1657",43,"second",17,1,1,3,1,NA,NA
"1658",43,"second",18,1,1,4,1,NA,NA
"1659",43,"second",19,1,1,4,1,NA,NA
"1660",43,"second",20,1,1,3,1,NA,NA
"1661",43,"second",21,1,1,3,0,NA,NA
"1662",43,"second",22,1,1,5,0,NA,NA
"1663",43,"second",23,1,1,3,0,NA,NA
"1664",43,"second",24,1,1,3,0,NA,NA
"1665",43,"second",25,1,1,3,0,NA,NA
"1666",43,"second",26,1,1,4,0,NA,NA
"1667",43,"second",27,1,1,4,0,NA,NA
"1668",43,"second",28,1,1,4,0,NA,NA
"1669",43,"second",29,1,1,2,0,NA,NA
"1670",43,"second",30,1,1,5,0,NA,NA
"1671",43,"second",31,1,1,6,0,NA,NA
"1672",43,"second",32,1,1,3,0,NA,NA
"1673",43,"second",33,1,1,4,0,NA,NA
"1674",43,"second",34,1,1,3,0,NA,NA
"1675",43,"second",35,1,1,3,0,NA,NA
"1676",43,"second",36,1,1,3,0,NA,NA
"1677",43,"second",37,1,1,3,0,NA,NA
"1678",43,"second",38,1,1,4,0,NA,NA
"1679",43,"second",39,1,1,4,0,NA,NA
"1680",43,"second",40,1,1,5,0,NA,NA
"1681",44,"second",1,1,1,6,1,NA,NA
"1682",44,"second",2,1,1,6,1,NA,NA
"1683",44,"second",3,1,1,1,1,NA,NA
"1684",44,"second",4,1,1,6,1,NA,NA
"1685",44,"second",5,1,1,3,1,NA,NA
"1686",44,"second",6,1,1,6,1,NA,NA
"1687",44,"second",7,1,1,6,1,NA,NA
"1688",44,"second",8,1,1,3,1,NA,NA
"1689",44,"second",9,1,1,6,1,NA,NA
"1690",44,"second",10,1,1,1,1,NA,NA
"1691",44,"second",11,1,1,6,1,NA,NA
"1692",44,"second",12,1,1,3,1,NA,NA
"1693",44,"second",13,1,1,6,1,NA,NA
"1694",44,"second",14,1,1,4,1,NA,NA
"1695",44,"second",15,1,1,1,1,NA,NA
"1696",44,"second",16,1,1,4,1,NA,NA
"1697",44,"second",17,1,1,4,1,NA,NA
"1698",44,"second",18,1,1,6,1,NA,NA
"1699",44,"second",19,1,1,1,1,NA,NA
"1700",44,"second",20,1,1,5,1,NA,NA
"1701",44,"second",21,1,1,3,0,NA,NA
"1702",44,"second",22,1,1,6,0,NA,NA
"1703",44,"second",23,1,1,5,0,NA,NA
"1704",44,"second",24,1,1,6,0,NA,NA
"1705",44,"second",25,1,1,2,0,NA,NA
"1706",44,"second",26,1,1,5,0,NA,NA
"1707",44,"second",27,1,1,4,0,NA,NA
"1708",44,"second",28,1,1,5,0,NA,NA
"1709",44,"second",29,1,1,6,0,NA,NA
"1710",44,"second",30,1,1,3,0,NA,NA
"1711",44,"second",31,1,1,6,0,NA,NA
"1712",44,"second",32,1,1,6,0,NA,NA
"1713",44,"second",33,1,1,6,0,NA,NA
"1714",44,"second",34,1,1,1,0,NA,NA
"1715",44,"second",35,1,1,6,0,NA,NA
"1716",44,"second",36,1,1,1,0,NA,NA
"1717",44,"second",37,1,1,6,0,NA,NA
"1718",44,"second",38,1,1,5,0,NA,NA
"1719",44,"second",39,1,1,6,0,NA,NA
"1720",44,"second",40,1,1,1,0,NA,NA
"1721",45,"second",1,1,1,6,1,NA,NA
"1722",45,"second",2,1,1,6,1,NA,NA
"1723",45,"second",3,1,1,6,1,NA,NA
"1724",45,"second",4,1,1,6,1,NA,NA
"1725",45,"second",5,1,1,6,1,NA,NA
"1726",45,"second",6,1,1,6,1,NA,NA
"1727",45,"second",7,1,1,6,1,NA,NA
"1728",45,"second",8,1,1,6,1,NA,NA
"1729",45,"second",9,1,1,3,1,NA,NA
"1730",45,"second",10,1,1,6,1,NA,NA
"1731",45,"second",11,1,1,6,1,NA,NA
"1732",45,"second",12,1,1,6,1,NA,NA
"1733",45,"second",13,1,1,3,1,NA,NA
"1734",45,"second",14,1,1,6,1,NA,NA
"1735",45,"second",15,1,1,6,1,NA,NA
"1736",45,"second",16,1,1,6,1,NA,NA
"1737",45,"second",17,1,1,6,1,NA,NA
"1738",45,"second",18,1,1,3,1,NA,NA
"1739",45,"second",19,1,1,6,1,NA,NA
"1740",45,"second",20,1,1,6,1,NA,NA
"1741",45,"second",21,1,1,3,0,NA,NA
"1742",45,"second",22,1,1,3,0,NA,NA
"1743",45,"second",23,1,1,3,0,NA,NA
"1744",45,"second",24,1,1,1,0,NA,NA
"1745",45,"second",25,1,1,6,0,NA,NA
"1746",45,"second",26,1,1,3,0,NA,NA
"1747",45,"second",27,1,1,3,0,NA,NA
"1748",45,"second",28,1,1,6,0,NA,NA
"1749",45,"second",29,1,1,3,0,NA,NA
"1750",45,"second",30,1,1,3,0,NA,NA
"1751",45,"second",31,1,1,3,0,NA,NA
"1752",45,"second",32,1,1,6,0,NA,NA
"1753",45,"second",33,1,1,3,0,NA,NA
"1754",45,"second",34,1,1,3,0,NA,NA
"1755",45,"second",35,1,1,3,0,NA,NA
"1756",45,"second",36,1,1,1,0,NA,NA
"1757",45,"second",37,1,1,1,0,NA,NA
"1758",45,"second",38,1,1,3,0,NA,NA
"1759",45,"second",39,1,1,3,0,NA,NA
"1760",45,"second",40,1,1,1,0,NA,NA
"1761",46,"second",1,1,1,4,1,NA,NA
"1762",46,"second",2,1,1,6,1,NA,NA
"1763",46,"second",3,1,1,5,1,NA,NA
"1764",46,"second",4,1,1,5,1,NA,NA
"1765",46,"second",5,1,1,3,1,NA,NA
"1766",46,"second",6,1,1,4,1,NA,NA
"1767",46,"second",7,1,1,3,1,NA,NA
"1768",46,"second",8,1,1,4,1,NA,NA
"1769",46,"second",9,1,1,3,1,NA,NA
"1770",46,"second",10,1,1,3,1,NA,NA
"1771",46,"second",11,1,1,4,1,NA,NA
"1772",46,"second",12,1,1,3,1,NA,NA
"1773",46,"second",13,1,1,4,1,NA,NA
"1774",46,"second",14,1,1,5,1,NA,NA
"1775",46,"second",15,1,1,2,1,NA,NA
"1776",46,"second",16,1,1,6,1,NA,NA
"1777",46,"second",17,1,1,4,1,NA,NA
"1778",46,"second",18,1,1,3,1,NA,NA
"1779",46,"second",19,1,1,3,1,NA,NA
"1780",46,"second",20,1,1,3,1,NA,NA
"1781",46,"second",21,1,1,2,0,NA,NA
"1782",46,"second",22,1,1,3,0,NA,NA
"1783",46,"second",23,1,1,4,0,NA,NA
"1784",46,"second",24,1,1,3,0,NA,NA
"1785",46,"second",25,1,1,3,0,NA,NA
"1786",46,"second",26,1,1,3,0,NA,NA
"1787",46,"second",27,1,1,3,0,NA,NA
"1788",46,"second",28,1,1,3,0,NA,NA
"1789",46,"second",29,1,1,3,0,NA,NA
"1790",46,"second",30,1,1,5,0,NA,NA
"1791",46,"second",31,1,1,3,0,NA,NA
"1792",46,"second",32,1,1,1,0,NA,NA
"1793",46,"second",33,1,1,3,0,NA,NA
"1794",46,"second",34,1,1,2,0,NA,NA
"1795",46,"second",35,1,1,4,0,NA,NA
"1796",46,"second",36,1,1,3,0,NA,NA
"1797",46,"second",37,1,1,2,0,NA,NA
"1798",46,"second",38,1,1,3,0,NA,NA
"1799",46,"second",39,1,1,3,0,NA,NA
"1800",46,"second",40,1,1,4,0,NA,NA
"1801",47,"second",1,1,1,3,1,NA,NA
"1802",47,"second",2,1,1,1,1,NA,NA
"1803",47,"second",3,1,1,4,1,NA,NA
"1804",47,"second",4,1,1,4,1,NA,NA
"1805",47,"second",5,1,1,1,1,NA,NA
"1806",47,"second",6,1,1,6,1,NA,NA
"1807",47,"second",7,1,1,2,1,NA,NA
"1808",47,"second",8,1,1,2,1,NA,NA
"1809",47,"second",9,1,1,2,1,NA,NA
"1810",47,"second",10,1,1,1,1,NA,NA
"1811",47,"second",11,1,1,4,1,NA,NA
"1812",47,"second",12,1,1,6,1,NA,NA
"1813",47,"second",13,1,1,6,1,NA,NA
"1814",47,"second",14,1,1,3,1,NA,NA
"1815",47,"second",15,1,1,2,1,NA,NA
"1816",47,"second",16,1,1,4,1,NA,NA
"1817",47,"second",17,1,1,2,1,NA,NA
"1818",47,"second",18,1,1,4,1,NA,NA
"1819",47,"second",19,1,1,5,1,NA,NA
"1820",47,"second",20,1,1,5,1,NA,NA
"1821",47,"second",21,1,1,2,0,NA,NA
"1822",47,"second",22,1,1,6,0,NA,NA
"1823",47,"second",23,1,1,4,0,NA,NA
"1824",47,"second",24,1,1,4,0,NA,NA
"1825",47,"second",25,1,1,1,0,NA,NA
"1826",47,"second",26,1,1,6,0,NA,NA
"1827",47,"second",27,1,1,6,0,NA,NA
"1828",47,"second",28,1,1,5,0,NA,NA
"1829",47,"second",29,1,1,3,0,NA,NA
"1830",47,"second",30,1,1,4,0,NA,NA
"1831",47,"second",31,1,1,3,0,NA,NA
"1832",47,"second",32,1,1,6,0,NA,NA
"1833",47,"second",33,1,1,4,0,NA,NA
"1834",47,"second",34,1,1,3,0,NA,NA
"1835",47,"second",35,1,1,3,0,NA,NA
"1836",47,"second",36,1,1,3,0,NA,NA
"1837",47,"second",37,1,1,4,0,NA,NA
"1838",47,"second",38,1,1,4,0,NA,NA
"1839",47,"second",39,1,1,5,0,NA,NA
"1840",47,"second",40,1,1,4,0,NA,NA
"1841",48,"second",1,1,1,5,1,NA,NA
"1842",48,"second",2,1,1,1,1,NA,NA
"1843",48,"second",3,1,1,1,1,NA,NA
"1844",48,"second",4,1,1,4,1,NA,NA
"1845",48,"second",5,1,1,1,1,NA,NA
"1846",48,"second",6,1,1,2,1,NA,NA
"1847",48,"second",7,1,1,4,1,NA,NA
"1848",48,"second",8,1,1,4,1,NA,NA
"1849",48,"second",9,1,1,2,1,NA,NA
"1850",48,"second",10,1,1,1,1,NA,NA
"1851",48,"second",11,1,1,5,1,NA,NA
"1852",48,"second",12,1,1,1,1,NA,NA
"1853",48,"second",13,1,1,6,1,NA,NA
"1854",48,"second",14,1,1,6,1,NA,NA
"1855",48,"second",15,1,1,6,1,NA,NA
"1856",48,"second",16,1,1,1,1,NA,NA
"1857",48,"second",17,1,1,4,1,NA,NA
"1858",48,"second",18,1,1,4,1,NA,NA
"1859",48,"second",19,1,1,3,1,NA,NA
"1860",48,"second",20,1,1,3,1,NA,NA
"1861",48,"second",21,1,1,1,0,NA,NA
"1862",48,"second",22,1,1,3,0,NA,NA
"1863",48,"second",23,1,1,3,0,NA,NA
"1864",48,"second",24,1,1,2,0,NA,NA
"1865",48,"second",25,1,1,2,0,NA,NA
"1866",48,"second",26,1,1,4,0,NA,NA
"1867",48,"second",27,1,1,5,0,NA,NA
"1868",48,"second",28,1,1,6,0,NA,NA
"1869",48,"second",29,1,1,5,0,NA,NA
"1870",48,"second",30,1,1,5,0,NA,NA
"1871",48,"second",31,1,1,4,0,NA,NA
"1872",48,"second",32,1,1,6,0,NA,NA
"1873",48,"second",33,1,1,6,0,NA,NA
"1874",48,"second",34,1,1,3,0,NA,NA
"1875",48,"second",35,1,1,5,0,NA,NA
"1876",48,"second",36,1,1,3,0,NA,NA
"1877",48,"second",37,1,1,1,0,NA,NA
"1878",48,"second",38,1,1,6,0,NA,NA
"1879",48,"second",39,1,1,1,0,NA,NA
"1880",48,"second",40,1,1,5,0,NA,NA
"1881",49,"second",1,1,1,6,1,NA,NA
"1882",49,"second",2,1,1,6,1,NA,NA
"1883",49,"second",3,1,1,6,1,NA,NA
"1884",49,"second",4,1,1,6,1,NA,NA
"1885",49,"second",5,1,1,2,1,NA,NA
"1886",49,"second",6,1,1,6,1,NA,NA
"1887",49,"second",7,1,1,6,1,NA,NA
"1888",49,"second",8,1,1,6,1,NA,NA
"1889",49,"second",9,1,1,6,1,NA,NA
"1890",49,"second",10,1,1,6,1,NA,NA
"1891",49,"second",11,1,1,6,1,NA,NA
"1892",49,"second",12,1,1,6,1,NA,NA
"1893",49,"second",13,1,1,6,1,NA,NA
"1894",49,"second",14,1,1,6,1,NA,NA
"1895",49,"second",15,1,1,6,1,NA,NA
"1896",49,"second",16,1,1,6,1,NA,NA
"1897",49,"second",17,1,1,6,1,NA,NA
"1898",49,"second",18,1,1,5,1,NA,NA
"1899",49,"second",19,1,1,6,1,NA,NA
"1900",49,"second",20,1,1,6,1,NA,NA
"1901",49,"second",21,1,1,1,0,NA,NA
"1902",49,"second",22,1,1,4,0,NA,NA
"1903",49,"second",23,1,1,3,0,NA,NA
"1904",49,"second",24,1,1,3,0,NA,NA
"1905",49,"second",25,1,1,2,0,NA,NA
"1906",49,"second",26,1,1,4,0,NA,NA
"1907",49,"second",27,1,1,3,0,NA,NA
"1908",49,"second",28,1,1,6,0,NA,NA
"1909",49,"second",29,1,1,4,0,NA,NA
"1910",49,"second",30,1,1,4,0,NA,NA
"1911",49,"second",31,1,1,3,0,NA,NA
"1912",49,"second",32,1,1,3,0,NA,NA
"1913",49,"second",33,1,1,4,0,NA,NA
"1914",49,"second",34,1,1,3,0,NA,NA
"1915",49,"second",35,1,1,4,0,NA,NA
"1916",49,"second",36,1,1,3,0,NA,NA
"1917",49,"second",37,1,1,3,0,NA,NA
"1918",49,"second",38,1,1,3,0,NA,NA
"1919",49,"second",39,1,1,4,0,NA,NA
"1920",49,"second",40,1,1,3,0,NA,NA
"1921",50,"second",1,1,1,6,1,NA,NA
"1922",50,"second",2,1,1,6,1,NA,NA
"1923",50,"second",3,1,1,5,1,NA,NA
"1924",50,"second",4,1,1,6,1,NA,NA
"1925",50,"second",5,1,1,6,1,NA,NA
"1926",50,"second",6,1,1,6,1,NA,NA
"1927",50,"second",7,1,1,3,1,NA,NA
"1928",50,"second",8,1,1,3,1,NA,NA
"1929",50,"second",9,1,1,1,1,NA,NA
"1930",50,"second",10,1,1,4,1,NA,NA
"1931",50,"second",11,1,1,6,1,NA,NA
"1932",50,"second",12,1,1,6,1,NA,NA
"1933",50,"second",13,1,1,6,1,NA,NA
"1934",50,"second",14,1,1,3,1,NA,NA
"1935",50,"second",15,1,1,6,1,NA,NA
"1936",50,"second",16,1,1,2,1,NA,NA
"1937",50,"second",17,1,1,3,1,NA,NA
"1938",50,"second",18,1,1,4,1,NA,NA
"1939",50,"second",19,1,1,1,1,NA,NA
"1940",50,"second",20,1,1,4,1,NA,NA
"1941",50,"second",21,1,1,4,0,NA,NA
"1942",50,"second",22,1,1,4,0,NA,NA
"1943",50,"second",23,1,1,6,0,NA,NA
"1944",50,"second",24,1,1,4,0,NA,NA
"1945",50,"second",25,1,1,4,0,NA,NA
"1946",50,"second",26,1,1,4,0,NA,NA
"1947",50,"second",27,1,1,3,0,NA,NA
"1948",50,"second",28,1,1,4,0,NA,NA
"1949",50,"second",29,1,1,3,0,NA,NA
"1950",50,"second",30,1,1,6,0,NA,NA
"1951",50,"second",31,1,1,4,0,NA,NA
"1952",50,"second",32,1,1,3,0,NA,NA
"1953",50,"second",33,1,1,5,0,NA,NA
"1954",50,"second",34,1,1,4,0,NA,NA
"1955",50,"second",35,1,1,4,0,NA,NA
"1956",50,"second",36,1,1,5,0,NA,NA
"1957",50,"second",37,1,1,1,0,NA,NA
"1958",50,"second",38,1,1,4,0,NA,NA
"1959",50,"second",39,1,1,5,0,NA,NA
"1960",50,"second",40,1,1,6,0,NA,NA
"1961",51,"second",1,1,1,5,1,NA,NA
"1962",51,"second",2,1,1,6,1,NA,NA
"1963",51,"second",3,1,1,3,1,NA,NA
"1964",51,"second",4,1,1,6,1,NA,NA
"1965",51,"second",5,1,1,2,1,NA,NA
"1966",51,"second",6,1,1,2,1,NA,NA
"1967",51,"second",7,1,1,5,1,NA,NA
"1968",51,"second",8,1,1,2,1,NA,NA
"1969",51,"second",9,1,1,5,1,NA,NA
"1970",51,"second",10,1,1,2,1,NA,NA
"1971",51,"second",11,1,1,6,1,NA,NA
"1972",51,"second",12,1,1,6,1,NA,NA
"1973",51,"second",13,1,1,6,1,NA,NA
"1974",51,"second",14,1,1,5,1,NA,NA
"1975",51,"second",15,1,1,6,1,NA,NA
"1976",51,"second",16,1,1,4,1,NA,NA
"1977",51,"second",17,1,1,4,1,NA,NA
"1978",51,"second",18,1,1,5,1,NA,NA
"1979",51,"second",19,1,1,6,1,NA,NA
"1980",51,"second",20,1,1,3,1,NA,NA
"1981",51,"second",21,1,1,1,0,NA,NA
"1982",51,"second",22,1,1,6,0,NA,NA
"1983",51,"second",23,1,1,5,0,NA,NA
"1984",51,"second",24,1,1,3,0,NA,NA
"1985",51,"second",25,1,1,6,0,NA,NA
"1986",51,"second",26,1,1,6,0,NA,NA
"1987",51,"second",27,1,1,1,0,NA,NA
"1988",51,"second",28,1,1,1,0,NA,NA
"1989",51,"second",29,1,1,2,0,NA,NA
"1990",51,"second",30,1,1,4,0,NA,NA
"1991",51,"second",31,1,1,4,0,NA,NA
"1992",51,"second",32,1,1,1,0,NA,NA
"1993",51,"second",33,1,1,3,0,NA,NA
"1994",51,"second",34,1,1,4,0,NA,NA
"1995",51,"second",35,1,1,3,0,NA,NA
"1996",51,"second",36,1,1,2,0,NA,NA
"1997",51,"second",37,1,1,1,0,NA,NA
"1998",51,"second",38,1,1,3,0,NA,NA
"1999",51,"second",39,1,1,4,0,NA,NA
"2000",51,"second",40,1,1,6,0,NA,NA
"2001",52,"second",1,1,1,6,1,NA,NA
"2002",52,"second",2,1,1,1,1,NA,NA
"2003",52,"second",3,1,1,1,1,NA,NA
"2004",52,"second",4,1,1,6,1,NA,NA
"2005",52,"second",5,1,1,1,1,NA,NA
"2006",52,"second",6,1,1,6,1,NA,NA
"2007",52,"second",7,1,1,6,1,NA,NA
"2008",52,"second",8,1,1,4,1,NA,NA
"2009",52,"second",9,1,1,4,1,NA,NA
"2010",52,"second",10,1,1,6,1,NA,NA
"2011",52,"second",11,1,1,6,1,NA,NA
"2012",52,"second",12,1,1,4,1,NA,NA
"2013",52,"second",13,1,1,6,1,NA,NA
"2014",52,"second",14,1,1,4,1,NA,NA
"2015",52,"second",15,1,1,1,1,NA,NA
"2016",52,"second",16,1,1,3,1,NA,NA
"2017",52,"second",17,1,1,3,1,NA,NA
"2018",52,"second",18,1,1,5,1,NA,NA
"2019",52,"second",19,1,1,2,1,NA,NA
"2020",52,"second",20,1,1,3,1,NA,NA
"2021",52,"second",21,1,1,1,0,NA,NA
"2022",52,"second",22,1,1,3,0,NA,NA
"2023",52,"second",23,1,1,4,0,NA,NA
"2024",52,"second",24,1,1,3,0,NA,NA
"2025",52,"second",25,1,1,2,0,NA,NA
"2026",52,"second",26,1,1,2,0,NA,NA
"2027",52,"second",27,1,1,2,0,NA,NA
"2028",52,"second",28,1,1,5,0,NA,NA
"2029",52,"second",29,1,1,3,0,NA,NA
"2030",52,"second",30,1,1,4,0,NA,NA
"2031",52,"second",31,1,1,3,0,NA,NA
"2032",52,"second",32,1,1,5,0,NA,NA
"2033",52,"second",33,1,1,5,0,NA,NA
"2034",52,"second",34,1,1,2,0,NA,NA
"2035",52,"second",35,1,1,4,0,NA,NA
"2036",52,"second",36,1,1,4,0,NA,NA
"2037",52,"second",37,1,1,2,0,NA,NA
"2038",52,"second",38,1,1,4,0,NA,NA
"2039",52,"second",39,1,1,2,0,NA,NA
"2040",52,"second",40,1,1,3,0,NA,NA
"2041",53,"second",1,1,1,6,1,NA,NA
"2042",53,"second",2,1,1,1,1,NA,NA
"2043",53,"second",3,1,1,2,1,NA,NA
"2044",53,"second",4,1,1,5,1,NA,NA
"2045",53,"second",5,1,1,1,1,NA,NA
"2046",53,"second",6,1,1,3,1,NA,NA
"2047",53,"second",7,1,1,5,1,NA,NA
"2048",53,"second",8,1,1,2,1,NA,NA
"2049",53,"second",9,1,1,2,1,NA,NA
"2050",53,"second",10,1,1,1,1,NA,NA
"2051",53,"second",11,1,1,6,1,NA,NA
"2052",53,"second",12,1,1,6,1,NA,NA
"2053",53,"second",13,1,1,6,1,NA,NA
"2054",53,"second",14,1,1,5,1,NA,NA
"2055",53,"second",15,1,1,1,1,NA,NA
"2056",53,"second",16,1,1,2,1,NA,NA
"2057",53,"second",17,1,1,1,1,NA,NA
"2058",53,"second",18,1,1,6,1,NA,NA
"2059",53,"second",19,1,1,1,1,NA,NA
"2060",53,"second",20,1,1,5,1,NA,NA
"2061",53,"second",21,1,1,2,0,NA,NA
"2062",53,"second",22,1,1,5,0,NA,NA
"2063",53,"second",23,1,1,4,0,NA,NA
"2064",53,"second",24,1,1,4,0,NA,NA
"2065",53,"second",25,1,1,1,0,NA,NA
"2066",53,"second",26,1,1,4,0,NA,NA
"2067",53,"second",27,1,1,4,0,NA,NA
"2068",53,"second",28,1,1,6,0,NA,NA
"2069",53,"second",29,1,1,6,0,NA,NA
"2070",53,"second",30,1,1,6,0,NA,NA
"2071",53,"second",31,1,1,4,0,NA,NA
"2072",53,"second",32,1,1,6,0,NA,NA
"2073",53,"second",33,1,1,6,0,NA,NA
"2074",53,"second",34,1,1,5,0,NA,NA
"2075",53,"second",35,1,1,5,0,NA,NA
"2076",53,"second",36,1,1,3,0,NA,NA
"2077",53,"second",37,1,1,1,0,NA,NA
"2078",53,"second",38,1,1,5,0,NA,NA
"2079",53,"second",39,1,1,1,0,NA,NA
"2080",53,"second",40,1,1,5,0,NA,NA
"2081",54,"second",1,1,1,6,1,NA,NA
"2082",54,"second",2,1,1,1,1,NA,NA
"2083",54,"second",3,1,1,6,1,NA,NA
"2084",54,"second",4,1,1,5,1,NA,NA
"2085",54,"second",5,1,1,6,1,NA,NA
"2086",54,"second",6,1,1,4,1,NA,NA
"2087",54,"second",7,1,1,3,1,NA,NA
"2088",54,"second",8,1,1,6,1,NA,NA
"2089",54,"second",9,1,1,5,1,NA,NA
"2090",54,"second",10,1,1,3,1,NA,NA
"2091",54,"second",11,1,1,6,1,NA,NA
"2092",54,"second",12,1,1,6,1,NA,NA
"2093",54,"second",13,1,1,6,1,NA,NA
"2094",54,"second",14,1,1,2,1,NA,NA
"2095",54,"second",15,1,1,6,1,NA,NA
"2096",54,"second",16,1,1,3,1,NA,NA
"2097",54,"second",17,1,1,6,1,NA,NA
"2098",54,"second",18,1,1,4,1,NA,NA
"2099",54,"second",19,1,1,6,1,NA,NA
"2100",54,"second",20,1,1,4,1,NA,NA
"2101",54,"second",21,1,1,1,0,NA,NA
"2102",54,"second",22,1,1,4,0,NA,NA
"2103",54,"second",23,1,1,2,0,NA,NA
"2104",54,"second",24,1,1,5,0,NA,NA
"2105",54,"second",25,1,1,6,0,NA,NA
"2106",54,"second",26,1,1,4,0,NA,NA
"2107",54,"second",27,1,1,1,0,NA,NA
"2108",54,"second",28,1,1,6,0,NA,NA
"2109",54,"second",29,1,1,2,0,NA,NA
"2110",54,"second",30,1,1,6,0,NA,NA
"2111",54,"second",31,1,1,3,0,NA,NA
"2112",54,"second",32,1,1,2,0,NA,NA
"2113",54,"second",33,1,1,5,0,NA,NA
"2114",54,"second",34,1,1,4,0,NA,NA
"2115",54,"second",35,1,1,5,0,NA,NA
"2116",54,"second",36,1,1,5,0,NA,NA
"2117",54,"second",37,1,1,5,0,NA,NA
"2118",54,"second",38,1,1,4,0,NA,NA
"2119",54,"second",39,1,1,3,0,NA,NA
"2120",54,"second",40,1,1,2,0,NA,NA
"2121",55,"second",1,1,1,6,1,NA,NA
"2122",55,"second",2,1,1,4,1,NA,NA
"2123",55,"second",3,1,1,5,1,NA,NA
"2124",55,"second",4,1,1,4,1,NA,NA
"2125",55,"second",5,1,1,5,1,NA,NA
"2126",55,"second",6,1,1,6,1,NA,NA
"2127",55,"second",7,1,1,3,1,NA,NA
"2128",55,"second",8,1,1,3,1,NA,NA
"2129",55,"second",9,1,1,4,1,NA,NA
"2130",55,"second",10,1,1,2,1,NA,NA
"2131",55,"second",11,1,1,3,1,NA,NA
"2132",55,"second",12,1,1,6,1,NA,NA
"2133",55,"second",13,1,1,5,1,NA,NA
"2134",55,"second",14,1,1,4,1,NA,NA
"2135",55,"second",15,1,1,1,1,NA,NA
"2136",55,"second",16,1,1,4,1,NA,NA
"2137",55,"second",17,1,1,2,1,NA,NA
"2138",55,"second",18,1,1,4,1,NA,NA
"2139",55,"second",19,1,1,2,1,NA,NA
"2140",55,"second",20,1,1,3,1,NA,NA
"2141",55,"second",21,1,1,3,0,NA,NA
"2142",55,"second",22,1,1,4,0,NA,NA
"2143",55,"second",23,1,1,3,0,NA,NA
"2144",55,"second",24,1,1,1,0,NA,NA
"2145",55,"second",25,1,1,4,0,NA,NA
"2146",55,"second",26,1,1,6,0,NA,NA
"2147",55,"second",27,1,1,2,0,NA,NA
"2148",55,"second",28,1,1,4,0,NA,NA
"2149",55,"second",29,1,1,3,0,NA,NA
"2150",55,"second",30,1,1,4,0,NA,NA
"2151",55,"second",31,1,1,3,0,NA,NA
"2152",55,"second",32,1,1,4,0,NA,NA
"2153",55,"second",33,1,1,5,0,NA,NA
"2154",55,"second",34,1,1,1,0,NA,NA
"2155",55,"second",35,1,1,5,0,NA,NA
"2156",55,"second",36,1,1,3,0,NA,NA
"2157",55,"second",37,1,1,1,0,NA,NA
"2158",55,"second",38,1,1,1,0,NA,NA
"2159",55,"second",39,1,1,1,0,NA,NA
"2160",55,"second",40,1,1,3,0,NA,NA
"2161",57,"second",1,1,1,2,1,NA,NA
"2162",57,"second",2,1,1,3,1,NA,NA
"2163",57,"second",3,1,1,6,1,NA,NA
"2164",57,"second",4,1,1,2,1,NA,NA
"2165",57,"second",5,1,1,1,1,NA,NA
"2166",57,"second",6,1,1,6,1,NA,NA
"2167",57,"second",7,1,1,5,1,NA,NA
"2168",57,"second",8,1,1,2,1,NA,NA
"2169",57,"second",9,1,1,6,1,NA,NA
"2170",57,"second",10,1,1,5,1,NA,NA
"2171",57,"second",11,1,1,2,1,NA,NA
"2172",57,"second",12,1,1,6,1,NA,NA
"2173",57,"second",13,1,1,1,1,NA,NA
"2174",57,"second",14,1,1,4,1,NA,NA
"2175",57,"second",15,1,1,6,1,NA,NA
"2176",57,"second",16,1,1,5,1,NA,NA
"2177",57,"second",17,1,1,2,1,NA,NA
"2178",57,"second",18,1,1,6,1,NA,NA
"2179",57,"second",19,1,1,5,1,NA,NA
"2180",57,"second",20,1,1,2,1,NA,NA
"2181",57,"second",21,1,1,5,0,NA,NA
"2182",57,"second",22,1,1,5,0,NA,NA
"2183",57,"second",23,1,1,2,0,NA,NA
"2184",57,"second",24,1,1,4,0,NA,NA
"2185",57,"second",25,1,1,3,0,NA,NA
"2186",57,"second",26,1,1,2,0,NA,NA
"2187",57,"second",27,1,1,5,0,NA,NA
"2188",57,"second",28,1,1,3,0,NA,NA
"2189",57,"second",29,1,1,4,0,NA,NA
"2190",57,"second",30,1,1,1,0,NA,NA
"2191",57,"second",31,1,1,5,0,NA,NA
"2192",57,"second",32,1,1,6,0,NA,NA
"2193",57,"second",33,1,1,6,0,NA,NA
"2194",57,"second",34,1,1,2,0,NA,NA
"2195",57,"second",35,1,1,3,0,NA,NA
"2196",57,"second",36,1,1,5,0,NA,NA
"2197",57,"second",37,1,1,2,0,NA,NA
"2198",57,"second",38,1,1,4,0,NA,NA
"2199",57,"second",39,1,1,4,0,NA,NA
"2200",57,"second",40,1,1,2,0,NA,NA
"2201",58,"second",1,1,1,6,1,NA,NA
"2202",58,"second",2,1,1,6,1,NA,NA
"2203",58,"second",3,1,1,5,1,NA,NA
"2204",58,"second",4,1,1,6,1,NA,NA
"2205",58,"second",5,1,1,5,1,NA,NA
"2206",58,"second",6,1,1,5,1,NA,NA
"2207",58,"second",7,1,1,5,1,NA,NA
"2208",58,"second",8,1,1,6,1,NA,NA
"2209",58,"second",9,1,1,5,1,NA,NA
"2210",58,"second",10,1,1,5,1,NA,NA
"2211",58,"second",11,1,1,5,1,NA,NA
"2212",58,"second",12,1,1,6,1,NA,NA
"2213",58,"second",13,1,1,6,1,NA,NA
"2214",58,"second",14,1,1,6,1,NA,NA
"2215",58,"second",15,1,1,6,1,NA,NA
"2216",58,"second",16,1,1,6,1,NA,NA
"2217",58,"second",17,1,1,6,1,NA,NA
"2218",58,"second",18,1,1,6,1,NA,NA
"2219",58,"second",19,1,1,6,1,NA,NA
"2220",58,"second",20,1,1,5,1,NA,NA
"2221",58,"second",21,1,1,3,0,NA,NA
"2222",58,"second",22,1,1,4,0,NA,NA
"2223",58,"second",23,1,1,4,0,NA,NA
"2224",58,"second",24,1,1,4,0,NA,NA
"2225",58,"second",25,1,1,2,0,NA,NA
"2226",58,"second",26,1,1,5,0,NA,NA
"2227",58,"second",27,1,1,4,0,NA,NA
"2228",58,"second",28,1,1,6,0,NA,NA
"2229",58,"second",29,1,1,4,0,NA,NA
"2230",58,"second",30,1,1,4,0,NA,NA
"2231",58,"second",31,1,1,3,0,NA,NA
"2232",58,"second",32,1,1,4,0,NA,NA
"2233",58,"second",33,1,1,5,0,NA,NA
"2234",58,"second",34,1,1,3,0,NA,NA
"2235",58,"second",35,1,1,4,0,NA,NA
"2236",58,"second",36,1,1,4,0,NA,NA
"2237",58,"second",37,1,1,4,0,NA,NA
"2238",58,"second",38,1,1,3,0,NA,NA
"2239",58,"second",39,1,1,4,0,NA,NA
"2240",58,"second",40,1,1,4,0,NA,NA
"2241",59,"second",1,1,1,5,1,NA,NA
"2242",59,"second",2,1,1,4,1,NA,NA
"2243",59,"second",3,1,1,3,1,NA,NA
"2244",59,"second",4,1,1,3,1,NA,NA
"2245",59,"second",5,1,1,4,1,NA,NA
"2246",59,"second",6,1,1,4,1,NA,NA
"2247",59,"second",7,1,1,3,1,NA,NA
"2248",59,"second",8,1,1,3,1,NA,NA
"2249",59,"second",9,1,1,3,1,NA,NA
"2250",59,"second",10,1,1,3,1,NA,NA
"2251",59,"second",11,1,1,4,1,NA,NA
"2252",59,"second",12,1,1,3,1,NA,NA
"2253",59,"second",13,1,1,4,1,NA,NA
"2254",59,"second",14,1,1,3,1,NA,NA
"2255",59,"second",15,1,1,2,1,NA,NA
"2256",59,"second",16,1,1,2,1,NA,NA
"2257",59,"second",17,1,1,3,1,NA,NA
"2258",59,"second",18,1,1,4,1,NA,NA
"2259",59,"second",19,1,1,4,1,NA,NA
"2260",59,"second",20,1,1,4,1,NA,NA
"2261",59,"second",21,1,1,2,0,NA,NA
"2262",59,"second",22,1,1,3,0,NA,NA
"2263",59,"second",23,1,1,3,0,NA,NA
"2264",59,"second",24,1,1,2,0,NA,NA
"2265",59,"second",25,1,1,4,0,NA,NA
"2266",59,"second",26,1,1,5,0,NA,NA
"2267",59,"second",27,1,1,5,0,NA,NA
"2268",59,"second",28,1,1,4,0,NA,NA
"2269",59,"second",29,1,1,2,0,NA,NA
"2270",59,"second",30,1,1,4,0,NA,NA
"2271",59,"second",31,1,1,2,0,NA,NA
"2272",59,"second",32,1,1,2,0,NA,NA
"2273",59,"second",33,1,1,4,0,NA,NA
"2274",59,"second",34,1,1,4,0,NA,NA
"2275",59,"second",35,1,1,4,0,NA,NA
"2276",59,"second",36,1,1,3,0,NA,NA
"2277",59,"second",37,1,1,2,0,NA,NA
"2278",59,"second",38,1,1,4,0,NA,NA
"2279",59,"second",39,1,1,3,0,NA,NA
"2280",59,"second",40,1,1,4,0,NA,NA
"2281",60,"second",1,1,1,3,1,NA,NA
"2282",60,"second",2,1,1,1,1,NA,NA
"2283",60,"second",3,1,1,6,1,NA,NA
"2284",60,"second",4,1,1,6,1,NA,NA
"2285",60,"second",5,1,1,4,1,NA,NA
"2286",60,"second",6,1,1,6,1,NA,NA
"2287",60,"second",7,1,1,5,1,NA,NA
"2288",60,"second",8,1,1,6,1,NA,NA
"2289",60,"second",9,1,1,6,1,NA,NA
"2290",60,"second",10,1,1,6,1,NA,NA
"2291",60,"second",11,1,1,6,1,NA,NA
"2292",60,"second",12,1,1,3,1,NA,NA
"2293",60,"second",13,1,1,6,1,NA,NA
"2294",60,"second",14,1,1,6,1,NA,NA
"2295",60,"second",15,1,1,6,1,NA,NA
"2296",60,"second",16,1,1,6,1,NA,NA
"2297",60,"second",17,1,1,6,1,NA,NA
"2298",60,"second",18,1,1,6,1,NA,NA
"2299",60,"second",19,1,1,6,1,NA,NA
"2300",60,"second",20,1,1,6,1,NA,NA
"2301",60,"second",21,1,1,3,0,NA,NA
"2302",60,"second",22,1,1,1,0,NA,NA
"2303",60,"second",23,1,1,3,0,NA,NA
"2304",60,"second",24,1,1,3,0,NA,NA
"2305",60,"second",25,1,1,4,0,NA,NA
"2306",60,"second",26,1,1,1,0,NA,NA
"2307",60,"second",27,1,1,3,0,NA,NA
"2308",60,"second",28,1,1,4,0,NA,NA
"2309",60,"second",29,1,1,4,0,NA,NA
"2310",60,"second",30,1,1,6,0,NA,NA
"2311",60,"second",31,1,1,3,0,NA,NA
"2312",60,"second",32,1,1,3,0,NA,NA
"2313",60,"second",33,1,1,3,0,NA,NA
"2314",60,"second",34,1,1,3,0,NA,NA
"2315",60,"second",35,1,1,1,0,NA,NA
"2316",60,"second",36,1,1,4,0,NA,NA
"2317",60,"second",37,1,1,1,0,NA,NA
"2318",60,"second",38,1,1,4,0,NA,NA
"2319",60,"second",39,1,1,1,0,NA,NA
"2320",60,"second",40,1,1,3,0,NA,NA
"2321",61,"second",1,1,1,6,1,NA,NA
"2322",61,"second",2,1,1,1,1,NA,NA
"2323",61,"second",3,1,1,4,1,NA,NA
"2324",61,"second",4,1,1,6,1,NA,NA
"2325",61,"second",5,1,1,2,1,NA,NA
"2326",61,"second",6,1,1,6,1,NA,NA
"2327",61,"second",7,1,1,3,1,NA,NA
"2328",61,"second",8,1,1,6,1,NA,NA
"2329",61,"second",9,1,1,6,1,NA,NA
"2330",61,"second",10,1,1,6,1,NA,NA
"2331",61,"second",11,1,1,5,1,NA,NA
"2332",61,"second",12,1,1,6,1,NA,NA
"2333",61,"second",13,1,1,4,1,NA,NA
"2334",61,"second",14,1,1,3,1,NA,NA
"2335",61,"second",15,1,1,6,1,NA,NA
"2336",61,"second",16,1,1,6,1,NA,NA
"2337",61,"second",17,1,1,6,1,NA,NA
"2338",61,"second",18,1,1,5,1,NA,NA
"2339",61,"second",19,1,1,6,1,NA,NA
"2340",61,"second",20,1,1,6,1,NA,NA
"2341",61,"second",21,1,1,6,0,NA,NA
"2342",61,"second",22,1,1,4,0,NA,NA
"2343",61,"second",23,1,1,5,0,NA,NA
"2344",61,"second",24,1,1,4,0,NA,NA
"2345",61,"second",25,1,1,2,0,NA,NA
"2346",61,"second",26,1,1,5,0,NA,NA
"2347",61,"second",27,1,1,3,0,NA,NA
"2348",61,"second",28,1,1,5,0,NA,NA
"2349",61,"second",29,1,1,6,0,NA,NA
"2350",61,"second",30,1,1,6,0,NA,NA
"2351",61,"second",31,1,1,5,0,NA,NA
"2352",61,"second",32,1,1,4,0,NA,NA
"2353",61,"second",33,1,1,5,0,NA,NA
"2354",61,"second",34,1,1,4,0,NA,NA
"2355",61,"second",35,1,1,3,0,NA,NA
"2356",61,"second",36,1,1,2,0,NA,NA
"2357",61,"second",37,1,1,5,0,NA,NA
"2358",61,"second",38,1,1,4,0,NA,NA
"2359",61,"second",39,1,1,4,0,NA,NA
"2360",61,"second",40,1,1,5,0,NA,NA
"2361",62,"second",1,1,1,5,1,NA,NA
"2362",62,"second",2,1,1,2,1,NA,NA
"2363",62,"second",3,1,1,2,1,NA,NA
"2364",62,"second",4,1,1,6,1,NA,NA
"2365",62,"second",5,1,1,2,1,NA,NA
"2366",62,"second",6,1,1,6,1,NA,NA
"2367",62,"second",7,1,1,5,1,NA,NA
"2368",62,"second",8,1,1,1,1,NA,NA
"2369",62,"second",9,1,1,6,1,NA,NA
"2370",62,"second",10,1,1,5,1,NA,NA
"2371",62,"second",11,1,1,4,1,NA,NA
"2372",62,"second",12,1,1,3,1,NA,NA
"2373",62,"second",13,1,1,1,1,NA,NA
"2374",62,"second",14,1,1,5,1,NA,NA
"2375",62,"second",15,1,1,5,1,NA,NA
"2376",62,"second",16,1,1,3,1,NA,NA
"2377",62,"second",17,1,1,6,1,NA,NA
"2378",62,"second",18,1,1,5,1,NA,NA
"2379",62,"second",19,1,1,1,1,NA,NA
"2380",62,"second",20,1,1,2,1,NA,NA
"2381",62,"second",21,1,1,6,0,NA,NA
"2382",62,"second",22,1,1,5,0,NA,NA
"2383",62,"second",23,1,1,5,0,NA,NA
"2384",62,"second",24,1,1,4,0,NA,NA
"2385",62,"second",25,1,1,2,0,NA,NA
"2386",62,"second",26,1,1,4,0,NA,NA
"2387",62,"second",27,1,1,4,0,NA,NA
"2388",62,"second",28,1,1,4,0,NA,NA
"2389",62,"second",29,1,1,4,0,NA,NA
"2390",62,"second",30,1,1,6,0,NA,NA
"2391",62,"second",31,1,1,6,0,NA,NA
"2392",62,"second",32,1,1,1,0,NA,NA
"2393",62,"second",33,1,1,4,0,NA,NA
"2394",62,"second",34,1,1,5,0,NA,NA
"2395",62,"second",35,1,1,2,0,NA,NA
"2396",62,"second",36,1,1,4,0,NA,NA
"2397",62,"second",37,1,1,2,0,NA,NA
"2398",62,"second",38,1,1,2,0,NA,NA
"2399",62,"second",39,1,1,1,0,NA,NA
"2400",62,"second",40,1,1,5,0,NA,NA
"2401",63,"second",1,1,1,6,1,NA,NA
"2402",63,"second",2,1,1,6,1,NA,NA
"2403",63,"second",3,1,1,6,1,NA,NA
"2404",63,"second",4,1,1,5,1,NA,NA
"2405",63,"second",5,1,1,6,1,NA,NA
"2406",63,"second",6,1,1,4,1,NA,NA
"2407",63,"second",7,1,1,5,1,NA,NA
"2408",63,"second",8,1,1,6,1,NA,NA
"2409",63,"second",9,1,1,6,1,NA,NA
"2410",63,"second",10,1,1,5,1,NA,NA
"2411",63,"second",11,1,1,5,1,NA,NA
"2412",63,"second",12,1,1,6,1,NA,NA
"2413",63,"second",13,1,1,6,1,NA,NA
"2414",63,"second",14,1,1,5,1,NA,NA
"2415",63,"second",15,1,1,1,1,NA,NA
"2416",63,"second",16,1,1,5,1,NA,NA
"2417",63,"second",17,1,1,6,1,NA,NA
"2418",63,"second",18,1,1,6,1,NA,NA
"2419",63,"second",19,1,1,5,1,NA,NA
"2420",63,"second",20,1,1,6,1,NA,NA
"2421",63,"second",21,1,1,1,0,NA,NA
"2422",63,"second",22,1,1,6,0,NA,NA
"2423",63,"second",23,1,1,2,0,NA,NA
"2424",63,"second",24,1,1,4,0,NA,NA
"2425",63,"second",25,1,1,6,0,NA,NA
"2426",63,"second",26,1,1,1,0,NA,NA
"2427",63,"second",27,1,1,5,0,NA,NA
"2428",63,"second",28,1,1,5,0,NA,NA
"2429",63,"second",29,1,1,1,0,NA,NA
"2430",63,"second",30,1,1,5,0,NA,NA
"2431",63,"second",31,1,1,5,0,NA,NA
"2432",63,"second",32,1,1,6,0,NA,NA
"2433",63,"second",33,1,1,5,0,NA,NA
"2434",63,"second",34,1,1,5,0,NA,NA
"2435",63,"second",35,1,1,4,0,NA,NA
"2436",63,"second",36,1,1,2,0,NA,NA
"2437",63,"second",37,1,1,1,0,NA,NA
"2438",63,"second",38,1,1,5,0,NA,NA
"2439",63,"second",39,1,1,5,0,NA,NA
"2440",63,"second",40,1,1,6,0,NA,NA
"2441",64,"second",1,1,1,5,1,NA,NA
"2442",64,"second",2,1,1,6,1,NA,NA
"2443",64,"second",3,1,1,5,1,NA,NA
"2444",64,"second",4,1,1,3,1,NA,NA
"2445",64,"second",5,1,1,5,1,NA,NA
"2446",64,"second",6,1,1,6,1,NA,NA
"2447",64,"second",7,1,1,4,1,NA,NA
"2448",64,"second",8,1,1,4,1,NA,NA
"2449",64,"second",9,1,1,5,1,NA,NA
"2450",64,"second",10,1,1,3,1,NA,NA
"2451",64,"second",11,1,1,5,1,NA,NA
"2452",64,"second",12,1,1,4,1,NA,NA
"2453",64,"second",13,1,1,6,1,NA,NA
"2454",64,"second",14,1,1,6,1,NA,NA
"2455",64,"second",15,1,1,1,1,NA,NA
"2456",64,"second",16,1,1,5,1,NA,NA
"2457",64,"second",17,1,1,6,1,NA,NA
"2458",64,"second",18,1,1,4,1,NA,NA
"2459",64,"second",19,1,1,3,1,NA,NA
"2460",64,"second",20,1,1,3,1,NA,NA
"2461",64,"second",21,1,1,2,0,NA,NA
"2462",64,"second",22,1,1,4,0,NA,NA
"2463",64,"second",23,1,1,4,0,NA,NA
"2464",64,"second",24,1,1,3,0,NA,NA
"2465",64,"second",25,1,1,4,0,NA,NA
"2466",64,"second",26,1,1,2,0,NA,NA
"2467",64,"second",27,1,1,5,0,NA,NA
"2468",64,"second",28,1,1,3,0,NA,NA
"2469",64,"second",29,1,1,6,0,NA,NA
"2470",64,"second",30,1,1,3,0,NA,NA
"2471",64,"second",31,1,1,4,0,NA,NA
"2472",64,"second",32,1,1,6,0,NA,NA
"2473",64,"second",33,1,1,5,0,NA,NA
"2474",64,"second",34,1,1,1,0,NA,NA
"2475",64,"second",35,1,1,5,0,NA,NA
"2476",64,"second",36,1,1,2,0,NA,NA
"2477",64,"second",37,1,1,1,0,NA,NA
"2478",64,"second",38,1,1,2,0,NA,NA
"2479",64,"second",39,1,1,2,0,NA,NA
"2480",64,"second",40,1,1,5,0,NA,NA
"2481",65,"second",1,1,1,5,1,NA,NA
"2482",65,"second",2,1,1,6,1,NA,NA
"2483",65,"second",3,1,1,4,1,NA,NA
"2484",65,"second",4,1,1,4,1,NA,NA
"2485",65,"second",5,1,1,5,1,NA,NA
"2486",65,"second",6,1,1,6,1,NA,NA
"2487",65,"second",7,1,1,3,1,NA,NA
"2488",65,"second",8,1,1,4,1,NA,NA
"2489",65,"second",9,1,1,6,1,NA,NA
"2490",65,"second",10,1,1,2,1,NA,NA
"2491",65,"second",11,1,1,4,1,NA,NA
"2492",65,"second",12,1,1,5,1,NA,NA
"2493",65,"second",13,1,1,5,1,NA,NA
"2494",65,"second",14,1,1,3,1,NA,NA
"2495",65,"second",15,1,1,3,1,NA,NA
"2496",65,"second",16,1,1,2,1,NA,NA
"2497",65,"second",17,1,1,2,1,NA,NA
"2498",65,"second",18,1,1,2,1,NA,NA
"2499",65,"second",19,1,1,1,1,NA,NA
"2500",65,"second",20,1,1,4,1,NA,NA
"2501",65,"second",21,1,1,4,0,NA,NA
"2502",65,"second",22,1,1,5,0,NA,NA
"2503",65,"second",23,1,1,5,0,NA,NA
"2504",65,"second",24,1,1,5,0,NA,NA
"2505",65,"second",25,1,1,6,0,NA,NA
"2506",65,"second",26,1,1,6,0,NA,NA
"2507",65,"second",27,1,1,4,0,NA,NA
"2508",65,"second",28,1,1,5,0,NA,NA
"2509",65,"second",29,1,1,2,0,NA,NA
"2510",65,"second",30,1,1,6,0,NA,NA
"2511",65,"second",31,1,1,1,0,NA,NA
"2512",65,"second",32,1,1,5,0,NA,NA
"2513",65,"second",33,1,1,5,0,NA,NA
"2514",65,"second",34,1,1,1,0,NA,NA
"2515",65,"second",35,1,1,5,0,NA,NA
"2516",65,"second",36,1,1,5,0,NA,NA
"2517",65,"second",37,1,1,3,0,NA,NA
"2518",65,"second",38,1,1,5,0,NA,NA
"2519",65,"second",39,1,1,5,0,NA,NA
"2520",65,"second",40,1,1,6,0,NA,NA
"2521",66,"second",1,1,1,6,1,NA,NA
"2522",66,"second",2,1,1,6,1,NA,NA
"2523",66,"second",3,1,1,1,1,NA,NA
"2524",66,"second",4,1,1,6,1,NA,NA
"2525",66,"second",5,1,1,6,1,NA,NA
"2526",66,"second",6,1,1,6,1,NA,NA
"2527",66,"second",7,1,1,6,1,NA,NA
"2528",66,"second",8,1,1,1,1,NA,NA
"2529",66,"second",9,1,1,6,1,NA,NA
"2530",66,"second",10,1,1,5,1,NA,NA
"2531",66,"second",11,1,1,6,1,NA,NA
"2532",66,"second",12,1,1,1,1,NA,NA
"2533",66,"second",13,1,1,4,1,NA,NA
"2534",66,"second",14,1,1,1,1,NA,NA
"2535",66,"second",15,1,1,1,1,NA,NA
"2536",66,"second",16,1,1,2,1,NA,NA
"2537",66,"second",17,1,1,1,1,NA,NA
"2538",66,"second",18,1,1,6,1,NA,NA
"2539",66,"second",19,1,1,5,1,NA,NA
"2540",66,"second",20,1,1,1,1,NA,NA
"2541",66,"second",21,1,1,1,0,NA,NA
"2542",66,"second",22,1,1,6,0,NA,NA
"2543",66,"second",23,1,1,6,0,NA,NA
"2544",66,"second",24,1,1,6,0,NA,NA
"2545",66,"second",25,1,1,6,0,NA,NA
"2546",66,"second",26,1,1,5,0,NA,NA
"2547",66,"second",27,1,1,6,0,NA,NA
"2548",66,"second",28,1,1,6,0,NA,NA
"2549",66,"second",29,1,1,6,0,NA,NA
"2550",66,"second",30,1,1,6,0,NA,NA
"2551",66,"second",31,1,1,6,0,NA,NA
"2552",66,"second",32,1,1,4,0,NA,NA
"2553",66,"second",33,1,1,4,0,NA,NA
"2554",66,"second",34,1,1,2,0,NA,NA
"2555",66,"second",35,1,1,1,0,NA,NA
"2556",66,"second",36,1,1,3,0,NA,NA
"2557",66,"second",37,1,1,1,0,NA,NA
"2558",66,"second",38,1,1,1,0,NA,NA
"2559",66,"second",39,1,1,1,0,NA,NA
"2560",66,"second",40,1,1,4,0,NA,NA
"2561",67,"second",1,1,1,3,1,NA,NA
"2562",67,"second",2,1,1,6,1,NA,NA
"2563",67,"second",3,1,1,6,1,NA,NA
"2564",67,"second",4,1,1,6,1,NA,NA
"2565",67,"second",5,1,1,2,1,NA,NA
"2566",67,"second",6,1,1,6,1,NA,NA
"2567",67,"second",7,1,1,6,1,NA,NA
"2568",67,"second",8,1,1,6,1,NA,NA
"2569",67,"second",9,1,1,6,1,NA,NA
"2570",67,"second",10,1,1,6,1,NA,NA
"2571",67,"second",11,1,1,6,1,NA,NA
"2572",67,"second",12,1,1,6,1,NA,NA
"2573",67,"second",13,1,1,6,1,NA,NA
"2574",67,"second",14,1,1,6,1,NA,NA
"2575",67,"second",15,1,1,6,1,NA,NA
"2576",67,"second",16,1,1,6,1,NA,NA
"2577",67,"second",17,1,1,6,1,NA,NA
"2578",67,"second",18,1,1,6,1,NA,NA
"2579",67,"second",19,1,1,6,1,NA,NA
"2580",67,"second",20,1,1,6,1,NA,NA
"2581",67,"second",21,1,1,4,0,NA,NA
"2582",67,"second",22,1,1,5,0,NA,NA
"2583",67,"second",23,1,1,5,0,NA,NA
"2584",67,"second",24,1,1,5,0,NA,NA
"2585",67,"second",25,1,1,5,0,NA,NA
"2586",67,"second",26,1,1,4,0,NA,NA
"2587",67,"second",27,1,1,6,0,NA,NA
"2588",67,"second",28,1,1,5,0,NA,NA
"2589",67,"second",29,1,1,4,0,NA,NA
"2590",67,"second",30,1,1,4,0,NA,NA
"2591",67,"second",31,1,1,2,0,NA,NA
"2592",67,"second",32,1,1,5,0,NA,NA
"2593",67,"second",33,1,1,5,0,NA,NA
"2594",67,"second",34,1,1,5,0,NA,NA
"2595",67,"second",35,1,1,4,0,NA,NA
"2596",67,"second",36,1,1,5,0,NA,NA
"2597",67,"second",37,1,1,4,0,NA,NA
"2598",67,"second",38,1,1,3,0,NA,NA
"2599",67,"second",39,1,1,3,0,NA,NA
"2600",67,"second",40,1,1,5,0,NA,NA
"2601",68,"second",1,1,1,6,1,NA,NA
"2602",68,"second",2,1,1,6,1,NA,NA
"2603",68,"second",3,1,1,6,1,NA,NA
"2604",68,"second",4,1,1,6,1,NA,NA
"2605",68,"second",5,1,1,2,1,NA,NA
"2606",68,"second",6,1,1,6,1,NA,NA
"2607",68,"second",7,1,1,1,1,NA,NA
"2608",68,"second",8,1,1,6,1,NA,NA
"2609",68,"second",9,1,1,3,1,NA,NA
"2610",68,"second",10,1,1,1,1,NA,NA
"2611",68,"second",11,1,1,6,1,NA,NA
"2612",68,"second",12,1,1,6,1,NA,NA
"2613",68,"second",13,1,1,6,1,NA,NA
"2614",68,"second",14,1,1,6,1,NA,NA
"2615",68,"second",15,1,1,6,1,NA,NA
"2616",68,"second",16,1,1,6,1,NA,NA
"2617",68,"second",17,1,1,6,1,NA,NA
"2618",68,"second",18,1,1,6,1,NA,NA
"2619",68,"second",19,1,1,4,1,NA,NA
"2620",68,"second",20,1,1,6,1,NA,NA
"2621",68,"second",21,1,1,1,0,NA,NA
"2622",68,"second",22,1,1,1,0,NA,NA
"2623",68,"second",23,1,1,6,0,NA,NA
"2624",68,"second",24,1,1,4,0,NA,NA
"2625",68,"second",25,1,1,5,0,NA,NA
"2626",68,"second",26,1,1,3,0,NA,NA
"2627",68,"second",27,1,1,6,0,NA,NA
"2628",68,"second",28,1,1,6,0,NA,NA
"2629",68,"second",29,1,1,6,0,NA,NA
"2630",68,"second",30,1,1,5,0,NA,NA
"2631",68,"second",31,1,1,1,0,NA,NA
"2632",68,"second",32,1,1,6,0,NA,NA
"2633",68,"second",33,1,1,6,0,NA,NA
"2634",68,"second",34,1,1,6,0,NA,NA
"2635",68,"second",35,1,1,5,0,NA,NA
"2636",68,"second",36,1,1,1,0,NA,NA
"2637",68,"second",37,1,1,1,0,NA,NA
"2638",68,"second",38,1,1,3,0,NA,NA
"2639",68,"second",39,1,1,6,0,NA,NA
"2640",68,"second",40,1,1,1,0,NA,NA
"2641",69,"second",1,1,1,4,1,NA,NA
"2642",69,"second",2,1,1,3,1,NA,NA
"2643",69,"second",3,1,1,5,1,NA,NA
"2644",69,"second",4,1,1,3,1,NA,NA
"2645",69,"second",5,1,1,6,1,NA,NA
"2646",69,"second",6,1,1,5,1,NA,NA
"2647",69,"second",7,1,1,3,1,NA,NA
"2648",69,"second",8,1,1,5,1,NA,NA
"2649",69,"second",9,1,1,5,1,NA,NA
"2650",69,"second",10,1,1,4,1,NA,NA
"2651",69,"second",11,1,1,5,1,NA,NA
"2652",69,"second",12,1,1,4,1,NA,NA
"2653",69,"second",13,1,1,4,1,NA,NA
"2654",69,"second",14,1,1,4,1,NA,NA
"2655",69,"second",15,1,1,2,1,NA,NA
"2656",69,"second",16,1,1,3,1,NA,NA
"2657",69,"second",17,1,1,3,1,NA,NA
"2658",69,"second",18,1,1,4,1,NA,NA
"2659",69,"second",19,1,1,4,1,NA,NA
"2660",69,"second",20,1,1,4,1,NA,NA
"2661",69,"second",21,1,1,3,0,NA,NA
"2662",69,"second",22,1,1,4,0,NA,NA
"2663",69,"second",23,1,1,4,0,NA,NA
"2664",69,"second",24,1,1,3,0,NA,NA
"2665",69,"second",25,1,1,3,0,NA,NA
"2666",69,"second",26,1,1,4,0,NA,NA
"2667",69,"second",27,1,1,3,0,NA,NA
"2668",69,"second",28,1,1,5,0,NA,NA
"2669",69,"second",29,1,1,4,0,NA,NA
"2670",69,"second",30,1,1,3,0,NA,NA
"2671",69,"second",31,1,1,5,0,NA,NA
"2672",69,"second",32,1,1,3,0,NA,NA
"2673",69,"second",33,1,1,4,0,NA,NA
"2674",69,"second",34,1,1,5,0,NA,NA
"2675",69,"second",35,1,1,3,0,NA,NA
"2676",69,"second",36,1,1,3,0,NA,NA
"2677",69,"second",37,1,1,5,0,NA,NA
"2678",69,"second",38,1,1,4,0,NA,NA
"2679",69,"second",39,1,1,3,0,NA,NA
"2680",69,"second",40,1,1,3,0,NA,NA
"2681",70,"second",1,1,1,5,1,NA,NA
"2682",70,"second",2,1,1,3,1,NA,NA
"2683",70,"second",3,1,1,5,1,NA,NA
"2684",70,"second",4,1,1,6,1,NA,NA
"2685",70,"second",5,1,1,5,1,NA,NA
"2686",70,"second",6,1,1,5,1,NA,NA
"2687",70,"second",7,1,1,5,1,NA,NA
"2688",70,"second",8,1,1,5,1,NA,NA
"2689",70,"second",9,1,1,5,1,NA,NA
"2690",70,"second",10,1,1,5,1,NA,NA
"2691",70,"second",11,1,1,5,1,NA,NA
"2692",70,"second",12,1,1,5,1,NA,NA
"2693",70,"second",13,1,1,5,1,NA,NA
"2694",70,"second",14,1,1,5,1,NA,NA
"2695",70,"second",15,1,1,5,1,NA,NA
"2696",70,"second",16,1,1,3,1,NA,NA
"2697",70,"second",17,1,1,5,1,NA,NA
"2698",70,"second",18,1,1,5,1,NA,NA
"2699",70,"second",19,1,1,5,1,NA,NA
"2700",70,"second",20,1,1,5,1,NA,NA
"2701",70,"second",21,1,1,2,0,NA,NA
"2702",70,"second",22,1,1,3,0,NA,NA
"2703",70,"second",23,1,1,3,0,NA,NA
"2704",70,"second",24,1,1,3,0,NA,NA
"2705",70,"second",25,1,1,3,0,NA,NA
"2706",70,"second",26,1,1,4,0,NA,NA
"2707",70,"second",27,1,1,4,0,NA,NA
"2708",70,"second",28,1,1,4,0,NA,NA
"2709",70,"second",29,1,1,6,0,NA,NA
"2710",70,"second",30,1,1,4,0,NA,NA
"2711",70,"second",31,1,1,3,0,NA,NA
"2712",70,"second",32,1,1,4,0,NA,NA
"2713",70,"second",33,1,1,2,0,NA,NA
"2714",70,"second",34,1,1,2,0,NA,NA
"2715",70,"second",35,1,1,3,0,NA,NA
"2716",70,"second",36,1,1,2,0,NA,NA
"2717",70,"second",37,1,1,2,0,NA,NA
"2718",70,"second",38,1,1,4,0,NA,NA
"2719",70,"second",39,1,1,3,0,NA,NA
"2720",70,"second",40,1,1,3,0,NA,NA
"2721",71,"second",1,1,1,6,1,NA,NA
"2722",71,"second",2,1,1,6,1,NA,NA
"2723",71,"second",3,1,1,5,1,NA,NA
"2724",71,"second",4,1,1,1,1,NA,NA
"2725",71,"second",5,1,1,6,1,NA,NA
"2726",71,"second",6,1,1,3,1,NA,NA
"2727",71,"second",7,1,1,4,1,NA,NA
"2728",71,"second",8,1,1,3,1,NA,NA
"2729",71,"second",9,1,1,6,1,NA,NA
"2730",71,"second",10,1,1,1,1,NA,NA
"2731",71,"second",11,1,1,6,1,NA,NA
"2732",71,"second",12,1,1,6,1,NA,NA
"2733",71,"second",13,1,1,2,1,NA,NA
"2734",71,"second",14,1,1,3,1,NA,NA
"2735",71,"second",15,1,1,1,1,NA,NA
"2736",71,"second",16,1,1,1,1,NA,NA
"2737",71,"second",17,1,1,1,1,NA,NA
"2738",71,"second",18,1,1,4,1,NA,NA
"2739",71,"second",19,1,1,2,1,NA,NA
"2740",71,"second",20,1,1,3,1,NA,NA
"2741",71,"second",21,1,1,1,0,NA,NA
"2742",71,"second",22,1,1,5,0,NA,NA
"2743",71,"second",23,1,1,5,0,NA,NA
"2744",71,"second",24,1,1,3,0,NA,NA
"2745",71,"second",25,1,1,6,0,NA,NA
"2746",71,"second",26,1,1,6,0,NA,NA
"2747",71,"second",27,1,1,3,0,NA,NA
"2748",71,"second",28,1,1,6,0,NA,NA
"2749",71,"second",29,1,1,6,0,NA,NA
"2750",71,"second",30,1,1,6,0,NA,NA
"2751",71,"second",31,1,1,3,0,NA,NA
"2752",71,"second",32,1,1,4,0,NA,NA
"2753",71,"second",33,1,1,4,0,NA,NA
"2754",71,"second",34,1,1,1,0,NA,NA
"2755",71,"second",35,1,1,5,0,NA,NA
"2756",71,"second",36,1,1,3,0,NA,NA
"2757",71,"second",37,1,1,1,0,NA,NA
"2758",71,"second",38,1,1,5,0,NA,NA
"2759",71,"second",39,1,1,3,0,NA,NA
"2760",71,"second",40,1,1,3,0,NA,NA
"2761",72,"second",1,1,1,4,1,NA,NA
"2762",72,"second",2,1,1,5,1,NA,NA
"2763",72,"second",3,1,1,5,1,NA,NA
"2764",72,"second",4,1,1,4,1,NA,NA
"2765",72,"second",5,1,1,4,1,NA,NA
"2766",72,"second",6,1,1,4,1,NA,NA
"2767",72,"second",7,1,1,5,1,NA,NA
"2768",72,"second",8,1,1,5,1,NA,NA
"2769",72,"second",9,1,1,5,1,NA,NA
"2770",72,"second",10,1,1,4,1,NA,NA
"2771",72,"second",11,1,1,5,1,NA,NA
"2772",72,"second",12,1,1,5,1,NA,NA
"2773",72,"second",13,1,1,5,1,NA,NA
"2774",72,"second",14,1,1,5,1,NA,NA
"2775",72,"second",15,1,1,5,1,NA,NA
"2776",72,"second",16,1,1,4,1,NA,NA
"2777",72,"second",17,1,1,5,1,NA,NA
"2778",72,"second",18,1,1,4,1,NA,NA
"2779",72,"second",19,1,1,4,1,NA,NA
"2780",72,"second",20,1,1,5,1,NA,NA
"2781",72,"second",21,1,1,2,0,NA,NA
"2782",72,"second",22,1,1,4,0,NA,NA
"2783",72,"second",23,1,1,4,0,NA,NA
"2784",72,"second",24,1,1,5,0,NA,NA
"2785",72,"second",25,1,1,5,0,NA,NA
"2786",72,"second",26,1,1,4,0,NA,NA
"2787",72,"second",27,1,1,4,0,NA,NA
"2788",72,"second",28,1,1,4,0,NA,NA
"2789",72,"second",29,1,1,4,0,NA,NA
"2790",72,"second",30,1,1,4,0,NA,NA
"2791",72,"second",31,1,1,4,0,NA,NA
"2792",72,"second",32,1,1,3,0,NA,NA
"2793",72,"second",33,1,1,4,0,NA,NA
"2794",72,"second",34,1,1,4,0,NA,NA
"2795",72,"second",35,1,1,3,0,NA,NA
"2796",72,"second",36,1,1,3,0,NA,NA
"2797",72,"second",37,1,1,2,0,NA,NA
"2798",72,"second",38,1,1,5,0,NA,NA
"2799",72,"second",39,1,1,3,0,NA,NA
"2800",72,"second",40,1,1,3,0,NA,NA
"2801",73,"second",1,1,1,4,1,NA,NA
"2802",73,"second",2,1,1,6,1,NA,NA
"2803",73,"second",3,1,1,2,1,NA,NA
"2804",73,"second",4,1,1,6,1,NA,NA
"2805",73,"second",5,1,1,3,1,NA,NA
"2806",73,"second",6,1,1,3,1,NA,NA
"2807",73,"second",7,1,1,6,1,NA,NA
"2808",73,"second",8,1,1,2,1,NA,NA
"2809",73,"second",9,1,1,3,1,NA,NA
"2810",73,"second",10,1,1,1,1,NA,NA
"2811",73,"second",11,1,1,4,1,NA,NA
"2812",73,"second",12,1,1,5,1,NA,NA
"2813",73,"second",13,1,1,6,1,NA,NA
"2814",73,"second",14,1,1,2,1,NA,NA
"2815",73,"second",15,1,1,2,1,NA,NA
"2816",73,"second",16,1,1,4,1,NA,NA
"2817",73,"second",17,1,1,3,1,NA,NA
"2818",73,"second",18,1,1,5,1,NA,NA
"2819",73,"second",19,1,1,3,1,NA,NA
"2820",73,"second",20,1,1,3,1,NA,NA
"2821",73,"second",21,1,1,1,0,NA,NA
"2822",73,"second",22,1,1,5,0,NA,NA
"2823",73,"second",23,1,1,3,0,NA,NA
"2824",73,"second",24,1,1,2,0,NA,NA
"2825",73,"second",25,1,1,4,0,NA,NA
"2826",73,"second",26,1,1,4,0,NA,NA
"2827",73,"second",27,1,1,4,0,NA,NA
"2828",73,"second",28,1,1,6,0,NA,NA
"2829",73,"second",29,1,1,6,0,NA,NA
"2830",73,"second",30,1,1,3,0,NA,NA
"2831",73,"second",31,1,1,1,0,NA,NA
"2832",73,"second",32,1,1,3,0,NA,NA
