"","subject","statement_identifier","presentation_identifier","within_identifier","between_identifier","response","repeated","rt","trial"
"1",1,41,"Control",1,2,5,0,4.186,41
"2",1,42,"Control",1,2,4,0,3.942,42
"3",1,25,"Control",1,2,4,1,1.654,43
"4",1,16,"Control",1,2,4,1,1.339,44
"5",1,43,"Control",1,2,3,0,2.681,45
"6",1,44,"Control",1,2,3,0,3.198,46
"7",1,6,"Control",1,2,4,1,2.827,47
"8",1,12,"Control",1,2,4,1,2.345,48
"9",1,45,"Control",1,2,4,0,1.437,49
"10",1,46,"Control",1,2,3,0,2.791,50
"11",1,24,"Control",1,2,4,1,1.893,51
"12",1,14,"Control",1,2,4,1,1.52,52
"13",1,47,"Control",1,2,4,0,5.341,53
"14",1,30,"Control",1,2,4,1,1.727,54
"15",1,48,"Control",1,2,4,0,1.46,55
"16",1,27,"Control",1,2,4,1,1.711,56
"17",1,49,"Control",1,2,4,0,1.809,57
"18",1,40,"Control",1,2,4,1,3.015,58
"19",1,50,"Control",1,2,4,0,1.741,59
"20",1,51,"Control",1,2,3,0,2.04,60
"21",1,13,"Control",1,2,5,1,2.679,61
"22",1,3,"Control",1,2,6,1,3.424,62
"23",1,15,"Control",1,2,5,1,1.594,63
"24",1,52,"Control",1,2,3,0,1.987,64
"25",1,33,"Control",1,2,4,1,2.053,65
"26",1,28,"Control",1,2,3,1,1.554,66
"27",1,5,"Control",1,2,4,1,1.388,67
"28",1,53,"Control",1,2,4,0,2.186,68
"29",1,54,"Control",1,2,4,0,1.67,69
"30",1,17,"Control",1,2,4,1,1.468,70
"31",1,55,"Control",1,2,3,0,2.87,71
"32",1,56,"Control",1,2,3,0,1.585,72
"33",1,10,"Control",1,2,3,1,1.695,73
"34",1,22,"Control",1,2,4,1,2.07,74
"35",1,37,"Control",1,2,5,1,3.091,75
"36",1,57,"Control",1,2,4,0,2.118,76
"37",1,58,"Control",1,2,3,0,5.053,77
"38",1,9,"Control",1,2,4,1,3.271,78
"39",1,59,"Control",1,2,3,0,2.463,79
"40",1,60,"Control",1,2,3,0,1.642,80
"41",1,32,"Control",1,2,4,1,1.479,81
"42",1,29,"Control",1,2,4,1,1.775,82
"43",1,61,"Control",1,2,4,0,2.07,83
"44",1,1,"Control",1,2,4,1,1.244,84
"45",1,11,"Control",1,2,6,1,2.436,85
"46",1,19,"Control",1,2,3,1,2.036,86
"47",1,62,"Control",1,2,3,0,1.267,87
"48",1,21,"Control",1,2,6,1,2.33,88
"49",1,63,"Control",1,2,3,0,2.905,89
"50",1,36,"Control",1,2,6,1,1.891,90
"51",1,64,"Control",1,2,4,0,1.501,91
"52",1,65,"Control",1,2,3,0,4.049,92
"53",1,39,"Control",1,2,6,1,2.539,93
"54",1,66,"Control",1,2,3,0,2.105,94
"55",1,67,"Control",1,2,3,0,1.866,95
"56",1,2,"Control",1,2,3,1,1.929,96
"57",1,68,"Control",1,2,3,0,1.663,97
"58",1,69,"Control",1,2,3,0,1.527,98
"59",1,70,"Control",1,2,3,0,1.367,99
"60",1,20,"Control",1,2,6,1,4.424,100
"61",1,8,"Control",1,2,3,1,1.726,101
"62",1,71,"Control",1,2,3,0,1.214,102
"63",1,72,"Control",1,2,3,0,1.199,103
"64",1,35,"Control",1,2,4,1,1.983,104
"65",1,73,"Control",1,2,4,0,1.292,105
"66",1,23,"Control",1,2,4,1,1.462,106
"67",1,4,"Control",1,2,4,1,1.537,107
"68",1,7,"Control",1,2,5,1,2.926,108
"69",1,34,"Control",1,2,4,1,1.545,109
"70",1,31,"Control",1,2,4,1,2.097,110
"71",1,74,"Control",1,2,3,0,1.276,111
"72",1,75,"Control",1,2,3,0,1.459,112
"73",1,76,"Control",1,2,3,0,1.353,113
"74",1,77,"Control",1,2,3,0,1.137,114
"75",1,78,"Control",1,2,3,0,1.157,115
"76",1,38,"Control",1,2,3,1,1.421,116
"77",1,26,"Control",1,2,3,1,1.034,117
"78",1,18,"Control",1,2,3,1,1.158,118
"79",1,79,"Control",1,2,3,0,1.176,119
"80",1,80,"Control",1,2,3,0,1.235,120
"81",3,16,"Warning",1,1,4,1,7.714,41
"82",3,72,"Warning",1,1,2,0,3.29,42
"83",3,80,"Warning",1,1,3,1,2.843,43
"84",3,11,"Warning",1,1,3,1,2.54,44
"85",3,12,"Warning",1,1,4,1,2.624,45
"86",3,35,"Warning",1,1,4,1,3.339,46
"87",3,25,"Warning",1,1,5,0,2.782,47
"88",3,55,"Warning",1,1,5,1,2.15,48
"89",3,14,"Warning",1,1,3,0,2.577,49
"90",3,15,"Warning",1,1,6,0,1.942,50
"91",3,68,"Warning",1,1,3,1,2.841,51
"92",3,13,"Warning",1,1,3,0,2.159,52
"93",3,3,"Warning",1,1,3,1,2.912,53
"94",3,2,"Warning",1,1,3,0,2.448,54
"95",3,33,"Warning",1,1,4,0,1.63,55
"96",3,77,"Warning",1,1,4,1,2.861,56
"97",3,41,"Warning",1,1,3,1,2.531,57
"98",3,53,"Warning",1,1,3,0,1.818,58
"99",3,73,"Warning",1,1,4,1,2.058,59
"100",3,61,"Warning",1,1,4,1,1.825,60
"101",3,60,"Warning",1,1,3,0,2.642,61
"102",3,70,"Warning",1,1,2,1,3.417,62
"103",3,79,"Warning",1,1,3,1,2.261,63
"104",3,49,"Warning",1,1,2,0,2.259,64
"105",3,47,"Warning",1,1,4,1,2.082,65
"106",3,48,"Warning",1,1,4,1,2.96,66
"107",3,46,"Warning",1,1,5,0,3.564,67
"108",3,42,"Warning",1,1,3,0,3.247,68
"109",3,58,"Warning",1,1,3,0,1.979,69
"110",3,22,"Warning",1,1,4,0,1.95,70
"111",3,28,"Warning",1,1,4,0,3.72,71
"112",3,78,"Warning",1,1,3,0,2.438,72
"113",3,67,"Warning",1,1,3,1,3.464,73
"114",3,64,"Warning",1,1,3,1,2.471,74
"115",3,7,"Warning",1,1,4,0,2.174,75
"116",3,4,"Warning",1,1,4,0,3.541,76
"117",3,66,"Warning",1,1,3,0,1.794,77
"118",3,69,"Warning",1,1,2,1,2.416,78
"119",3,23,"Warning",1,1,3,1,1.842,79
"120",3,65,"Warning",1,1,4,0,1.864,80
"121",3,71,"Warning",1,1,4,0,1.987,81
"122",3,32,"Warning",1,1,3,1,1.562,82
"123",3,57,"Warning",1,1,3,0,2.137,83
"124",3,17,"Warning",1,1,3,0,4.404,84
"125",3,18,"Warning",1,1,3,0,1.716,85
"126",3,21,"Warning",1,1,4,1,2.353,86
"127",3,20,"Warning",1,1,2,1,2.081,87
"128",3,30,"Warning",1,1,5,0,2.881,88
"129",3,9,"Warning",1,1,4,1,3.564,89
"130",3,75,"Warning",1,1,3,1,2.712,90
"131",3,1,"Warning",1,1,4,1,1.632,91
"132",3,8,"Warning",1,1,4,1,4.681,92
"133",3,37,"Warning",1,1,5,0,1.928,93
"134",3,54,"Warning",1,1,3,0,2.057,94
"135",3,62,"Warning",1,1,3,0,1.626,95
"136",3,45,"Warning",1,1,4,1,1.762,96
"137",3,43,"Warning",1,1,3,0,2.136,97
"138",3,56,"Warning",1,1,6,1,2.059,98
"139",3,74,"Warning",1,1,4,1,2.267,99
"140",3,26,"Warning",1,1,3,0,2.02,100
"141",3,40,"Warning",1,1,3,1,1.61,101
"142",3,27,"Warning",1,1,3,1,3.091,102
"143",3,63,"Warning",1,1,3,0,1.538,103
"144",3,50,"Warning",1,1,4,0,2.003,104
"145",3,38,"Warning",1,1,4,1,1.718,105
"146",3,29,"Warning",1,1,4,1,2.362,106
"147",3,44,"Warning",1,1,1,1,2.3,107
"148",3,59,"Warning",1,1,4,0,3.091,108
"149",3,76,"Warning",1,1,4,1,2.378,109
"150",3,51,"Warning",1,1,4,1,1.95,110
"151",3,19,"Warning",1,1,3,0,2.424,111
"152",3,24,"Warning",1,1,4,0,3.107,112
"153",3,6,"Warning",1,1,4,1,1.615,113
"154",3,5,"Warning",1,1,4,0,1.724,114
"155",3,34,"Warning",1,1,2,1,2.858,115
"156",3,52,"Warning",1,1,3,0,1.78,116
"157",3,39,"Warning",1,1,4,0,1.819,117
"158",3,10,"Warning",1,1,3,1,1.909,118
"159",3,36,"Warning",1,1,3,0,1.539,119
"160",3,31,"Warning",1,1,3,0,2.354,120
"161",4,78,"Control",1,2,6,0,5.552,41
"162",4,49,"Control",1,2,5,1,5.212,42
"163",4,72,"Control",1,2,5,0,4.739,43
"164",4,80,"Control",1,2,6,1,6.839,44
"165",4,32,"Control",1,2,3,1,9.116,45
"166",4,47,"Control",1,2,6,0,3.334,46
"167",4,13,"Control",1,2,4,0,4.01,47
"168",4,77,"Control",1,2,4,0,4.423,48
"169",4,62,"Control",1,2,6,1,2.727,49
"170",4,20,"Control",1,2,6,1,4.272,50
"171",4,60,"Control",1,2,4,0,3.479,51
"172",4,18,"Control",1,2,6,1,1.883,52
"173",4,53,"Control",1,2,6,0,2.271,53
"174",4,31,"Control",1,2,5,0,3.371,54
"175",4,38,"Control",1,2,3,1,7.597,55
"176",4,7,"Control",1,2,6,1,3.541,56
"177",4,40,"Control",1,2,5,1,2.446,57
"178",4,54,"Control",1,2,6,0,3.076,58
"179",4,42,"Control",1,2,4,0,3.49,59
"180",4,28,"Control",1,2,1,0,11.319,60
"181",4,73,"Control",1,2,5,1,7.809,61
"182",4,29,"Control",1,2,6,1,3.622,62
"183",4,9,"Control",1,2,5,0,5.647,63
"184",4,19,"Control",1,2,4,0,5.107,64
"185",4,21,"Control",1,2,6,1,2.436,65
"186",4,41,"Control",1,2,6,1,2.623,66
"187",4,37,"Control",1,2,4,1,1.814,67
"188",4,26,"Control",1,2,4,0,3.027,68
"189",4,15,"Control",1,2,6,0,3.301,69
"190",4,67,"Control",1,2,1,0,4.967,70
"191",4,4,"Control",1,2,5,1,3.454,71
"192",4,8,"Control",1,2,6,1,3.925,72
"193",4,59,"Control",1,2,6,1,1.793,73
"194",4,46,"Control",1,2,1,1,8.297,74
"195",4,71,"Control",1,2,5,0,4.396,75
"196",4,25,"Control",1,2,5,0,3.661,76
"197",4,6,"Control",1,2,4,0,5.648,77
"198",4,68,"Control",1,2,5,1,4.055,78
"199",4,23,"Control",1,2,6,0,3.19,79
"200",4,44,"Control",1,2,3,1,6.862,80
"201",4,33,"Control",1,2,6,1,2.435,81
"202",4,1,"Control",1,2,5,0,4.76,82
"203",4,65,"Control",1,2,4,0,4.546,83
"204",4,5,"Control",1,2,4,0,2.628,84
"205",4,63,"Control",1,2,5,1,9.218,85
"206",4,69,"Control",1,2,4,0,3.242,86
"207",4,22,"Control",1,2,2,0,23.29,87
"208",4,52,"Control",1,2,3,0,4.004,88
"209",4,10,"Control",1,2,5,1,5.077,89
"210",4,43,"Control",1,2,4,0,2.952,90
"211",4,3,"Control",1,2,6,1,2.579,91
"212",4,24,"Control",1,2,6,0,3.946,92
"213",4,61,"Control",1,2,6,0,4.724,93
"214",4,27,"Control",1,2,6,1,2.535,94
"215",4,75,"Control",1,2,6,1,3.243,95
"216",4,30,"Control",1,2,6,1,2.825,96
"217",4,12,"Control",1,2,6,1,1.982,97
"218",4,35,"Control",1,2,4,1,2.879,98
"219",4,70,"Control",1,2,1,0,7.347,99
"220",4,11,"Control",1,2,5,1,2.838,100
"221",4,74,"Control",1,2,6,1,3.518,101
"222",4,34,"Control",1,2,6,1,1.992,102
"223",4,48,"Control",1,2,4,0,4.177,103
"224",4,45,"Control",1,2,1,0,6.137,104
"225",4,36,"Control",1,2,6,1,2.56,105
"226",4,51,"Control",1,2,6,1,2.517,106
"227",4,39,"Control",1,2,6,0,4.033,107
"228",4,57,"Control",1,2,5,0,3.108,108
"229",4,55,"Control",1,2,5,0,6.339,109
"230",4,17,"Control",1,2,5,0,3.821,110
"231",4,50,"Control",1,2,6,1,4.429,111
"232",4,64,"Control",1,2,4,0,6.764,112
"233",4,66,"Control",1,2,4,0,4.428,113
"234",4,16,"Control",1,2,6,1,3.021,114
"235",4,76,"Control",1,2,4,0,6.451,115
"236",4,79,"Control",1,2,6,1,3.086,116
"237",4,2,"Control",1,2,6,1,1.604,117
"238",4,56,"Control",1,2,6,1,2.365,118
"239",4,58,"Control",1,2,6,1,2.693,119
"240",4,14,"Control",1,2,6,0,2.705,120
"241",5,49,"Control",1,2,3,1,11.564,41
"242",5,36,"Control",1,2,4,1,6.007,42
"243",5,38,"Control",1,2,4,0,4.466,43
"244",5,76,"Control",1,2,5,1,6.178,44
"245",5,11,"Control",1,2,4,1,6.384,45
"246",5,16,"Control",1,2,3,1,4.071,46
"247",5,28,"Control",1,2,3,1,2.853,47
"248",5,35,"Control",1,2,3,1,2.313,48
"249",5,1,"Control",1,2,4,0,3.158,49
"250",5,31,"Control",1,2,3,0,8.396,50
"251",5,54,"Control",1,2,4,0,6.126,51
"252",5,9,"Control",1,2,4,0,5.073,52
"253",5,24,"Control",1,2,4,1,1.82,53
"254",5,5,"Control",1,2,5,0,5.299,54
"255",5,32,"Control",1,2,2,0,7.004,55
"256",5,17,"Control",1,2,5,0,6.267,56
"257",5,44,"Control",1,2,3,1,3.959,57
"258",5,59,"Control",1,2,5,1,7.35,58
"259",5,4,"Control",1,2,6,1,3.776,59
"260",5,63,"Control",1,2,4,1,10.972,60
"261",5,48,"Control",1,2,4,0,3.337,61
"262",5,42,"Control",1,2,4,1,3.294,62
"263",5,15,"Control",1,2,4,0,5.355,63
"264",5,19,"Control",1,2,3,0,6.942,64
"265",5,61,"Control",1,2,2,0,8.145,65
"266",5,12,"Control",1,2,3,0,5.187,66
"267",5,79,"Control",1,2,4,1,5.557,67
"268",5,6,"Control",1,2,4,1,3.501,68
"269",5,10,"Control",1,2,4,0,3,69
"270",5,68,"Control",1,2,4,0,2.927,70
"271",5,56,"Control",1,2,4,0,3.336,71
"272",5,21,"Control",1,2,3,0,2.613,72
"273",5,80,"Control",1,2,3,1,4.277,73
"274",5,20,"Control",1,2,2,1,11.729,74
"275",5,60,"Control",1,2,5,1,3.683,75
"276",5,8,"Control",1,2,4,1,5.163,76
"277",5,27,"Control",1,2,5,1,69.586,77
"278",5,53,"Control",1,2,4,0,3.289,78
"279",5,67,"Control",1,2,4,0,2.448,79
"280",5,41,"Control",1,2,4,0,5.257,80
"281",5,77,"Control",1,2,4,1,5.513,81
"282",5,30,"Control",1,2,3,0,4.989,82
"283",5,13,"Control",1,2,3,0,5.107,83
"284",5,26,"Control",1,2,3,0,3.154,84
"285",5,14,"Control",1,2,3,1,2.459,85
"286",5,51,"Control",1,2,4,0,3.756,86
"287",5,40,"Control",1,2,4,1,2.532,87
"288",5,37,"Control",1,2,4,0,4.446,88
"289",5,25,"Control",1,2,5,1,3.831,89
"290",5,72,"Control",1,2,5,1,6.65,90
"291",5,58,"Control",1,2,4,1,4.05,91
"292",5,66,"Control",1,2,1,1,41.951,92
"293",5,18,"Control",1,2,3,1,5.759,93
"294",5,39,"Control",1,2,2,0,6.68,94
"295",5,70,"Control",1,2,3,1,5.211,95
"296",5,69,"Control",1,2,3,0,2.164,96
"297",5,46,"Control",1,2,4,0,4.807,97
"298",5,65,"Control",1,2,4,0,3.299,98
"299",5,71,"Control",1,2,3,0,4.421,99
"300",5,73,"Control",1,2,4,0,1.696,100
"301",5,7,"Control",1,2,4,0,1.128,101
"302",5,52,"Control",1,2,4,1,1.375,102
"303",5,23,"Control",1,2,4,1,2.612,103
"304",5,33,"Control",1,2,5,0,4.396,104
"305",5,62,"Control",1,2,4,1,2.019,105
"306",5,3,"Control",1,2,5,0,6.414,106
"307",5,55,"Control",1,2,5,1,2.811,107
"308",5,2,"Control",1,2,3,1,5.509,108
"309",5,74,"Control",1,2,4,0,3.349,109
"310",5,57,"Control",1,2,3,0,5.764,110
"311",5,45,"Control",1,2,4,1,3.937,111
"312",5,34,"Control",1,2,4,0,6.034,112
"313",5,47,"Control",1,2,4,1,4.321,113
"314",5,22,"Control",1,2,4,1,2.434,114
"315",5,50,"Control",1,2,4,0,3.731,115
"316",5,75,"Control",1,2,4,0,6.053,116
"317",5,78,"Control",1,2,4,1,2.539,117
"318",5,29,"Control",1,2,4,1,1.967,118
"319",5,43,"Control",1,2,4,0,2.66,119
"320",5,64,"Control",1,2,4,1,2.036,120
"321",6,30,"Warning",1,1,3,1,12.498,41
"322",6,9,"Warning",1,1,4,0,6.57,42
"323",6,37,"Warning",1,1,4,0,4.09,43
"324",6,21,"Warning",1,1,4,1,5.601,44
"325",6,77,"Warning",1,1,5,0,3.326,45
"326",6,6,"Warning",1,1,3,0,7.302,46
"327",6,56,"Warning",1,1,6,1,2.793,47
"328",6,27,"Warning",1,1,4,0,6.452,48
"329",6,25,"Warning",1,1,4,0,5.618,49
"330",6,68,"Warning",1,1,3,0,8.336,50
"331",6,29,"Warning",1,1,3,1,8.333,51
"332",6,40,"Warning",1,1,4,1,4.007,52
"333",6,61,"Warning",1,1,3,1,4.724,53
"334",6,14,"Warning",1,1,3,0,9.018,54
"335",6,53,"Warning",1,1,5,0,12.608,55
"336",6,67,"Warning",1,1,4,0,10.751,56
"337",6,39,"Warning",1,1,5,1,4.338,57
"338",6,33,"Warning",1,1,4,1,5.025,58
"339",6,17,"Warning",1,1,4,1,9.1,59
"340",6,65,"Warning",1,1,3,0,3.072,60
"341",6,1,"Warning",1,1,5,0,4.574,61
"342",6,58,"Warning",1,1,4,0,3.74,62
"343",6,28,"Warning",1,1,2,0,23.156,63
"344",6,35,"Warning",1,1,3,0,4.795,64
"345",6,75,"Warning",1,1,4,1,13.655,65
"346",6,80,"Warning",1,1,2,0,20.724,66
"347",6,73,"Warning",1,1,5,1,4.772,67
"348",6,36,"Warning",1,1,4,1,4.705,68
"349",6,34,"Warning",1,1,3,0,8.08,69
"350",6,20,"Warning",1,1,4,1,21.061,70
"351",6,76,"Warning",1,1,3,0,6.511,71
"352",6,2,"Warning",1,1,3,0,3.944,72
"353",6,48,"Warning",1,1,4,1,3.776,73
"354",6,59,"Warning",1,1,5,0,4.239,74
"355",6,78,"Warning",1,1,5,1,28.854,75
"356",6,43,"Warning",1,1,5,1,2.703,76
"357",6,50,"Warning",1,1,4,1,6.64,77
"358",6,66,"Warning",1,1,4,1,5.92,78
"359",6,19,"Warning",1,1,3,1,2.463,79
"360",6,42,"Warning",1,1,3,1,8.758,80
"361",6,63,"Warning",1,1,4,1,3.016,81
"362",6,74,"Warning",1,1,6,1,1.935,82
"363",6,24,"Warning",1,1,4,1,5.087,83
"364",6,62,"Warning",1,1,6,0,6.152,84
"365",6,57,"Warning",1,1,4,0,5.223,85
"366",6,64,"Warning",1,1,4,1,3.529,86
"367",6,52,"Warning",1,1,3,1,9.256,87
"368",6,8,"Warning",1,1,4,1,3.744,88
"369",6,5,"Warning",1,1,4,1,9.456,89
"370",6,10,"Warning",1,1,4,0,3.047,90
"371",6,13,"Warning",1,1,4,0,13.04,91
"372",6,47,"Warning",1,1,5,1,2.071,92
"373",6,51,"Warning",1,1,3,0,7.223,93
"374",6,71,"Warning",1,1,4,1,6.015,94
"375",6,55,"Warning",1,1,5,1,2.727,95
"376",6,49,"Warning",1,1,5,0,4.768,96
"377",6,41,"Warning",1,1,4,1,4.455,97
"378",6,26,"Warning",1,1,3,1,25.847,98
"379",6,3,"Warning",1,1,3,1,9.208,99
"380",6,60,"Warning",1,1,4,1,32.031,100
"381",6,72,"Warning",1,1,3,0,4.447,101
"382",6,12,"Warning",1,1,4,1,4.768,102
"383",6,4,"Warning",1,1,3,0,8.16,103
"384",6,15,"Warning",1,1,4,0,2.751,104
"385",6,22,"Warning",1,1,4,0,7.239,105
"386",6,38,"Warning",1,1,4,1,3.632,106
"387",6,54,"Warning",1,1,4,0,4.576,107
"388",6,69,"Warning",1,1,3,0,8.128,108
"389",6,11,"Warning",1,1,3,1,6.295,109
"390",6,44,"Warning",1,1,3,0,9.696,110
"391",6,46,"Warning",1,1,3,1,3.199,111
"392",6,70,"Warning",1,1,4,0,9.431,112
"393",6,23,"Warning",1,1,3,0,12.576,113
"394",6,18,"Warning",1,1,3,0,42.632,114
"395",6,7,"Warning",1,1,4,1,2.167,115
"396",6,79,"Warning",1,1,4,1,3.696,116
"397",6,45,"Warning",1,1,5,0,3.16,117
"398",6,32,"Warning",1,1,4,0,3.936,118
"399",6,16,"Warning",1,1,4,0,4.231,119
"400",6,31,"Warning",1,1,4,0,5.671,120
"401",9,35,"Warning",1,1,3,1,11.705,41
"402",9,50,"Warning",1,1,6,1,6.565,42
"403",9,67,"Warning",1,1,5,0,9.525,43
"404",9,36,"Warning",1,1,3,0,6.91,44
"405",9,18,"Warning",1,1,5,0,4.232,45
"406",9,45,"Warning",1,1,6,0,5.093,46
"407",9,38,"Warning",1,1,5,1,3.625,47
"408",9,12,"Warning",1,1,4,0,3.228,48
"409",9,13,"Warning",1,1,2,0,4.354,49
"410",9,19,"Warning",1,1,4,0,3.766,50
"411",9,29,"Warning",1,1,6,1,4.231,51
"412",9,8,"Warning",1,1,6,1,11.452,52
"413",9,73,"Warning",1,1,6,0,4.638,53
"414",9,47,"Warning",1,1,5,0,10.671,54
"415",9,58,"Warning",1,1,6,0,4.678,55
"416",9,48,"Warning",1,1,4,0,4.922,56
"417",9,3,"Warning",1,1,4,0,6.535,57
"418",9,63,"Warning",1,1,5,1,13.896,58
"419",9,55,"Warning",1,1,4,1,10.226,59
"420",9,54,"Warning",1,1,6,0,2.458,60
"421",9,1,"Warning",1,1,4,0,6.485,61
"422",9,10,"Warning",1,1,5,1,2.68,62
"423",9,46,"Warning",1,1,6,1,4.933,63
"424",9,22,"Warning",1,1,6,0,2.538,64
"425",9,40,"Warning",1,1,6,1,2.762,65
"426",9,53,"Warning",1,1,6,0,4.039,66
"427",9,41,"Warning",1,1,5,0,8.329,67
"428",9,62,"Warning",1,1,4,1,3.33,68
"429",9,78,"Warning",1,1,4,1,1.566,69
"430",9,25,"Warning",1,1,2,1,9.241,70
"431",9,75,"Warning",1,1,6,1,6.189,71
"432",9,16,"Warning",1,1,6,0,6.169,72
"433",9,65,"Warning",1,1,1,0,4.274,73
"434",9,17,"Warning",1,1,5,1,4.374,74
"435",9,4,"Warning",1,1,6,1,9.831,75
"436",9,72,"Warning",1,1,4,1,4.598,76
"437",9,59,"Warning",1,1,6,1,4.912,77
"438",9,64,"Warning",1,1,5,0,5.764,78
"439",9,31,"Warning",1,1,5,1,5.105,79
"440",9,20,"Warning",1,1,4,1,3.553,80
"441",9,71,"Warning",1,1,4,1,2.022,81
"442",9,49,"Warning",1,1,6,1,2.114,82
"443",9,30,"Warning",1,1,3,0,3.35,83
"444",9,28,"Warning",1,1,1,0,6.128,84
"445",9,14,"Warning",1,1,3,0,6.322,85
"446",9,68,"Warning",1,1,4,0,8.188,86
"447",9,61,"Warning",1,1,5,0,8.25,87
"448",9,79,"Warning",1,1,6,0,7.812,88
"449",9,23,"Warning",1,1,5,0,8.118,89
"450",9,32,"Warning",1,1,5,1,2.447,90
"451",9,43,"Warning",1,1,6,0,4.445,91
"452",9,66,"Warning",1,1,5,1,3.979,92
"453",9,5,"Warning",1,1,6,1,2.691,93
"454",9,56,"Warning",1,1,3,1,4.334,94
"455",9,57,"Warning",1,1,4,0,4.253,95
"456",9,76,"Warning",1,1,4,0,15.519,96
"457",9,39,"Warning",1,1,2,1,7.58,97
"458",9,80,"Warning",1,1,2,0,4.1,98
"459",9,34,"Warning",1,1,4,1,6.91,99
"460",9,26,"Warning",1,1,3,0,8.269,100
"461",9,42,"Warning",1,1,5,0,4.546,101
"462",9,11,"Warning",1,1,4,1,3.817,102
"463",9,69,"Warning",1,1,6,0,4.264,103
"464",9,21,"Warning",1,1,1,0,7.256,104
"465",9,51,"Warning",1,1,5,1,5.531,105
"466",9,52,"Warning",1,1,6,1,5.683,106
"467",9,27,"Warning",1,1,6,0,4.993,107
"468",9,2,"Warning",1,1,6,0,4.557,108
"469",9,6,"Warning",1,1,5,0,6.353,109
"470",9,24,"Warning",1,1,4,1,3.827,110
"471",9,77,"Warning",1,1,6,0,2.732,111
"472",9,60,"Warning",1,1,5,1,4.587,112
"473",9,74,"Warning",1,1,3,1,3.645,113
"474",9,7,"Warning",1,1,4,1,2.671,114
"475",9,70,"Warning",1,1,5,1,2.742,115
"476",9,9,"Warning",1,1,6,1,5.176,116
"477",9,33,"Warning",1,1,6,1,1.89,117
"478",9,44,"Warning",1,1,4,1,3.686,118
"479",9,37,"Warning",1,1,6,0,6.697,119
"480",9,15,"Warning",1,1,6,1,2.468,120
"481",10,60,"Control",1,2,3,0,3.399,41
"482",10,46,"Control",1,2,5,1,2.954,42
"483",10,15,"Control",1,2,4,0,2.583,43
"484",10,11,"Control",1,2,3,1,2.385,44
"485",10,39,"Control",1,2,4,1,3.809,45
"486",10,56,"Control",1,2,4,1,2.276,46
"487",10,29,"Control",1,2,3,1,2.169,47
"488",10,71,"Control",1,2,4,0,3.748,48
"489",10,17,"Control",1,2,3,0,4.005,49
"490",10,16,"Control",1,2,3,1,1.803,50
"491",10,74,"Control",1,2,3,0,2.043,51
"492",10,38,"Control",1,2,3,1,1.753,52
"493",10,28,"Control",1,2,6,0,2.74,53
"494",10,59,"Control",1,2,6,1,1.548,54
"495",10,63,"Control",1,2,4,0,2.559,55
"496",10,23,"Control",1,2,4,1,3.455,56
"497",10,40,"Control",1,2,4,0,2.731,57
"498",10,75,"Control",1,2,3,1,3.13,58
"499",10,72,"Control",1,2,3,1,2.147,59
"500",10,10,"Control",1,2,4,0,2.08,60
"501",10,41,"Control",1,2,4,0,2.337,61
"502",10,34,"Control",1,2,3,0,3.162,62
"503",10,8,"Control",1,2,5,1,1.994,63
"504",10,19,"Control",1,2,3,0,3.437,64
"505",10,5,"Control",1,2,4,0,2.481,65
"506",10,6,"Control",1,2,4,0,3.709,66
"507",10,51,"Control",1,2,5,0,3.329,67
"508",10,67,"Control",1,2,2,0,2.923,68
"509",10,44,"Control",1,2,3,1,2.752,69
"510",10,65,"Control",1,2,3,1,3.649,70
"511",10,1,"Control",1,2,4,0,3.116,71
"512",10,48,"Control",1,2,3,0,3.789,72
"513",10,42,"Control",1,2,3,1,3.591,73
"514",10,55,"Control",1,2,5,1,2.425,74
"515",10,35,"Control",1,2,4,1,2.772,75
"516",10,76,"Control",1,2,4,1,2.212,76
"517",10,78,"Control",1,2,3,1,1.828,77
"518",10,53,"Control",1,2,3,0,2.017,78
"519",10,13,"Control",1,2,3,0,5.299,79
"520",10,31,"Control",1,2,3,1,5.385,80
"521",10,45,"Control",1,2,3,1,1.968,81
"522",10,47,"Control",1,2,3,1,2.919,82
"523",10,4,"Control",1,2,4,0,2.079,83
"524",10,73,"Control",1,2,4,1,1.761,84
"525",10,68,"Control",1,2,3,0,4.774,85
"526",10,24,"Control",1,2,3,0,2.063,86
"527",10,43,"Control",1,2,3,0,2.125,87
"528",10,20,"Control",1,2,4,1,2.608,88
"529",10,52,"Control",1,2,3,1,1.872,89
"530",10,21,"Control",1,2,4,1,2.187,90
"531",10,27,"Control",1,2,4,1,1.528,91
"532",10,33,"Control",1,2,4,0,1.636,92
"533",10,62,"Control",1,2,3,0,1.51,93
"534",10,57,"Control",1,2,4,1,2.434,94
"535",10,14,"Control",1,2,4,0,2.516,95
"536",10,7,"Control",1,2,3,1,2.472,96
"537",10,9,"Control",1,2,4,1,4.18,97
"538",10,70,"Control",1,2,5,0,6.839,98
"539",10,32,"Control",1,2,2,1,2.515,99
"540",10,58,"Control",1,2,3,1,1.873,100
"541",10,25,"Control",1,2,4,0,2.191,101
"542",10,2,"Control",1,2,4,0,1.582,102
"543",10,18,"Control",1,2,2,0,3.333,103
"544",10,12,"Control",1,2,4,1,3.063,104
"545",10,54,"Control",1,2,2,1,2.108,105
"546",10,36,"Control",1,2,3,0,2.016,106
"547",10,77,"Control",1,2,4,1,4.503,107
"548",10,49,"Control",1,2,5,1,2.637,108
"549",10,3,"Control",1,2,4,1,1.927,109
"550",10,64,"Control",1,2,3,1,1.948,110
"551",10,26,"Control",1,2,3,0,2.228,111
"552",10,30,"Control",1,2,4,1,2.873,112
"553",10,80,"Control",1,2,3,0,3.083,113
"554",10,66,"Control",1,2,4,0,4.012,114
"555",10,22,"Control",1,2,3,1,2.712,115
"556",10,61,"Control",1,2,3,0,2.503,116
"557",10,37,"Control",1,2,4,0,1.972,117
"558",10,79,"Control",1,2,3,0,2.213,118
"559",10,69,"Control",1,2,5,0,2.684,119
"560",10,50,"Control",1,2,3,0,3.346,120
"561",11,3,"Control",1,2,4,1,4.797,41
"562",11,9,"Control",1,2,4,0,4.43,42
"563",11,61,"Control",1,2,3,0,3.876,43
"564",11,47,"Control",1,2,4,0,4.024,44
"565",11,43,"Control",1,2,4,0,2.952,45
"566",11,72,"Control",1,2,3,0,3.137,46
"567",11,37,"Control",1,2,4,0,2.231,47
"568",11,69,"Control",1,2,4,1,1.609,48
"569",11,29,"Control",1,2,4,1,3.358,49
"570",11,63,"Control",1,2,3,0,4.205,50
"571",11,35,"Control",1,2,4,0,3.967,51
"572",11,41,"Control",1,2,4,1,1.868,52
"573",11,76,"Control",1,2,4,0,5.888,53
"574",11,78,"Control",1,2,3,0,6.285,54
"575",11,75,"Control",1,2,3,0,4.322,55
"576",11,52,"Control",1,2,4,1,2.53,56
"577",11,10,"Control",1,2,4,1,1.521,57
"578",11,71,"Control",1,2,4,1,1.555,58
"579",11,39,"Control",1,2,4,0,3.946,59
"580",11,68,"Control",1,2,3,1,4.524,60
"581",11,56,"Control",1,2,4,1,1.341,61
"582",11,22,"Control",1,2,4,1,3.09,62
"583",11,58,"Control",1,2,4,1,1.665,63
"584",11,18,"Control",1,2,4,1,2.806,64
"585",11,2,"Control",1,2,4,1,1.328,65
"586",11,50,"Control",1,2,3,0,3.972,66
"587",11,12,"Control",1,2,4,0,2.806,67
"588",11,53,"Control",1,2,3,0,2.503,68
"589",11,28,"Control",1,2,4,1,1.207,69
"590",11,66,"Control",1,2,4,1,1.368,70
"591",11,57,"Control",1,2,3,0,2.72,71
"592",11,64,"Control",1,2,4,1,1.276,72
"593",11,55,"Control",1,2,4,1,1.115,73
"594",11,24,"Control",1,2,3,0,3.751,74
"595",11,54,"Control",1,2,4,1,1.099,75
"596",11,45,"Control",1,2,3,0,1.878,76
"597",11,5,"Control",1,2,3,1,4.998,77
"598",11,74,"Control",1,2,3,0,1.712,78
"599",11,48,"Control",1,2,4,0,4.915,79
"600",11,59,"Control",1,2,4,1,1.414,80
"601",11,60,"Control",1,2,4,1,1.32,81
"602",11,25,"Control",1,2,4,0,2.285,82
"603",11,40,"Control",1,2,3,1,1.887,83
"604",11,65,"Control",1,2,4,1,1.367,84
"605",11,46,"Control",1,2,4,1,1.233,85
"606",11,7,"Control",1,2,4,0,2.885,86
"607",11,36,"Control",1,2,3,0,1.477,87
"608",11,31,"Control",1,2,4,1,1.599,88
"609",11,11,"Control",1,2,3,0,2.541,89
"610",11,30,"Control",1,2,4,0,3.02,90
"611",11,79,"Control",1,2,3,0,1.518,91
"612",11,19,"Control",1,2,4,0,1.883,92
"613",11,27,"Control",1,2,4,1,1.204,93
"614",11,26,"Control",1,2,3,1,2.449,94
"615",11,80,"Control",1,2,4,1,1.337,95
"616",11,15,"Control",1,2,4,0,2.703,96
"617",11,21,"Control",1,2,4,1,1.518,97
"618",11,70,"Control",1,2,4,0,5.15,98
"619",11,34,"Control",1,2,4,1,1.641,99
"620",11,20,"Control",1,2,4,1,1.32,100
"621",11,17,"Control",1,2,3,0,2.399,101
"622",11,23,"Control",1,2,4,1,1.119,102
"623",11,16,"Control",1,2,4,1,1.297,103
"624",11,4,"Control",1,2,4,1,0.922,104
"625",11,42,"Control",1,2,4,1,1.173,105
"626",11,49,"Control",1,2,4,0,2.206,106
"627",11,77,"Control",1,2,4,0,1.067,107
"628",11,13,"Control",1,2,4,1,1.048,108
"629",11,33,"Control",1,2,4,0,2.004,109
"630",11,51,"Control",1,2,4,1,1.084,110
"631",11,6,"Control",1,2,4,0,1.199,111
"632",11,67,"Control",1,2,4,1,0.964,112
"633",11,32,"Control",1,2,4,1,1.441,113
"634",11,44,"Control",1,2,4,0,1.457,114
"635",11,73,"Control",1,2,4,0,1.745,115
"636",11,62,"Control",1,2,4,1,0.582,116
"637",11,8,"Control",1,2,4,0,0.958,117
"638",11,14,"Control",1,2,4,0,0.494,118
"639",11,38,"Control",1,2,4,0,1.202,119
"640",11,1,"Control",1,2,4,0,1.452,120
"641",12,6,"Control",1,2,6,1,4.069,41
"642",12,24,"Control",1,2,3,0,5.857,42
"643",12,32,"Control",1,2,3,0,4.268,43
"644",12,63,"Control",1,2,6,1,5.517,44
"645",12,33,"Control",1,2,6,1,4.593,45
"646",12,42,"Control",1,2,6,1,3.283,46
"647",12,65,"Control",1,2,4,0,3.696,47
"648",12,56,"Control",1,2,5,0,4.332,48
"649",12,12,"Control",1,2,4,0,5.474,49
"650",12,38,"Control",1,2,6,1,4.386,50
"651",12,55,"Control",1,2,5,0,4.671,51
"652",12,58,"Control",1,2,4,1,4.442,52
"653",12,51,"Control",1,2,6,0,5.648,53
"654",12,53,"Control",1,2,4,0,3.428,54
"655",12,4,"Control",1,2,6,0,6.571,55
"656",12,19,"Control",1,2,4,0,4.207,56
"657",12,9,"Control",1,2,6,1,4.054,57
"658",12,69,"Control",1,2,6,0,5.868,58
"659",12,75,"Control",1,2,6,1,3.608,59
"660",12,67,"Control",1,2,5,1,8.279,60
"661",12,43,"Control",1,2,6,1,3.675,61
"662",12,73,"Control",1,2,4,0,4.278,62
"663",12,62,"Control",1,2,4,0,4.864,63
"664",12,66,"Control",1,2,6,1,5.596,64
"665",12,76,"Control",1,2,5,0,3.516,65
"666",12,2,"Control",1,2,4,0,2.653,66
"667",12,7,"Control",1,2,6,1,4.292,67
"668",12,36,"Control",1,2,6,1,2.763,68
"669",12,31,"Control",1,2,3,0,3.41,69
"670",12,22,"Control",1,2,6,1,2.81,70
"671",12,47,"Control",1,2,5,1,10.291,71
"672",12,14,"Control",1,2,2,1,3.811,72
"673",12,10,"Control",1,2,4,0,3.425,73
"674",12,72,"Control",1,2,3,1,3.841,74
"675",12,11,"Control",1,2,1,0,4.839,75
"676",12,68,"Control",1,2,1,0,6.492,76
"677",12,60,"Control",1,2,5,1,3.395,77
"678",12,13,"Control",1,2,5,1,2.724,78
"679",12,61,"Control",1,2,4,0,3.539,79
"680",12,74,"Control",1,2,5,1,2.642,80
"681",12,28,"Control",1,2,6,1,2.518,81
"682",12,46,"Control",1,2,6,1,2.388,82
"683",12,20,"Control",1,2,6,1,2.753,83
"684",12,17,"Control",1,2,6,1,3.234,84
"685",12,48,"Control",1,2,6,0,4.542,85
"686",12,79,"Control",1,2,4,0,10.761,86
"687",12,49,"Control",1,2,6,1,3.991,87
"688",12,21,"Control",1,2,4,0,12.955,88
"689",12,77,"Control",1,2,4,1,15.011,89
"690",12,37,"Control",1,2,6,0,2.183,90
"691",12,57,"Control",1,2,6,0,1.87,91
"692",12,30,"Control",1,2,6,0,3.107,92
"693",12,40,"Control",1,2,6,0,2.002,93
"694",12,39,"Control",1,2,4,0,6.489,94
"695",12,41,"Control",1,2,6,1,2.541,95
"696",12,23,"Control",1,2,6,1,9.878,96
"697",12,16,"Control",1,2,4,1,3.858,97
"698",12,5,"Control",1,2,5,1,3.111,98
"699",12,34,"Control",1,2,6,1,2.68,99
"700",12,8,"Control",1,2,6,0,3.457,100
"701",12,45,"Control",1,2,6,0,2.376,101
"702",12,26,"Control",1,2,6,1,1.817,102
"703",12,44,"Control",1,2,6,1,9.119,103
"704",12,15,"Control",1,2,6,0,1.767,104
"705",12,18,"Control",1,2,6,1,3.265,105
"706",12,78,"Control",1,2,6,0,3.17,106
"707",12,80,"Control",1,2,6,1,2.515,107
"708",12,25,"Control",1,2,6,1,3.588,108
"709",12,52,"Control",1,2,6,0,2.099,109
"710",12,70,"Control",1,2,6,0,2.705,110
"711",12,3,"Control",1,2,6,1,1.672,111
"712",12,35,"Control",1,2,6,0,2.679,112
"713",12,71,"Control",1,2,6,0,3.325,113
"714",12,50,"Control",1,2,6,1,2.015,114
"715",12,1,"Control",1,2,6,0,4.553,115
"716",12,27,"Control",1,2,6,1,6.706,116
"717",12,64,"Control",1,2,5,0,4.177,117
"718",12,29,"Control",1,2,6,0,2.231,118
"719",12,59,"Control",1,2,6,0,4.616,119
"720",12,54,"Control",1,2,6,1,1.615,120
"721",13,61,"Warning",1,1,2,0,3.06,41
"722",13,60,"Warning",1,1,4,1,2.67,42
"723",13,9,"Warning",1,1,2,0,4.007,43
"724",13,5,"Warning",1,1,3,0,3.656,44
"725",13,47,"Warning",1,1,5,1,7.847,45
"726",13,75,"Warning",1,1,3,0,3.742,46
"727",13,71,"Warning",1,1,2,0,2.37,47
"728",13,63,"Warning",1,1,4,1,7.225,48
"729",13,76,"Warning",1,1,5,1,3.464,49
"730",13,18,"Warning",1,1,5,0,8.426,50
"731",13,24,"Warning",1,1,4,1,3.583,51
"732",13,55,"Warning",1,1,4,0,4.328,52
"733",13,16,"Warning",1,1,4,0,4.351,53
"734",13,15,"Warning",1,1,5,1,1.888,54
"735",13,46,"Warning",1,1,3,0,5.216,55
"736",13,78,"Warning",1,1,3,1,2.119,56
"737",13,54,"Warning",1,1,5,0,2.337,57
"738",13,73,"Warning",1,1,2,1,3.694,58
"739",13,19,"Warning",1,1,2,0,2.111,59
"740",13,69,"Warning",1,1,6,1,1.519,60
"741",13,53,"Warning",1,1,4,0,2.359,61
"742",13,17,"Warning",1,1,4,1,1.593,62
"743",13,77,"Warning",1,1,4,0,2.718,63
"744",13,58,"Warning",1,1,1,1,1.819,64
"745",13,10,"Warning",1,1,4,1,2.715,65
"746",13,51,"Warning",1,1,2,0,2.72,66
"747",13,8,"Warning",1,1,5,1,2.07,67
"748",13,41,"Warning",1,1,4,1,3.047,68
"749",13,38,"Warning",1,1,4,0,3.655,69
"750",13,2,"Warning",1,1,5,0,1.758,70
"751",13,7,"Warning",1,1,4,1,2.047,71
"752",13,33,"Warning",1,1,5,1,1.817,72
"753",13,43,"Warning",1,1,5,1,1.711,73
"754",13,36,"Warning",1,1,4,0,5.311,74
"755",13,27,"Warning",1,1,6,1,1.872,75
"756",13,59,"Warning",1,1,3,0,2.902,76
"757",13,12,"Warning",1,1,3,0,4.895,77
"758",13,72,"Warning",1,1,2,1,2.671,78
"759",13,70,"Warning",1,1,2,1,13.288,79
"760",13,52,"Warning",1,1,3,0,3.883,80
"761",13,68,"Warning",1,1,2,0,3.47,81
"762",13,37,"Warning",1,1,2,1,20.2,82
"763",13,42,"Warning",1,1,3,0,4.407,83
"764",13,65,"Warning",1,1,5,1,2.112,84
"765",13,67,"Warning",1,1,4,0,3.624,85
"766",13,6,"Warning",1,1,4,1,3.783,86
"767",13,21,"Warning",1,1,2,1,3.135,87
"768",13,34,"Warning",1,1,3,1,2.023,88
"769",13,30,"Warning",1,1,2,0,3.223,89
"770",13,14,"Warning",1,1,4,1,2.832,90
"771",13,4,"Warning",1,1,5,0,4.023,91
"772",13,44,"Warning",1,1,5,1,8.01,92
"773",13,32,"Warning",1,1,2,0,2.093,93
"774",13,80,"Warning",1,1,4,1,2.009,94
"775",13,3,"Warning",1,1,5,0,3.262,95
"776",13,62,"Warning",1,1,2,0,4.232,96
"777",13,25,"Warning",1,1,6,0,1.974,97
"778",13,64,"Warning",1,1,4,0,2.118,98
"779",13,23,"Warning",1,1,5,0,2.944,99
"780",13,26,"Warning",1,1,4,1,2.024,100
"781",13,39,"Warning",1,1,4,0,2.271,101
"782",13,45,"Warning",1,1,4,0,43.245,102
"783",13,28,"Warning",1,1,4,1,3.471,103
"784",13,13,"Warning",1,1,6,1,1.559,104
"785",13,22,"Warning",1,1,6,0,2.768,105
"786",13,74,"Warning",1,1,4,0,2.32,106
"787",13,20,"Warning",1,1,4,1,1.848,107
"788",13,35,"Warning",1,1,4,1,1.446,108
"789",13,29,"Warning",1,1,4,0,4.105,109
"790",13,48,"Warning",1,1,3,1,2.162,110
"791",13,57,"Warning",1,1,4,1,1.919,111
"792",13,66,"Warning",1,1,4,1,2.818,112
"793",13,40,"Warning",1,1,1,1,1.975,113
"794",13,49,"Warning",1,1,3,1,3.463,114
"795",13,56,"Warning",1,1,4,1,1.999,115
"796",13,1,"Warning",1,1,3,0,3.311,116
"797",13,11,"Warning",1,1,2,0,4.704,117
"798",13,79,"Warning",1,1,4,0,2.304,118
"799",13,50,"Warning",1,1,4,1,4.224,119
"800",13,31,"Warning",1,1,4,0,3.207,120
"801",14,30,"Warning",1,1,4,1,3.669,41
"802",14,80,"Warning",1,1,2,0,3.736,42
"803",14,75,"Warning",1,1,6,1,3.167,43
"804",14,38,"Warning",1,1,3,0,2.703,44
"805",14,61,"Warning",1,1,4,0,3.56,45
"806",14,37,"Warning",1,1,6,1,2.223,46
"807",14,26,"Warning",1,1,6,1,1.8,47
"808",14,39,"Warning",1,1,5,1,2.52,48
"809",14,71,"Warning",1,1,5,1,1.846,49
"810",14,46,"Warning",1,1,4,0,7.616,50
"811",14,43,"Warning",1,1,4,0,2.495,51
"812",14,79,"Warning",1,1,6,1,3.024,52
"813",14,42,"Warning",1,1,5,1,2.607,53
"814",14,48,"Warning",1,1,4,0,1.801,54
"815",14,5,"Warning",1,1,5,1,2.719,55
"816",14,59,"Warning",1,1,4,0,2.305,56
"817",14,27,"Warning",1,1,4,0,2.222,57
"818",14,28,"Warning",1,1,3,0,2.08,58
"819",14,51,"Warning",1,1,5,0,2.552,59
"820",14,4,"Warning",1,1,5,1,1.857,60
"821",14,11,"Warning",1,1,5,1,2.416,61
"822",14,24,"Warning",1,1,4,0,2.679,62
"823",14,21,"Warning",1,1,6,1,2.344,63
"824",14,68,"Warning",1,1,5,1,15.416,64
"825",14,13,"Warning",1,1,4,0,2.648,65
"826",14,36,"Warning",1,1,6,1,2.079,66
"827",14,52,"Warning",1,1,5,1,2.431,67
"828",14,78,"Warning",1,1,4,0,1.768,68
"829",14,15,"Warning",1,1,4,0,1.159,69
"830",14,35,"Warning",1,1,4,0,1.04,70
"831",14,8,"Warning",1,1,3,0,1.84,71
"832",14,41,"Warning",1,1,6,1,1.767,72
"833",14,25,"Warning",1,1,6,1,1.959,73
"834",14,77,"Warning",1,1,4,0,1.719,74
"835",14,50,"Warning",1,1,3,1,1.175,75
"836",14,53,"Warning",1,1,4,0,1.447,76
"837",14,19,"Warning",1,1,4,0,1.552,77
"838",14,72,"Warning",1,1,3,0,1.76,78
"839",14,14,"Warning",1,1,4,1,1.191,79
"840",14,12,"Warning",1,1,4,1,2.936,80
"841",14,31,"Warning",1,1,4,0,8.616,81
"842",14,66,"Warning",1,1,4,0,3.184,82
"843",14,62,"Warning",1,1,4,1,1.888,83
"844",14,22,"Warning",1,1,6,1,7.704,84
"845",14,16,"Warning",1,1,4,0,2.39,85
"846",14,49,"Warning",1,1,4,1,1.432,86
"847",14,2,"Warning",1,1,5,1,7.575,87
"848",14,33,"Warning",1,1,5,0,2.703,88
"849",14,67,"Warning",1,1,5,1,1.464,89
"850",14,64,"Warning",1,1,4,1,12.353,90
"851",14,3,"Warning",1,1,4,0,0.48,91
"852",14,29,"Warning",1,1,4,0,0.535,92
"853",14,9,"Warning",1,1,3,1,1.983,93
"854",14,23,"Warning",1,1,3,1,0.559,94
"855",14,73,"Warning",1,1,3,0,0.912,95
"856",14,74,"Warning",1,1,5,0,1.327,96
"857",14,47,"Warning",1,1,6,0,2.112,97
"858",14,32,"Warning",1,1,5,1,1.399,98
"859",14,1,"Warning",1,1,5,1,1.648,99
"860",14,57,"Warning",1,1,5,1,9.28,100
"861",14,7,"Warning",1,1,5,1,1.039,101
"862",14,58,"Warning",1,1,5,0,4.885,102
"863",14,6,"Warning",1,1,6,1,10.687,103
"864",14,70,"Warning",1,1,4,0,3.481,104
"865",14,44,"Warning",1,1,6,1,1.601,105
"866",14,56,"Warning",1,1,5,0,1.32,106
"867",14,54,"Warning",1,1,3,0,1.288,107
"868",14,55,"Warning",1,1,6,1,1.543,108
"869",14,76,"Warning",1,1,5,0,2.344,109
"870",14,20,"Warning",1,1,3,0,1.753,110
"871",14,63,"Warning",1,1,3,1,0.664,111
"872",14,40,"Warning",1,1,3,0,0.664,112
"873",14,17,"Warning",1,1,3,1,0.272,113
"874",14,34,"Warning",1,1,4,0,0.928,114
"875",14,69,"Warning",1,1,3,1,0.4,115
"876",14,60,"Warning",1,1,4,1,0.503,116
"877",14,10,"Warning",1,1,5,1,0.976,117
"878",14,18,"Warning",1,1,4,0,0.639,118
"879",14,45,"Warning",1,1,4,0,3.496,119
"880",14,65,"Warning",1,1,4,0,0.808,120
"881",15,39,"Warning",1,1,4,1,7.694,41
"882",15,73,"Warning",1,1,2,0,4.238,42
"883",15,12,"Warning",1,1,6,1,4.458,43
"884",15,9,"Warning",1,1,6,0,22.692,44
"885",15,42,"Warning",1,1,1,1,8.46,45
"886",15,36,"Warning",1,1,6,0,5.232,46
"887",15,32,"Warning",1,1,6,1,5.683,47
"888",15,1,"Warning",1,1,6,1,4.538,48
"889",15,71,"Warning",1,1,6,0,4.311,49
"890",15,40,"Warning",1,1,6,1,3.687,50
"891",15,66,"Warning",1,1,1,1,3.153,51
"892",15,52,"Warning",1,1,1,1,4.202,52
"893",15,25,"Warning",1,1,6,0,3.029,53
"894",15,58,"Warning",1,1,6,0,2.613,54
"895",15,69,"Warning",1,1,1,1,5.131,55
"896",15,72,"Warning",1,1,6,0,5.586,56
"897",15,61,"Warning",1,1,6,0,4.108,57
"898",15,24,"Warning",1,1,1,1,3.844,58
"899",15,68,"Warning",1,1,1,1,3.525,59
"900",15,7,"Warning",1,1,6,0,3.061,60
"901",15,18,"Warning",1,1,4,0,5.198,61
"902",15,38,"Warning",1,1,6,0,4.42,62
"903",15,8,"Warning",1,1,6,0,3.75,63
"904",15,31,"Warning",1,1,1,1,3.626,64
"905",15,64,"Warning",1,1,1,1,3.007,65
"906",15,13,"Warning",1,1,6,0,3.072,66
"907",15,53,"Warning",1,1,6,0,3.258,67
"908",15,48,"Warning",1,1,6,0,2.438,68
"909",15,78,"Warning",1,1,1,1,4.02,69
"910",15,16,"Warning",1,1,6,0,2.973,70
"911",15,45,"Warning",1,1,4,1,3.815,71
"912",15,55,"Warning",1,1,6,0,3.13,72
"913",15,56,"Warning",1,1,1,1,2.774,73
"914",15,14,"Warning",1,1,1,1,3.249,74
"915",15,26,"Warning",1,1,4,1,4.586,75
"916",15,33,"Warning",1,1,6,0,2.555,76
"917",15,35,"Warning",1,1,6,0,1.895,77
"918",15,77,"Warning",1,1,2,1,3.331,78
"919",15,41,"Warning",1,1,6,1,3.326,79
"920",15,63,"Warning",1,1,2,0,3.611,80
"921",15,29,"Warning",1,1,1,1,2.881,81
"922",15,54,"Warning",1,1,1,1,2.267,82
"923",15,65,"Warning",1,1,6,0,2.757,83
"924",15,3,"Warning",1,1,6,0,2.863,84
"925",15,59,"Warning",1,1,6,0,4.068,85
"926",15,11,"Warning",1,1,6,0,2.306,86
"927",15,30,"Warning",1,1,1,1,2.938,87
"928",15,43,"Warning",1,1,6,0,3.364,88
"929",15,76,"Warning",1,1,1,1,2.912,89
"930",15,21,"Warning",1,1,6,0,5.559,90
"931",15,5,"Warning",1,1,6,0,4.293,91
"932",15,2,"Warning",1,1,1,1,2.608,92
"933",15,28,"Warning",1,1,6,0,3.226,93
"934",15,6,"Warning",1,1,6,1,3.319,94
"935",15,62,"Warning",1,1,6,0,2.814,95
"936",15,37,"Warning",1,1,6,0,3.164,96
"937",15,47,"Warning",1,1,1,1,4.028,97
"938",15,17,"Warning",1,1,6,1,4.252,98
"939",15,50,"Warning",1,1,6,0,4.592,99
"940",15,15,"Warning",1,1,4,1,3.067,100
"941",15,22,"Warning",1,1,1,1,3.086,101
"942",15,60,"Warning",1,1,1,1,2.331,102
"943",15,27,"Warning",1,1,6,0,3.153,103
"944",15,51,"Warning",1,1,3,0,2.903,104
"945",15,74,"Warning",1,1,6,0,2.679,105
"946",15,19,"Warning",1,1,1,1,3.34,106
"947",15,75,"Warning",1,1,1,1,3.423,107
"948",15,70,"Warning",1,1,1,1,2.72,108
"949",15,34,"Warning",1,1,6,0,3.364,109
"950",15,4,"Warning",1,1,1,1,2.499,110
"951",15,49,"Warning",1,1,6,0,3.619,111
"952",15,80,"Warning",1,1,6,0,3.492,112
"953",15,79,"Warning",1,1,6,0,2.242,113
"954",15,20,"Warning",1,1,2,1,3.729,114
"955",15,46,"Warning",1,1,6,0,3.527,115
"956",15,23,"Warning",1,1,6,0,2.246,116
"957",15,10,"Warning",1,1,6,1,2.031,117
"958",15,67,"Warning",1,1,6,1,2.677,118
"959",15,57,"Warning",1,1,3,1,3.345,119
"960",15,44,"Warning",1,1,1,1,2.397,120
"961",16,26,"Warning",1,1,3,1,9.917,41
"962",16,58,"Warning",1,1,3,0,8.843,42
"963",16,20,"Warning",1,1,4,1,19.937,43
"964",16,40,"Warning",1,1,2,1,10.759,44
"965",16,22,"Warning",1,1,5,0,7.47,45
"966",16,33,"Warning",1,1,2,1,7.92,46
"967",16,78,"Warning",1,1,4,1,5.12,47
"968",16,64,"Warning",1,1,4,1,4.429,48
"969",16,29,"Warning",1,1,4,0,5.497,49
"970",16,3,"Warning",1,1,4,0,13.142,50
"971",16,73,"Warning",1,1,5,1,5.52,51
"972",16,17,"Warning",1,1,3,1,21.545,52
"973",16,18,"Warning",1,1,3,0,7.042,53
"974",16,27,"Warning",1,1,2,0,7.733,54
"975",16,46,"Warning",1,1,5,1,4.607,55
"976",16,59,"Warning",1,1,5,1,6.799,56
"977",16,68,"Warning",1,1,2,0,12.778,57
"978",16,2,"Warning",1,1,4,0,6.214,58
"979",16,1,"Warning",1,1,3,0,6.544,59
"980",16,54,"Warning",1,1,2,0,14.7,60
"981",16,7,"Warning",1,1,4,1,3.189,61
"982",16,30,"Warning",1,1,3,1,8.114,62
"983",16,53,"Warning",1,1,4,0,4.671,63
"984",16,51,"Warning",1,1,2,0,5.558,64
"985",16,65,"Warning",1,1,2,0,5.095,65
"986",16,8,"Warning",1,1,4,0,5.921,66
"987",16,76,"Warning",1,1,5,1,6.905,67
"988",16,50,"Warning",1,1,4,1,5.455,68
"989",16,62,"Warning",1,1,4,0,9.854,69
"990",16,35,"Warning",1,1,5,1,4.849,70
"991",16,24,"Warning",1,1,4,0,6.181,71
"992",16,14,"Warning",1,1,2,1,7.434,72
"993",16,47,"Warning",1,1,4,1,9.499,73
"994",16,52,"Warning",1,1,4,1,6.091,74
"995",16,19,"Warning",1,1,5,0,11.154,75
"996",16,13,"Warning",1,1,4,1,6.747,76
"997",16,71,"Warning",1,1,5,1,2.516,77
"998",16,32,"Warning",1,1,3,0,6.695,78
"999",16,11,"Warning",1,1,4,0,9.521,79
"1000",16,21,"Warning",1,1,5,0,6.058,80
"1001",16,37,"Warning",1,1,4,0,6.767,81
"1002",16,5,"Warning",1,1,5,1,3.127,82
"1003",16,69,"Warning",1,1,4,0,12.72,83
"1004",16,12,"Warning",1,1,3,0,6.884,84
"1005",16,10,"Warning",1,1,2,0,4.517,85
"1006",16,63,"Warning",1,1,4,0,9.185,86
"1007",16,4,"Warning",1,1,4,0,9.002,87
"1008",16,80,"Warning",1,1,3,1,5.612,88
"1009",16,9,"Warning",1,1,4,0,6.005,89
"1010",16,72,"Warning",1,1,2,1,4.524,90
"1011",16,55,"Warning",1,1,5,1,4.082,91
"1012",16,43,"Warning",1,1,2,0,8.256,92
"1013",16,56,"Warning",1,1,5,0,5.932,93
"1014",16,25,"Warning",1,1,2,0,5.537,94
"1015",16,36,"Warning",1,1,3,1,12.908,95
"1016",16,28,"Warning",1,1,4,0,8.516,96
"1017",16,6,"Warning",1,1,4,0,7.6,97
"1018",16,75,"Warning",1,1,5,1,4.379,98
"1019",16,44,"Warning",1,1,5,0,4.295,99
"1020",16,42,"Warning",1,1,2,1,6.55,100
"1021",16,49,"Warning",1,1,3,1,16.85,101
"1022",16,60,"Warning",1,1,3,1,7.292,102
"1023",16,67,"Warning",1,1,4,1,6.427,103
"1024",16,31,"Warning",1,1,3,0,7.764,104
"1025",16,41,"Warning",1,1,3,1,4.767,105
"1026",16,16,"Warning",1,1,2,1,6.859,106
"1027",16,34,"Warning",1,1,3,1,4.665,107
"1028",16,38,"Warning",1,1,3,1,6.433,108
"1029",16,77,"Warning",1,1,5,0,5.117,109
"1030",16,57,"Warning",1,1,3,1,5.99,110
"1031",16,23,"Warning",1,1,3,1,7.422,111
"1032",16,39,"Warning",1,1,2,0,5.97,112
"1033",16,61,"Warning",1,1,2,1,12.373,113
"1034",16,15,"Warning",1,1,4,0,7.216,114
"1035",16,48,"Warning",1,1,3,1,6.132,115
"1036",16,79,"Warning",1,1,4,0,5.619,116
"1037",16,70,"Warning",1,1,4,1,3.991,117
"1038",16,66,"Warning",1,1,5,0,9.863,118
"1039",16,45,"Warning",1,1,3,0,3.38,119
"1040",16,74,"Warning",1,1,4,1,4.106,120
"1041",18,35,"Control",1,2,6,1,3.587,41
"1042",18,65,"Control",1,2,3,0,3.839,42
"1043",18,36,"Control",1,2,4,0,4.278,43
"1044",18,50,"Control",1,2,4,0,3.283,44
"1045",18,33,"Control",1,2,6,1,1.546,45
"1046",18,38,"Control",1,2,6,1,2.108,46
"1047",18,1,"Control",1,2,4,0,3.694,47
"1048",18,21,"Control",1,2,6,1,1.803,48
"1049",18,29,"Control",1,2,6,1,2.072,49
"1050",18,46,"Control",1,2,6,1,2.048,50
"1051",18,6,"Control",1,2,4,0,3.885,51
"1052",18,34,"Control",1,2,6,1,1.84,52
"1053",18,41,"Control",1,2,6,1,1.577,53
"1054",18,4,"Control",1,2,3,0,1.883,54
"1055",18,72,"Control",1,2,4,1,3.054,55
"1056",18,51,"Control",1,2,4,1,2.412,56
"1057",18,40,"Control",1,2,1,0,3.77,57
"1058",18,64,"Control",1,2,3,0,4.395,58
"1059",18,53,"Control",1,2,1,0,4.57,59
"1060",18,31,"Control",1,2,4,1,2.621,60
"1061",18,44,"Control",1,2,5,1,2.426,61
"1062",18,32,"Control",1,2,4,0,3.226,62
"1063",18,70,"Control",1,2,5,1,2.127,63
"1064",18,73,"Control",1,2,4,0,2.742,64
"1065",18,16,"Control",1,2,3,0,3.062,65
"1066",18,54,"Control",1,2,5,1,1.81,66
"1067",18,76,"Control",1,2,4,1,1.837,67
"1068",18,26,"Control",1,2,2,0,2.444,68
"1069",18,11,"Control",1,2,4,0,3.164,69
"1070",18,80,"Control",1,2,2,0,5.098,70
"1071",18,47,"Control",1,2,6,1,2.029,71
"1072",18,9,"Control",1,2,3,0,3.325,72
"1073",18,23,"Control",1,2,4,1,2.382,73
"1074",18,27,"Control",1,2,5,1,1.974,74
"1075",18,75,"Control",1,2,2,0,3.866,75
"1076",18,5,"Control",1,2,4,0,2.471,76
"1077",18,24,"Control",1,2,5,1,3.261,77
"1078",18,2,"Control",1,2,4,0,2.182,78
"1079",18,55,"Control",1,2,3,0,3.032,79
"1080",18,12,"Control",1,2,4,1,3.093,80
"1081",18,62,"Control",1,2,6,1,2.317,81
"1082",18,66,"Control",1,2,3,0,3.157,82
"1083",18,39,"Control",1,2,4,1,2.22,83
"1084",18,25,"Control",1,2,6,1,2.11,84
"1085",18,8,"Control",1,2,6,1,2.236,85
"1086",18,77,"Control",1,2,4,1,1.734,86
"1087",18,22,"Control",1,2,6,0,2.002,87
"1088",18,30,"Control",1,2,5,0,5.255,88
"1089",18,43,"Control",1,2,5,1,1.52,89
"1090",18,74,"Control",1,2,4,0,1.581,90
"1091",18,69,"Control",1,2,4,0,3.643,91
"1092",18,60,"Control",1,2,5,1,2.69,92
"1093",18,14,"Control",1,2,4,0,3.18,93
"1094",18,63,"Control",1,2,4,0,5.51,94
"1095",18,28,"Control",1,2,3,0,2.836,95
"1096",18,59,"Control",1,2,6,0,2.526,96
"1097",18,17,"Control",1,2,6,1,1.891,97
"1098",18,57,"Control",1,2,4,0,2.743,98
"1099",18,37,"Control",1,2,5,0,2.768,99
"1100",18,52,"Control",1,2,4,1,2.014,100
"1101",18,58,"Control",1,2,4,0,2.747,101
"1102",18,18,"Control",1,2,6,0,2.685,102
"1103",18,48,"Control",1,2,5,1,2.739,103
"1104",18,68,"Control",1,2,3,0,6.158,104
"1105",18,20,"Control",1,2,4,0,3.421,105
"1106",18,15,"Control",1,2,6,0,1.88,106
"1107",18,19,"Control",1,2,5,1,1.914,107
"1108",18,10,"Control",1,2,4,1,1.481,108
"1109",18,61,"Control",1,2,5,0,3.223,109
"1110",18,42,"Control",1,2,5,1,2.561,110
"1111",18,67,"Control",1,2,2,0,3.472,111
"1112",18,45,"Control",1,2,6,1,1.622,112
"1113",18,13,"Control",1,2,4,1,1.922,113
"1114",18,7,"Control",1,2,3,1,1.945,114
"1115",18,3,"Control",1,2,3,0,4.252,115
"1116",18,71,"Control",1,2,4,1,2.053,116
"1117",18,56,"Control",1,2,4,1,2.282,117
"1118",18,49,"Control",1,2,5,1,1.824,118
"1119",18,78,"Control",1,2,2,0,2.906,119
"1120",18,79,"Control",1,2,4,1,3.307,120
"1121",19,76,"Control",1,2,5,1,2.477,41
"1122",19,74,"Control",1,2,4,0,3.271,42
"1123",19,12,"Control",1,2,6,1,1.687,43
"1124",19,77,"Control",1,2,5,1,1.582,44
"1125",19,2,"Control",1,2,3,0,1.976,45
"1126",19,28,"Control",1,2,4,0,3.159,46
"1127",19,29,"Control",1,2,5,1,2.734,47
"1128",19,80,"Control",1,2,2,0,2.519,48
"1129",19,54,"Control",1,2,5,1,1.854,49
"1130",19,42,"Control",1,2,6,1,1.855,50
"1131",19,14,"Control",1,2,4,1,2.079,51
"1132",19,17,"Control",1,2,4,0,2.567,52
"1133",19,53,"Control",1,2,3,0,3.855,53
"1134",19,20,"Control",1,2,3,0,2.223,54
"1135",19,36,"Control",1,2,4,1,1.367,55
"1136",19,30,"Control",1,2,5,0,4.175,56
"1137",19,73,"Control",1,2,5,0,3.071,57
"1138",19,26,"Control",1,2,5,1,1.167,58
"1139",19,19,"Control",1,2,4,0,1.288,59
"1140",19,59,"Control",1,2,6,1,1.415,60
"1141",19,6,"Control",1,2,5,1,3.414,61
"1142",19,15,"Control",1,2,6,0,1.51,62
"1143",19,58,"Control",1,2,4,0,2.278,63
"1144",19,16,"Control",1,2,4,0,1.518,64
"1145",19,24,"Control",1,2,5,1,1.286,65
"1146",19,72,"Control",1,2,4,1,1.559,66
"1147",19,39,"Control",1,2,3,0,3.343,67
"1148",19,66,"Control",1,2,1,1,4.808,68
"1149",19,64,"Control",1,2,3,0,5.055,69
"1150",19,62,"Control",1,2,3,0,1.975,70
"1151",19,32,"Control",1,2,3,1,1.287,71
"1152",19,60,"Control",1,2,4,1,1.527,72
"1153",19,70,"Control",1,2,5,1,1.431,73
"1154",19,47,"Control",1,2,6,0,1.783,74
"1155",19,25,"Control",1,2,4,0,3.142,75
"1156",19,3,"Control",1,2,5,1,2.038,76
"1157",19,23,"Control",1,2,6,0,2.471,77
"1158",19,48,"Control",1,2,4,0,4.295,78
"1159",19,13,"Control",1,2,5,1,1.703,79
"1160",19,68,"Control",1,2,4,1,1.863,80
"1161",19,75,"Control",1,2,5,0,4.558,81
"1162",19,40,"Control",1,2,3,0,2.023,82
"1163",19,61,"Control",1,2,4,1,2.223,83
"1164",19,67,"Control",1,2,5,1,1.567,84
"1165",19,79,"Control",1,2,4,0,2.463,85
"1166",19,4,"Control",1,2,4,0,2.871,86
"1167",19,78,"Control",1,2,5,0,3.487,87
"1168",19,43,"Control",1,2,3,0,2.615,88
"1169",19,65,"Control",1,2,4,0,2.664,89
"1170",19,44,"Control",1,2,5,1,0.967,90
"1171",19,22,"Control",1,2,5,1,3.007,91
"1172",19,45,"Control",1,2,5,1,1.807,92
"1173",19,8,"Control",1,2,4,1,1.399,93
"1174",19,50,"Control",1,2,3,0,2.478,94
"1175",19,49,"Control",1,2,2,0,2.55,95
"1176",19,11,"Control",1,2,5,0,5.583,96
"1177",19,35,"Control",1,2,5,1,1.751,97
"1178",19,10,"Control",1,2,4,0,1.391,98
"1179",19,33,"Control",1,2,5,0,2.038,99
"1180",19,18,"Control",1,2,5,1,2.639,100
"1181",19,56,"Control",1,2,5,1,1.959,101
"1182",19,51,"Control",1,2,4,0,1.431,102
"1183",19,46,"Control",1,2,3,0,4.111,103
"1184",19,52,"Control",1,2,5,1,2.424,104
"1185",19,1,"Control",1,2,5,1,1.078,105
"1186",19,21,"Control",1,2,5,1,2.831,106
"1187",19,5,"Control",1,2,5,1,1.382,107
"1188",19,57,"Control",1,2,3,0,1.496,108
"1189",19,38,"Control",1,2,5,1,81.814,109
"1190",19,27,"Control",1,2,4,1,1.655,110
"1191",19,7,"Control",1,2,4,0,1.591,111
"1192",19,41,"Control",1,2,3,0,2.871,112
"1193",19,37,"Control",1,2,4,0,3.991,113
"1194",19,9,"Control",1,2,5,1,1.511,114
"1195",19,63,"Control",1,2,5,1,1.199,115
"1196",19,71,"Control",1,2,6,1,1.207,116
"1197",19,55,"Control",1,2,5,0,2.846,117
"1198",19,69,"Control",1,2,6,1,1.047,118
"1199",19,31,"Control",1,2,5,1,1.783,119
"1200",19,34,"Control",1,2,4,0,2.296,120
"1201",20,46,"Control",1,2,1,1,25.094,41
"1202",20,73,"Control",1,2,4,1,3.547,42
"1203",20,21,"Control",1,2,1,0,9.079,43
"1204",20,5,"Control",1,2,3,1,4.906,44
"1205",20,68,"Control",1,2,2,0,6.453,45
"1206",20,58,"Control",1,2,4,1,3.671,46
"1207",20,9,"Control",1,2,6,0,5.437,47
"1208",20,44,"Control",1,2,5,1,8.701,48
"1209",20,76,"Control",1,2,6,1,4.391,49
"1210",20,78,"Control",1,2,4,0,5.031,50
"1211",20,17,"Control",1,2,3,1,10.481,51
"1212",20,70,"Control",1,2,1,0,5.312,52
"1213",20,55,"Control",1,2,1,0,5.994,53
"1214",20,41,"Control",1,2,5,1,8.593,54
"1215",20,72,"Control",1,2,5,1,5.905,55
"1216",20,29,"Control",1,2,2,0,5.421,56
"1217",20,53,"Control",1,2,4,0,6.625,57
"1218",20,64,"Control",1,2,6,0,13.251,58
"1219",20,62,"Control",1,2,4,0,5.582,59
"1220",20,11,"Control",1,2,6,0,10.5,60
"1221",20,4,"Control",1,2,6,1,8.063,61
"1222",20,48,"Control",1,2,6,1,4.781,62
"1223",20,23,"Control",1,2,6,1,4.843,63
"1224",20,32,"Control",1,2,5,0,5.091,64
"1225",20,45,"Control",1,2,5,0,5.89,65
"1226",20,6,"Control",1,2,6,0,6.223,66
"1227",20,54,"Control",1,2,6,1,3.197,67
"1228",20,63,"Control",1,2,1,0,11.594,68
"1229",20,67,"Control",1,2,5,0,8.059,69
"1230",20,30,"Control",1,2,1,1,3.078,70
"1231",20,74,"Control",1,2,4,1,6.514,71
"1232",20,51,"Control",1,2,5,1,7.156,72
"1233",20,1,"Control",1,2,4,0,9.766,73
"1234",20,42,"Control",1,2,3,0,7.531,74
"1235",20,35,"Control",1,2,1,1,4.828,75
"1236",20,77,"Control",1,2,4,0,7.874,76
"1237",20,59,"Control",1,2,6,1,6.311,77
"1238",20,66,"Control",1,2,1,1,12.354,78
"1239",20,56,"Control",1,2,5,1,4.734,79
"1240",20,80,"Control",1,2,5,0,8.515,80
"1241",20,36,"Control",1,2,4,1,5.612,81
"1242",20,60,"Control",1,2,1,1,5.843,82
"1243",20,65,"Control",1,2,4,1,4.734,83
"1244",20,71,"Control",1,2,6,1,6.437,84
"1245",20,14,"Control",1,2,6,0,5.794,85
"1246",20,13,"Control",1,2,3,0,15.906,86
"1247",20,79,"Control",1,2,6,1,4.78,87
"1248",20,15,"Control",1,2,6,0,5.124,88
"1249",20,34,"Control",1,2,2,0,7.047,89
"1250",20,69,"Control",1,2,3,0,5.859,90
"1251",20,18,"Control",1,2,6,0,4.563,91
"1252",20,33,"Control",1,2,4,0,4.336,92
"1253",20,37,"Control",1,2,5,0,4.812,93
"1254",20,75,"Control",1,2,6,0,7.062,94
"1255",20,47,"Control",1,2,6,1,8.224,95
"1256",20,10,"Control",1,2,4,0,4.984,96
"1257",20,26,"Control",1,2,5,1,2.516,97
"1258",20,2,"Control",1,2,3,0,4.344,98
"1259",20,27,"Control",1,2,6,1,4.125,99
"1260",20,61,"Control",1,2,5,0,6.718,100
"1261",20,50,"Control",1,2,5,0,4.57,101
"1262",20,49,"Control",1,2,6,0,4.649,102
"1263",20,57,"Control",1,2,5,1,6.734,103
"1264",20,3,"Control",1,2,6,0,6.75,104
"1265",20,7,"Control",1,2,5,1,3.64,105
"1266",20,28,"Control",1,2,6,1,2.562,106
"1267",20,20,"Control",1,2,1,1,4.92,107
"1268",20,24,"Control",1,2,4,0,5.265,108
"1269",20,25,"Control",1,2,1,0,5.359,109
"1270",20,40,"Control",1,2,2,1,4.202,110
"1271",20,8,"Control",1,2,4,0,5.405,111
"1272",20,31,"Control",1,2,4,1,7.968,112
"1273",20,38,"Control",1,2,4,0,8.471,113
"1274",20,52,"Control",1,2,6,1,6.516,114
"1275",20,43,"Control",1,2,5,0,7.531,115
"1276",20,12,"Control",1,2,6,1,7.39,116
"1277",20,19,"Control",1,2,4,1,7.406,117
"1278",20,22,"Control",1,2,2,1,3.99,118
"1279",20,39,"Control",1,2,1,1,4.852,119
"1280",20,16,"Control",1,2,4,1,4.994,120
"1281",21,21,"Control",1,2,3,0,3.419,41
"1282",21,74,"Control",1,2,1,1,4.039,42
"1283",21,17,"Control",1,2,4,1,4.388,43
"1284",21,32,"Control",1,2,3,1,2.067,44
"1285",21,61,"Control",1,2,3,0,2.767,45
"1286",21,45,"Control",1,2,3,0,3.023,46
"1287",21,54,"Control",1,2,5,0,3.937,47
"1288",21,59,"Control",1,2,6,0,3.203,48
"1289",21,73,"Control",1,2,3,0,3.351,49
"1290",21,47,"Control",1,2,4,1,2.159,50
"1291",21,19,"Control",1,2,3,0,2.288,51
"1292",21,80,"Control",1,2,1,1,2.672,52
"1293",21,29,"Control",1,2,3,0,9.926,53
"1294",21,33,"Control",1,2,4,1,2.21,54
"1295",21,38,"Control",1,2,3,1,3.491,55
"1296",21,26,"Control",1,2,4,1,2.277,56
"1297",21,53,"Control",1,2,4,0,3.167,57
"1298",21,70,"Control",1,2,2,1,2.625,58
"1299",21,7,"Control",1,2,4,0,3.139,59
"1300",21,23,"Control",1,2,3,0,3.903,60
"1301",21,50,"Control",1,2,2,1,3.926,61
"1302",21,63,"Control",1,2,5,0,7.81,62
"1303",21,69,"Control",1,2,3,0,30.316,63
"1304",21,39,"Control",1,2,4,0,3.105,64
"1305",21,65,"Control",1,2,3,0,3.2,65
"1306",21,3,"Control",1,2,4,1,3.634,66
"1307",21,51,"Control",1,2,4,1,1.947,67
"1308",21,27,"Control",1,2,5,1,27.2,68
"1309",21,12,"Control",1,2,4,0,3.134,69
"1310",21,79,"Control",1,2,3,0,3.339,70
"1311",21,60,"Control",1,2,4,1,2.993,71
"1312",21,9,"Control",1,2,1,1,3.142,72
"1313",21,31,"Control",1,2,3,1,2.552,73
"1314",21,48,"Control",1,2,3,1,3.037,74
"1315",21,35,"Control",1,2,4,0,2.431,75
"1316",21,68,"Control",1,2,2,0,4.449,76
"1317",21,11,"Control",1,2,1,0,3.52,77
"1318",21,34,"Control",1,2,2,1,4.052,78
"1319",21,30,"Control",1,2,4,1,2.019,79
"1320",21,58,"Control",1,2,3,1,2.337,80
"1321",21,25,"Control",1,2,4,0,3.284,81
"1322",21,22,"Control",1,2,2,0,7.424,82
"1323",21,78,"Control",1,2,3,1,2.909,83
"1324",21,43,"Control",1,2,3,1,2.461,84
"1325",21,42,"Control",1,2,1,0,4.956,85
"1326",21,75,"Control",1,2,4,0,4.787,86
"1327",21,71,"Control",1,2,4,0,2.639,87
"1328",21,72,"Control",1,2,2,1,232.306,88
"1329",21,66,"Control",1,2,4,0,2.767,89
"1330",21,67,"Control",1,2,3,1,4.608,90
"1331",21,1,"Control",1,2,3,1,5.535,91
"1332",21,24,"Control",1,2,3,1,1.595,92
"1333",21,2,"Control",1,2,5,1,2.687,93
"1334",21,37,"Control",1,2,4,0,3.75,94
"1335",21,52,"Control",1,2,5,1,2.591,95
"1336",21,8,"Control",1,2,1,0,5.851,96
"1337",21,57,"Control",1,2,3,1,2.241,97
"1338",21,77,"Control",1,2,3,1,2.079,98
"1339",21,14,"Control",1,2,3,0,4.753,99
"1340",21,44,"Control",1,2,5,1,2.516,100
"1341",21,15,"Control",1,2,6,1,2.801,101
"1342",21,10,"Control",1,2,4,0,18.036,102
"1343",21,46,"Control",1,2,5,0,9.117,103
"1344",21,64,"Control",1,2,5,0,39.41,104
"1345",21,5,"Control",1,2,5,1,8.95,105
"1346",21,16,"Control",1,2,5,1,16.612,106
"1347",21,18,"Control",1,2,3,0,1.751,107
"1348",21,4,"Control",1,2,3,0,2.861,108
"1349",21,28,"Control",1,2,5,0,3.268,109
"1350",21,55,"Control",1,2,5,1,1.626,110
"1351",21,20,"Control",1,2,3,0,3.642,111
"1352",21,56,"Control",1,2,4,1,5.512,112
"1353",21,13,"Control",1,2,3,0,2.323,113
"1354",21,6,"Control",1,2,3,0,1.842,114
"1355",21,62,"Control",1,2,4,1,0.644,115
"1356",21,49,"Control",1,2,4,0,1.188,116
"1357",21,36,"Control",1,2,2,1,2.995,117
"1358",21,41,"Control",1,2,5,1,3.024,118
"1359",21,40,"Control",1,2,4,1,2.412,119
"1360",21,76,"Control",1,2,3,0,3.607,120
"1361",22,53,"Warning",1,1,4,0,4.384,41
"1362",22,58,"Warning",1,1,4,1,3.73,42
"1363",22,10,"Warning",1,1,3,0,3.135,43
"1364",22,45,"Warning",1,1,2,0,2.61,44
"1365",22,26,"Warning",1,1,1,0,2.471,45
"1366",22,30,"Warning",1,1,5,1,13.142,46
"1367",22,29,"Warning",1,1,4,1,3.154,47
"1368",22,1,"Warning",1,1,4,1,2.089,48
"1369",22,44,"Warning",1,1,1,1,2.528,49
"1370",22,43,"Warning",1,1,1,1,1.951,50
"1371",22,41,"Warning",1,1,3,0,4.009,51
"1372",22,23,"Warning",1,1,2,0,5.944,52
"1373",22,59,"Warning",1,1,6,1,5.641,53
"1374",22,15,"Warning",1,1,4,0,2.666,54
"1375",22,52,"Warning",1,1,5,1,2.997,55
"1376",22,40,"Warning",1,1,5,0,2.701,56
"1377",22,42,"Warning",1,1,1,1,6.313,57
"1378",22,67,"Warning",1,1,2,0,3.357,58
"1379",22,71,"Warning",1,1,2,1,6.269,59
"1380",22,65,"Warning",1,1,4,1,3.187,60
"1381",22,56,"Warning",1,1,1,0,70.383,61
"1382",22,60,"Warning",1,1,3,1,2.334,62
"1383",22,34,"Warning",1,1,2,0,3.528,63
"1384",22,57,"Warning",1,1,5,0,3.387,64
"1385",22,68,"Warning",1,1,1,1,2.195,65
"1386",22,46,"Warning",1,1,4,0,6.593,66
"1387",22,13,"Warning",1,1,4,0,2.175,67
"1388",22,74,"Warning",1,1,4,0,2.137,68
"1389",22,55,"Warning",1,1,5,0,2.878,69
"1390",22,39,"Warning",1,1,4,1,17.307,70
"1391",22,51,"Warning",1,1,4,0,3.362,71
"1392",22,18,"Warning",1,1,2,1,7.672,72
"1393",22,72,"Warning",1,1,3,0,2.526,73
"1394",22,63,"Warning",1,1,5,1,3.109,74
"1395",22,33,"Warning",1,1,2,1,2.215,75
"1396",22,2,"Warning",1,1,4,0,11.136,76
"1397",22,5,"Warning",1,1,2,0,5.44,77
"1398",22,73,"Warning",1,1,5,1,2.493,78
"1399",22,19,"Warning",1,1,6,1,2.156,79
"1400",22,17,"Warning",1,1,2,1,3.797,80
"1401",22,32,"Warning",1,1,4,1,2.613,81
"1402",22,78,"Warning",1,1,3,0,4.901,82
"1403",22,48,"Warning",1,1,4,0,5.453,83
"1404",22,12,"Warning",1,1,4,0,2.549,84
"1405",22,36,"Warning",1,1,1,0,5.415,85
"1406",22,25,"Warning",1,1,1,0,4.259,86
"1407",22,16,"Warning",1,1,3,1,4.774,87
"1408",22,21,"Warning",1,1,2,1,4.185,88
"1409",22,7,"Warning",1,1,6,0,64.115,89
"1410",22,8,"Warning",1,1,1,1,5.127,90
"1411",22,14,"Warning",1,1,1,0,2.798,91
"1412",22,27,"Warning",1,1,1,0,1.69,92
"1413",22,54,"Warning",1,1,3,0,3.373,93
"1414",22,66,"Warning",1,1,4,0,4.229,94
"1415",22,70,"Warning",1,1,1,0,8.582,95
"1416",22,22,"Warning",1,1,1,0,4.561,96
"1417",22,62,"Warning",1,1,3,1,3.131,97
"1418",22,76,"Warning",1,1,6,0,7.883,98
"1419",22,69,"Warning",1,1,1,1,1.666,99
"1420",22,79,"Warning",1,1,2,1,3.261,100
"1421",22,35,"Warning",1,1,3,0,2.601,101
"1422",22,75,"Warning",1,1,6,1,6.262,102
"1423",22,47,"Warning",1,1,1,1,7.505,103
"1424",22,38,"Warning",1,1,1,1,5.599,104
"1425",22,49,"Warning",1,1,1,1,5.071,105
"1426",22,77,"Warning",1,1,4,0,2.97,106
"1427",22,20,"Warning",1,1,2,1,2.13,107
"1428",22,80,"Warning",1,1,1,0,3.737,108
"1429",22,64,"Warning",1,1,2,1,18.166,109
"1430",22,28,"Warning",1,1,5,0,4.102,110
"1431",22,4,"Warning",1,1,6,1,6.761,111
"1432",22,37,"Warning",1,1,4,1,2.527,112
"1433",22,3,"Warning",1,1,5,1,5.343,113
"1434",22,61,"Warning",1,1,1,0,4.058,114
"1435",22,31,"Warning",1,1,1,1,34.668,115
"1436",22,9,"Warning",1,1,6,1,3.106,116
"1437",22,11,"Warning",1,1,1,1,1.868,117
"1438",22,50,"Warning",1,1,3,0,6.129,118
"1439",22,6,"Warning",1,1,2,1,2.46,119
"1440",22,24,"Warning",1,1,4,0,2.575,120
"1441",23,75,"Warning",1,1,4,0,7.465,41
"1442",23,5,"Warning",1,1,3,1,62.877,42
"1443",23,37,"Warning",1,1,3,0,3.504,43
"1444",23,73,"Warning",1,1,4,1,4.265,44
"1445",23,6,"Warning",1,1,3,1,2.248,45
"1446",23,49,"Warning",1,1,4,0,3.318,46
"1447",23,13,"Warning",1,1,1,0,2.66,47
"1448",23,56,"Warning",1,1,6,0,15.82,48
"1449",23,27,"Warning",1,1,6,1,26.608,49
"1450",23,47,"Warning",1,1,3,1,6.846,50
"1451",23,11,"Warning",1,1,6,1,2.567,51
"1452",23,16,"Warning",1,1,3,1,3.743,52
"1453",23,4,"Warning",1,1,5,1,3.184,53
"1454",23,10,"Warning",1,1,4,1,3.756,54
"1455",23,42,"Warning",1,1,3,0,4.52,55
"1456",23,22,"Warning",1,1,3,1,3.579,56
"1457",23,28,"Warning",1,1,5,1,5.235,57
"1458",23,41,"Warning",1,1,3,0,3.773,58
"1459",23,50,"Warning",1,1,4,0,4.273,59
"1460",23,79,"Warning",1,1,4,1,4.302,60
"1461",23,33,"Warning",1,1,5,1,4.907,61
"1462",23,66,"Warning",1,1,4,0,6.082,62
"1463",23,51,"Warning",1,1,2,0,4.045,63
"1464",23,78,"Warning",1,1,3,0,2.094,64
"1465",23,80,"Warning",1,1,3,1,2.735,65
"1466",23,62,"Warning",1,1,3,0,3.145,66
"1467",23,53,"Warning",1,1,6,0,2.74,67
"1468",23,55,"Warning",1,1,5,0,2.597,68
"1469",23,39,"Warning",1,1,2,1,2.72,69
"1470",23,38,"Warning",1,1,4,0,29.851,70
"1471",23,32,"Warning",1,1,6,1,2.451,71
"1472",23,8,"Warning",1,1,3,1,2.474,72
"1473",23,71,"Warning",1,1,3,0,8.206,73
"1474",23,61,"Warning",1,1,2,1,2.875,74
"1475",23,65,"Warning",1,1,3,0,3.602,75
"1476",23,46,"Warning",1,1,3,0,2.68,76
"1477",23,31,"Warning",1,1,3,1,2.161,77
"1478",23,7,"Warning",1,1,3,0,3.678,78
"1479",23,25,"Warning",1,1,2,0,2.262,79
"1480",23,68,"Warning",1,1,3,1,3.012,80
"1481",23,36,"Warning",1,1,3,0,2.572,81
"1482",23,17,"Warning",1,1,4,1,4.42,82
"1483",23,44,"Warning",1,1,3,1,3.856,83
"1484",23,69,"Warning",1,1,2,1,3.982,84
"1485",23,1,"Warning",1,1,3,1,2.807,85
"1486",23,58,"Warning",1,1,3,0,3.781,86
"1487",23,48,"Warning",1,1,3,0,3.496,87
"1488",23,24,"Warning",1,1,3,1,2.1,88
"1489",23,70,"Warning",1,1,3,0,4.576,89
"1490",23,76,"Warning",1,1,5,1,40.293,90
"1491",23,72,"Warning",1,1,3,0,3.62,91
"1492",23,77,"Warning",1,1,5,0,2.111,92
"1493",23,3,"Warning",1,1,4,1,2.017,93
"1494",23,18,"Warning",1,1,3,0,2.839,94
"1495",23,20,"Warning",1,1,3,0,2.195,95
"1496",23,34,"Warning",1,1,4,0,8.111,96
"1497",23,60,"Warning",1,1,3,1,2.424,97
"1498",23,54,"Warning",1,1,4,1,2.559,98
"1499",23,14,"Warning",1,1,3,0,2.277,99
"1500",23,57,"Warning",1,1,3,1,4.404,100
"1501",23,59,"Warning",1,1,6,1,2.622,101
"1502",23,67,"Warning",1,1,3,0,5.617,102
"1503",23,63,"Warning",1,1,3,0,11.498,103
"1504",23,43,"Warning",1,1,6,1,20.976,104
"1505",23,12,"Warning",1,1,3,1,2.216,105
"1506",23,23,"Warning",1,1,3,0,2.453,106
"1507",23,29,"Warning",1,1,3,0,2.455,107
"1508",23,19,"Warning",1,1,2,0,2.81,108
"1509",23,40,"Warning",1,1,5,0,3.004,109
"1510",23,52,"Warning",1,1,3,1,3.307,110
"1511",23,30,"Warning",1,1,3,1,12.21,111
"1512",23,64,"Warning",1,1,3,1,4.503,112
"1513",23,26,"Warning",1,1,4,1,2.466,113
"1514",23,74,"Warning",1,1,4,0,3.487,114
"1515",23,45,"Warning",1,1,3,1,2.821,115
"1516",23,2,"Warning",1,1,5,1,2.287,116
"1517",23,15,"Warning",1,1,4,0,5.699,117
"1518",23,35,"Warning",1,1,1,0,3.192,118
"1519",23,9,"Warning",1,1,4,1,5.273,119
"1520",23,21,"Warning",1,1,6,0,2.58,120
"1521",25,42,"Warning",1,1,2,1,7.969,41
"1522",25,54,"Warning",1,1,2,0,9.651,42
"1523",25,60,"Warning",1,1,3,0,7.112,43
"1524",25,35,"Warning",1,1,4,1,2.745,44
"1525",25,22,"Warning",1,1,4,1,3.797,45
"1526",25,8,"Warning",1,1,3,0,5.079,46
"1527",25,41,"Warning",1,1,3,0,9.954,47
"1528",25,16,"Warning",1,1,5,1,3.242,48
"1529",25,59,"Warning",1,1,6,1,3.652,49
"1530",25,79,"Warning",1,1,4,0,7.283,50
"1531",25,49,"Warning",1,1,5,1,4.384,51
"1532",25,31,"Warning",1,1,6,1,3.903,52
"1533",25,20,"Warning",1,1,3,0,10.233,53
"1534",25,51,"Warning",1,1,5,0,5.168,54
"1535",25,29,"Warning",1,1,5,1,4.594,55
"1536",25,4,"Warning",1,1,5,1,5.125,56
"1537",25,57,"Warning",1,1,4,0,5.664,57
"1538",25,26,"Warning",1,1,2,0,3.654,58
"1539",25,43,"Warning",1,1,5,1,4.954,59
"1540",25,73,"Warning",1,1,6,1,4.966,60
"1541",25,77,"Warning",1,1,5,1,3.751,61
"1542",25,65,"Warning",1,1,6,1,2.851,62
"1543",25,67,"Warning",1,1,3,0,4.67,63
"1544",25,25,"Warning",1,1,3,0,10.55,64
"1545",25,17,"Warning",1,1,4,0,4.475,65
"1546",25,61,"Warning",1,1,6,1,3.369,66
"1547",25,45,"Warning",1,1,5,0,4.557,67
"1548",25,7,"Warning",1,1,3,0,3.755,68
"1549",25,64,"Warning",1,1,4,0,5.297,69
"1550",25,11,"Warning",1,1,2,0,6.6,70
"1551",25,34,"Warning",1,1,3,0,5.619,71
"1552",25,53,"Warning",1,1,2,0,8.889,72
"1553",25,24,"Warning",1,1,4,0,5.921,73
"1554",25,18,"Warning",1,1,4,0,6.249,74
"1555",25,71,"Warning",1,1,5,1,9.327,75
"1556",25,58,"Warning",1,1,6,1,2.352,76
"1557",25,52,"Warning",1,1,3,1,3.757,77
"1558",25,13,"Warning",1,1,5,1,8.484,78
"1559",25,23,"Warning",1,1,6,1,7.469,79
"1560",25,10,"Warning",1,1,4,1,3.339,80
"1561",25,56,"Warning",1,1,3,0,11.634,81
"1562",25,1,"Warning",1,1,4,1,3.537,82
"1563",25,50,"Warning",1,1,6,1,3.353,83
"1564",25,3,"Warning",1,1,6,1,2.851,84
"1565",25,69,"Warning",1,1,6,0,4.41,85
"1566",25,21,"Warning",1,1,1,1,7.51,86
"1567",25,12,"Warning",1,1,4,0,5.306,87
"1568",25,2,"Warning",1,1,6,1,2.619,88
"1569",25,5,"Warning",1,1,2,1,9.783,89
"1570",25,28,"Warning",1,1,5,0,7.035,90
"1571",25,14,"Warning",1,1,2,0,4.983,91
"1572",25,74,"Warning",1,1,6,1,2.703,92
"1573",25,75,"Warning",1,1,6,1,3.471,93
"1574",25,19,"Warning",1,1,4,0,4.703,94
"1575",25,30,"Warning",1,1,5,1,4.132,95
"1576",25,66,"Warning",1,1,5,1,3.451,96
"1577",25,9,"Warning",1,1,6,1,3.572,97
"1578",25,48,"Warning",1,1,6,1,5.956,98
"1579",25,70,"Warning",1,1,3,0,6.188,99
"1580",25,46,"Warning",1,1,2,0,11.33,100
"1581",25,63,"Warning",1,1,3,1,6.521,101
"1582",25,76,"Warning",1,1,4,0,5.916,102
"1583",25,33,"Warning",1,1,5,1,3.654,103
"1584",25,37,"Warning",1,1,6,1,2.7,104
"1585",25,62,"Warning",1,1,3,0,5.01,105
"1586",25,80,"Warning",1,1,6,1,2.506,106
"1587",25,68,"Warning",1,1,6,1,3.909,107
"1588",25,15,"Warning",1,1,4,0,3.656,108
"1589",25,27,"Warning",1,1,3,0,8.454,109
"1590",25,6,"Warning",1,1,4,0,4.538,110
"1591",25,32,"Warning",1,1,4,0,3.393,111
"1592",25,47,"Warning",1,1,3,0,6.37,112
"1593",25,36,"Warning",1,1,6,1,2.801,113
"1594",25,72,"Warning",1,1,2,0,4.105,114
"1595",25,78,"Warning",1,1,5,0,4.855,115
"1596",25,55,"Warning",1,1,5,0,4.253,116
"1597",25,40,"Warning",1,1,3,0,5.388,117
"1598",25,38,"Warning",1,1,4,0,5.337,118
"1599",25,39,"Warning",1,1,3,1,7.863,119
"1600",25,44,"Warning",1,1,6,1,2.807,120
"1601",27,71,"Control",1,2,6,0,7.106,41
"1602",27,27,"Control",1,2,4,0,5.514,42
"1603",27,59,"Control",1,2,6,1,5.245,43
"1604",27,58,"Control",1,2,4,0,2.505,44
"1605",27,60,"Control",1,2,4,0,2.989,45
"1606",27,4,"Control",1,2,6,1,5.026,46
"1607",27,74,"Control",1,2,6,0,2.152,47
"1608",27,25,"Control",1,2,6,1,1.504,48
"1609",27,79,"Control",1,2,4,0,4.54,49
"1610",27,78,"Control",1,2,3,0,4.161,50
"1611",27,7,"Control",1,2,4,0,4.692,51
"1612",27,53,"Control",1,2,6,0,2.669,52
"1613",27,76,"Control",1,2,6,1,1.482,53
"1614",27,47,"Control",1,2,3,0,3.205,54
"1615",27,77,"Control",1,2,6,1,1.892,55
"1616",27,5,"Control",1,2,5,0,2.741,56
"1617",27,50,"Control",1,2,3,0,3.605,57
"1618",27,73,"Control",1,2,6,1,1.463,58
"1619",27,20,"Control",1,2,6,1,1.775,59
"1620",27,14,"Control",1,2,6,1,2.061,60
"1621",27,11,"Control",1,2,3,1,3.445,61
"1622",27,69,"Control",1,2,4,0,5.939,62
"1623",27,15,"Control",1,2,6,1,1.601,63
"1624",27,23,"Control",1,2,4,0,11.056,64
"1625",27,70,"Control",1,2,6,0,4.191,65
"1626",27,13,"Control",1,2,6,1,1.386,66
"1627",27,45,"Control",1,2,6,1,1.702,67
"1628",27,19,"Control",1,2,6,1,3.055,68
"1629",27,6,"Control",1,2,6,1,1.984,69
"1630",27,43,"Control",1,2,6,1,1.449,70
"1631",27,35,"Control",1,2,3,0,6.41,71
"1632",27,75,"Control",1,2,3,0,4.601,72
"1633",27,49,"Control",1,2,6,0,4.612,73
"1634",27,46,"Control",1,2,1,0,5.181,74
"1635",27,9,"Control",1,2,6,1,1.633,75
"1636",27,12,"Control",1,2,6,1,2.227,76
"1637",27,17,"Control",1,2,3,1,4.894,77
"1638",27,39,"Control",1,2,6,0,5.059,78
"1639",27,51,"Control",1,2,6,1,1.609,79
"1640",27,29,"Control",1,2,6,1,1.873,80
"1641",27,21,"Control",1,2,6,0,22.451,81
"1642",27,26,"Control",1,2,6,1,5.887,82
"1643",27,18,"Control",1,2,6,1,2.641,83
"1644",27,2,"Control",1,2,6,0,2.031,84
"1645",27,42,"Control",1,2,6,0,3.165,85
"1646",27,40,"Control",1,2,6,1,3.278,86
"1647",27,30,"Control",1,2,6,1,1.71,87
"1648",27,33,"Control",1,2,3,0,6.141,88
"1649",27,24,"Control",1,2,6,1,1.545,89
"1650",27,67,"Control",1,2,6,1,2.13,90
"1651",27,66,"Control",1,2,4,0,6.528,91
"1652",27,8,"Control",1,2,4,0,4.526,92
"1653",27,32,"Control",1,2,6,0,2.009,93
"1654",27,80,"Control",1,2,3,1,4.009,94
"1655",27,52,"Control",1,2,6,1,2.14,95
"1656",27,38,"Control",1,2,6,1,2.601,96
"1657",27,65,"Control",1,2,6,0,2.946,97
"1658",27,41,"Control",1,2,6,0,3.565,98
"1659",27,61,"Control",1,2,6,1,1.527,99
"1660",27,57,"Control",1,2,5,0,3.61,100
"1661",27,22,"Control",1,2,4,1,5.036,101
"1662",27,64,"Control",1,2,6,1,1.557,102
"1663",27,62,"Control",1,2,3,0,3.515,103
"1664",27,37,"Control",1,2,6,1,1.563,104
"1665",27,3,"Control",1,2,6,0,4.076,105
"1666",27,63,"Control",1,2,6,1,2.104,106
"1667",27,55,"Control",1,2,6,0,2.163,107
"1668",27,72,"Control",1,2,6,1,1.775,108
"1669",27,31,"Control",1,2,6,0,3.306,109
"1670",27,54,"Control",1,2,6,0,2.539,110
"1671",27,56,"Control",1,2,6,0,3.661,111
"1672",27,16,"Control",1,2,6,1,1.569,112
"1673",27,48,"Control",1,2,6,1,6.159,113
"1674",27,28,"Control",1,2,6,0,2.059,114
"1675",27,44,"Control",1,2,6,1,2.556,115
"1676",27,10,"Control",1,2,6,0,1.911,116
"1677",27,1,"Control",1,2,6,0,4.545,117
"1678",27,36,"Control",1,2,6,1,1.836,118
"1679",27,68,"Control",1,2,3,0,4.28,119
"1680",27,34,"Control",1,2,6,1,1.532,120
"1681",28,28,"Control",1,2,3,1,10.487,41
"1682",28,24,"Control",1,2,5,0,5.054,42
"1683",28,17,"Control",1,2,6,0,7.877,43
"1684",28,23,"Control",1,2,5,1,2.915,44
"1685",28,20,"Control",1,2,4,1,3.639,45
"1686",28,41,"Control",1,2,6,0,5.02,46
"1687",28,76,"Control",1,2,6,0,4.143,47
"1688",28,51,"Control",1,2,5,1,3.378,48
"1689",28,30,"Control",1,2,4,1,2.323,49
"1690",28,67,"Control",1,2,4,0,2.03,50
"1691",28,66,"Control",1,2,6,1,2.718,51
"1692",28,57,"Control",1,2,6,0,2.283,52
"1693",28,13,"Control",1,2,6,0,2.243,53
"1694",28,48,"Control",1,2,4,1,3.235,54
"1695",28,2,"Control",1,2,6,1,2.785,55
"1696",28,38,"Control",1,2,4,0,8.185,56
"1697",28,29,"Control",1,2,4,0,2.042,57
"1698",28,10,"Control",1,2,4,0,2.149,58
"1699",28,77,"Control",1,2,5,0,2.222,59
"1700",28,63,"Control",1,2,4,1,2.212,60
"1701",28,49,"Control",1,2,5,1,4.276,61
"1702",28,79,"Control",1,2,5,1,3.257,62
"1703",28,64,"Control",1,2,4,0,2.212,63
"1704",28,14,"Control",1,2,5,0,2.583,64
"1705",28,4,"Control",1,2,5,1,2.133,65
"1706",28,46,"Control",1,2,5,0,9.853,66
"1707",28,61,"Control",1,2,5,1,2.774,67
"1708",28,54,"Control",1,2,6,0,3.377,68
"1709",28,53,"Control",1,2,5,0,2.841,69
"1710",28,59,"Control",1,2,6,1,1.836,70
"1711",28,39,"Control",1,2,5,0,2.372,71
"1712",28,74,"Control",1,2,5,1,3.099,72
"1713",28,65,"Control",1,2,6,1,2.29,73
"1714",28,78,"Control",1,2,6,0,4.816,74
"1715",28,1,"Control",1,2,5,0,2.163,75
"1716",28,75,"Control",1,2,6,1,41.858,76
"1717",28,47,"Control",1,2,6,0,3.083,77
"1718",28,36,"Control",1,2,5,1,2.153,78
"1719",28,62,"Control",1,2,3,1,1.991,79
"1720",28,55,"Control",1,2,6,1,2.102,80
"1721",28,60,"Control",1,2,6,0,2.403,81
"1722",28,50,"Control",1,2,6,1,3.728,82
"1723",28,6,"Control",1,2,6,0,2.111,83
"1724",28,3,"Control",1,2,6,0,2.127,84
"1725",28,31,"Control",1,2,6,1,2.074,85
"1726",28,68,"Control",1,2,6,1,1.909,86
"1727",28,70,"Control",1,2,5,0,2.575,87
"1728",28,11,"Control",1,2,6,0,1.906,88
"1729",28,80,"Control",1,2,6,0,2.846,89
"1730",28,5,"Control",1,2,6,1,2.322,90
"1731",28,35,"Control",1,2,5,0,2.547,91
"1732",28,9,"Control",1,2,6,0,6.057,92
"1733",28,58,"Control",1,2,5,1,2.242,93
"1734",28,69,"Control",1,2,4,0,4.879,94
"1735",28,15,"Control",1,2,6,1,2.072,95
"1736",28,12,"Control",1,2,6,0,2.716,96
"1737",28,16,"Control",1,2,6,1,1.877,97
"1738",28,40,"Control",1,2,5,1,2.322,98
"1739",28,33,"Control",1,2,6,1,2.395,99
"1740",28,43,"Control",1,2,6,0,2.182,100
"1741",28,72,"Control",1,2,6,1,2.535,101
"1742",28,26,"Control",1,2,5,1,1.952,102
"1743",28,44,"Control",1,2,3,1,2.321,103
"1744",28,73,"Control",1,2,4,0,1.339,104
"1745",28,56,"Control",1,2,4,0,2.23,105
"1746",28,32,"Control",1,2,4,1,1.508,106
"1747",28,27,"Control",1,2,5,1,3.298,107
"1748",28,22,"Control",1,2,5,1,2.161,108
"1749",28,18,"Control",1,2,6,1,2.687,109
"1750",28,8,"Control",1,2,5,0,2.03,110
"1751",28,25,"Control",1,2,5,1,1.871,111
"1752",28,71,"Control",1,2,6,0,2.528,112
"1753",28,45,"Control",1,2,5,1,1.706,113
"1754",28,42,"Control",1,2,5,0,1.62,114
"1755",28,7,"Control",1,2,5,0,1.681,115
"1756",28,52,"Control",1,2,4,1,1.529,116
"1757",28,34,"Control",1,2,3,0,1.438,117
"1758",28,21,"Control",1,2,3,0,5.574,118
"1759",28,19,"Control",1,2,6,0,1.819,119
"1760",28,37,"Control",1,2,6,1,2.31,120
"1761",29,74,"Warning",1,1,4,0,6.897,41
"1762",29,8,"Warning",1,1,1,1,4.194,42
"1763",29,19,"Warning",1,1,3,1,2.896,43
"1764",29,78,"Warning",1,1,4,0,4.381,44
"1765",29,60,"Warning",1,1,3,1,2.364,45
"1766",29,2,"Warning",1,1,4,1,1.833,46
"1767",29,21,"Warning",1,1,5,1,3.217,47
"1768",29,17,"Warning",1,1,3,0,2.593,48
"1769",29,22,"Warning",1,1,5,1,5.046,49
"1770",29,56,"Warning",1,1,6,1,2.159,50
"1771",29,34,"Warning",1,1,3,1,1.893,51
"1772",29,31,"Warning",1,1,3,1,1.95,52
"1773",29,6,"Warning",1,1,2,1,2.479,53
"1774",29,30,"Warning",1,1,2,0,3.302,54
"1775",29,41,"Warning",1,1,4,0,2.354,55
"1776",29,48,"Warning",1,1,3,0,3.336,56
"1777",29,14,"Warning",1,1,3,1,2.905,57
"1778",29,73,"Warning",1,1,3,0,1.663,58
"1779",29,64,"Warning",1,1,4,1,1.372,59
"1780",29,68,"Warning",1,1,4,1,1.971,60
"1781",29,46,"Warning",1,1,4,0,1.104,61
"1782",29,26,"Warning",1,1,3,0,1.849,62
"1783",29,79,"Warning",1,1,3,0,2.065,63
"1784",29,76,"Warning",1,1,5,1,3.147,64
"1785",29,23,"Warning",1,1,2,0,1.797,65
"1786",29,36,"Warning",1,1,3,0,8.407,66
"1787",29,4,"Warning",1,1,3,1,3.415,67
"1788",29,53,"Warning",1,1,3,0,1.672,68
"1789",29,57,"Warning",1,1,3,1,1.434,69
"1790",29,20,"Warning",1,1,3,1,1.131,70
"1791",29,24,"Warning",1,1,3,0,1.154,71
"1792",29,62,"Warning",1,1,4,0,1.082,72
"1793",29,59,"Warning",1,1,4,0,0.946,73
"1794",29,49,"Warning",1,1,4,1,1.12,74
"1795",29,37,"Warning",1,1,4,0,3.391,75
"1796",29,1,"Warning",1,1,3,0,4.84,76
"1797",29,35,"Warning",1,1,4,1,2.147,77
"1798",29,58,"Warning",1,1,2,0,1.695,78
"1799",29,69,"Warning",1,1,1,0,3.333,79
"1800",29,52,"Warning",1,1,5,1,1.823,80
"1801",29,39,"Warning",1,1,4,0,3.544,81
"1802",29,28,"Warning",1,1,5,1,1.774,82
"1803",29,42,"Warning",1,1,3,0,1.604,83
"1804",29,43,"Warning",1,1,3,0,1.153,84
"1805",29,32,"Warning",1,1,2,1,1.171,85
"1806",29,80,"Warning",1,1,1,1,4.204,86
"1807",29,66,"Warning",1,1,3,0,1.96,87
"1808",29,10,"Warning",1,1,3,0,0.921,88
"1809",29,75,"Warning",1,1,2,0,0.702,89
"1810",29,61,"Warning",1,1,3,0,0.464,90
"1811",29,63,"Warning",1,1,3,1,0.84,91
"1812",29,29,"Warning",1,1,3,0,0.89,92
"1813",29,77,"Warning",1,1,2,0,0.668,93
"1814",29,38,"Warning",1,1,3,0,0.582,94
"1815",29,70,"Warning",1,1,2,0,0.715,95
"1816",29,27,"Warning",1,1,2,0,1.03,96
"1817",29,12,"Warning",1,1,4,0,1.628,97
"1818",29,55,"Warning",1,1,4,0,0.718,98
"1819",29,45,"Warning",1,1,3,0,1.211,99
"1820",29,67,"Warning",1,1,1,1,1.683,100
"1821",29,54,"Warning",1,1,3,0,2.042,101
"1822",29,51,"Warning",1,1,2,1,1.687,102
"1823",29,16,"Warning",1,1,2,1,0.955,103
"1824",29,72,"Warning",1,1,2,1,1.043,104
"1825",29,44,"Warning",1,1,2,0,1.025,105
"1826",29,5,"Warning",1,1,3,1,3.021,106
"1827",29,3,"Warning",1,1,5,0,2.963,107
"1828",29,15,"Warning",1,1,3,1,2.675,108
"1829",29,50,"Warning",1,1,3,1,0.674,109
"1830",29,33,"Warning",1,1,2,1,0.568,110
"1831",29,71,"Warning",1,1,5,0,2.214,111
"1832",29,11,"Warning",1,1,3,1,1.092,112
"1833",29,13,"Warning",1,1,3,1,0.743,113
"1834",29,9,"Warning",1,1,3,1,0.887,114
"1835",29,18,"Warning",1,1,3,1,1.108,115
"1836",29,25,"Warning",1,1,5,1,1.659,116
"1837",29,7,"Warning",1,1,4,0,1.381,117
"1838",29,40,"Warning",1,1,4,1,0.779,118
"1839",29,47,"Warning",1,1,2,1,1.909,119
"1840",29,65,"Warning",1,1,4,1,1.505,120
"1841",30,76,"Control",1,2,5,0,3.508,41
"1842",30,28,"Control",1,2,5,0,1.924,42
"1843",30,30,"Control",1,2,3,0,2.741,43
"1844",30,4,"Control",1,2,5,1,2.493,44
"1845",30,59,"Control",1,2,6,1,1.493,45
"1846",30,72,"Control",1,2,4,0,2.707,46
"1847",30,14,"Control",1,2,4,0,2.909,47
"1848",30,27,"Control",1,2,6,1,2.276,48
"1849",30,18,"Control",1,2,4,0,2.641,49
"1850",30,31,"Control",1,2,3,1,2.348,50
"1851",30,34,"Control",1,2,4,0,4.284,51
"1852",30,40,"Control",1,2,5,1,2.297,52
"1853",30,5,"Control",1,2,4,1,1.911,53
"1854",30,66,"Control",1,2,3,0,2.158,54
"1855",30,61,"Control",1,2,3,1,2.216,55
"1856",30,53,"Control",1,2,6,0,2.809,56
"1857",30,73,"Control",1,2,4,1,3.527,57
"1858",30,17,"Control",1,2,4,1,3.042,58
"1859",30,36,"Control",1,2,3,1,2.626,59
"1860",30,54,"Control",1,2,3,0,1.736,60
"1861",30,23,"Control",1,2,4,1,2.672,61
"1862",30,21,"Control",1,2,5,1,2.078,62
"1863",30,67,"Control",1,2,4,0,1.729,63
"1864",30,3,"Control",1,2,5,0,3.986,64
"1865",30,16,"Control",1,2,3,1,2.674,65
"1866",30,68,"Control",1,2,3,0,2.749,66
"1867",30,80,"Control",1,2,3,1,3.267,67
"1868",30,12,"Control",1,2,3,0,1.673,68
"1869",30,60,"Control",1,2,3,1,3.717,69
"1870",30,9,"Control",1,2,5,0,2.291,70
"1871",30,63,"Control",1,2,4,0,1.588,71
"1872",30,65,"Control",1,2,4,1,2.749,72
"1873",30,44,"Control",1,2,3,0,2.222,73
"1874",30,7,"Control",1,2,3,1,2.038,74
"1875",30,52,"Control",1,2,3,1,2.977,75
"1876",30,56,"Control",1,2,5,0,3.023,76
"1877",30,71,"Control",1,2,2,0,3.243,77
"1878",30,8,"Control",1,2,3,0,2.547,78
"1879",30,20,"Control",1,2,4,1,1.991,79
"1880",30,75,"Control",1,2,5,1,2.636,80
"1881",30,79,"Control",1,2,3,1,1.994,81
"1882",30,35,"Control",1,2,1,0,3.108,82
"1883",30,43,"Control",1,2,6,1,2.442,83
"1884",30,48,"Control",1,2,2,0,12.002,84
"1885",30,38,"Control",1,2,2,1,2.126,85
"1886",30,42,"Control",1,2,3,1,2.122,86
"1887",30,58,"Control",1,2,4,1,2.526,87
"1888",30,26,"Control",1,2,5,0,1.659,88
"1889",30,33,"Control",1,2,5,1,1.251,89
"1890",30,50,"Control",1,2,5,1,2.517,90
"1891",30,25,"Control",1,2,4,0,2.142,91
"1892",30,62,"Control",1,2,4,0,1.875,92
"1893",30,78,"Control",1,2,3,0,1.81,93
"1894",30,29,"Control",1,2,3,1,1.969,94
"1895",30,49,"Control",1,2,5,0,2.411,95
"1896",30,46,"Control",1,2,3,0,1.523,96
"1897",30,15,"Control",1,2,3,1,1.501,97
"1898",30,19,"Control",1,2,1,0,1.842,98
"1899",30,64,"Control",1,2,3,1,1.94,99
"1900",30,10,"Control",1,2,3,0,2.127,100
"1901",30,69,"Control",1,2,2,0,2.259,101
"1902",30,11,"Control",1,2,6,0,1.991,102
"1903",30,22,"Control",1,2,4,0,3.238,103
"1904",30,2,"Control",1,2,5,1,1.828,104
"1905",30,55,"Control",1,2,6,0,1.829,105
"1906",30,24,"Control",1,2,3,1,2.961,106
"1907",30,77,"Control",1,2,6,0,2.595,107
"1908",30,51,"Control",1,2,2,1,2.826,108
"1909",30,32,"Control",1,2,6,0,1.892,109
"1910",30,57,"Control",1,2,3,0,1.789,110
"1911",30,47,"Control",1,2,3,0,1.798,111
"1912",30,1,"Control",1,2,3,1,1.894,112
"1913",30,13,"Control",1,2,1,1,2.19,113
"1914",30,45,"Control",1,2,3,1,1.794,114
"1915",30,39,"Control",1,2,2,0,4.477,115
"1916",30,41,"Control",1,2,3,0,2.754,116
"1917",30,70,"Control",1,2,3,1,1.532,117
"1918",30,74,"Control",1,2,6,1,2.359,118
"1919",30,37,"Control",1,2,4,1,3.05,119
"1920",30,6,"Control",1,2,4,1,1.526,120
"1921",31,55,"Warning",1,1,4,0,7.161,41
"1922",31,4,"Warning",1,1,3,1,9.49,42
"1923",31,29,"Warning",1,1,6,1,67.097,43
"1924",31,58,"Warning",1,1,3,1,8.14,44
"1925",31,19,"Warning",1,1,1,1,32.773,45
"1926",31,41,"Warning",1,1,4,1,7.878,46
"1927",31,42,"Warning",1,1,3,0,5.215,47
"1928",31,7,"Warning",1,1,4,0,3.374,48
"1929",31,69,"Warning",1,1,2,0,13.003,49
"1930",31,67,"Warning",1,1,4,1,9.182,50
"1931",31,50,"Warning",1,1,3,0,8.302,51
"1932",31,47,"Warning",1,1,4,0,5.236,52
"1933",31,35,"Warning",1,1,1,0,34.309,53
"1934",31,31,"Warning",1,1,4,0,4.401,54
"1935",31,70,"Warning",1,1,3,1,15.211,55
"1936",31,13,"Warning",1,1,2,0,7.355,56
"1937",31,59,"Warning",1,1,5,0,10.843,57
"1938",31,44,"Warning",1,1,4,1,5.239,58
"1939",31,63,"Warning",1,1,5,1,7.413,59
"1940",31,5,"Warning",1,1,4,0,5.614,60
"1941",31,37,"Warning",1,1,5,1,24.637,61
"1942",31,54,"Warning",1,1,2,1,3.587,62
"1943",31,77,"Warning",1,1,4,0,4.248,63
"1944",31,75,"Warning",1,1,4,0,34.811,64
"1945",31,20,"Warning",1,1,2,1,5.182,65
"1946",31,15,"Warning",1,1,6,1,5.387,66
"1947",31,8,"Warning",1,1,4,1,7.617,67
"1948",31,16,"Warning",1,1,3,0,7.065,68
"1949",31,38,"Warning",1,1,3,0,4.72,69
"1950",31,14,"Warning",1,1,3,0,3.615,70
"1951",31,25,"Warning",1,1,3,1,5.998,71
"1952",31,73,"Warning",1,1,4,1,3.045,72
"1953",31,45,"Warning",1,1,4,1,8.615,73
"1954",31,10,"Warning",1,1,2,1,26.233,74
"1955",31,62,"Warning",1,1,3,1,9.041,75
"1956",31,33,"Warning",1,1,5,0,2.295,76
"1957",31,53,"Warning",1,1,6,0,34.397,77
"1958",31,1,"Warning",1,1,4,0,5.055,78
"1959",31,52,"Warning",1,1,2,0,10.356,79
"1960",31,2,"Warning",1,1,4,1,5.518,80
"1961",31,24,"Warning",1,1,3,1,4.4,81
"1962",31,26,"Warning",1,1,3,0,3.72,82
"1963",31,23,"Warning",1,1,4,0,14.116,83
"1964",31,17,"Warning",1,1,3,0,4.022,84
"1965",31,32,"Warning",1,1,6,1,32.707,85
"1966",31,49,"Warning",1,1,3,0,4.525,86
"1967",31,72,"Warning",1,1,3,1,4.749,87
"1968",31,40,"Warning",1,1,4,0,8.5,88
"1969",31,21,"Warning",1,1,2,1,32.772,89
"1970",31,28,"Warning",1,1,4,0,7.008,90
"1971",31,43,"Warning",1,1,5,1,17.741,91
"1972",31,12,"Warning",1,1,4,0,5.007,92
"1973",31,39,"Warning",1,1,4,1,2.457,93
"1974",31,61,"Warning",1,1,3,1,6.475,94
"1975",31,18,"Warning",1,1,4,0,4.108,95
"1976",31,46,"Warning",1,1,4,1,4.971,96
"1977",31,22,"Warning",1,1,4,1,3.946,97
"1978",31,78,"Warning",1,1,3,0,3.112,98
"1979",31,30,"Warning",1,1,4,0,7.044,99
"1980",31,51,"Warning",1,1,4,0,2.258,100
"1981",31,11,"Warning",1,1,4,1,3.472,101
"1982",31,27,"Warning",1,1,4,0,4.219,102
"1983",31,80,"Warning",1,1,3,0,3.143,103
"1984",31,71,"Warning",1,1,5,0,3.214,104
"1985",31,74,"Warning",1,1,4,0,4.386,105
"1986",31,66,"Warning",1,1,1,1,12.879,106
"1987",31,36,"Warning",1,1,4,0,5.071,107
"1988",31,65,"Warning",1,1,4,1,3.301,108
"1989",31,6,"Warning",1,1,4,0,5.19,109
"1990",31,34,"Warning",1,1,4,0,3.382,110
"1991",31,48,"Warning",1,1,4,1,4.321,111
"1992",31,64,"Warning",1,1,2,1,7.32,112
"1993",31,56,"Warning",1,1,4,1,5.044,113
"1994",31,79,"Warning",1,1,4,0,4.636,114
"1995",31,68,"Warning",1,1,4,1,2.898,115
"1996",31,9,"Warning",1,1,5,1,4.236,116
"1997",31,76,"Warning",1,1,4,0,8.121,117
"1998",31,60,"Warning",1,1,3,1,54.539,118
"1999",31,57,"Warning",1,1,4,1,5.1,119
"2000",31,3,"Warning",1,1,3,1,5.432,120
"2001",32,4,"Warning",1,1,3,0,6.77,41
"2002",32,42,"Warning",1,1,6,1,3.59,42
"2003",32,15,"Warning",1,1,5,0,3.075,43
"2004",32,46,"Warning",1,1,1,1,8.236,44
"2005",32,66,"Warning",1,1,5,0,3.643,45
"2006",32,30,"Warning",1,1,6,1,2.627,46
"2007",32,10,"Warning",1,1,1,1,2.254,47
"2008",32,16,"Warning",1,1,1,1,4.09,48
"2009",32,80,"Warning",1,1,6,1,2.854,49
"2010",32,40,"Warning",1,1,4,1,2.857,50
"2011",32,1,"Warning",1,1,5,0,2.806,51
"2012",32,2,"Warning",1,1,6,1,1.569,52
"2013",32,50,"Warning",1,1,2,0,4.683,53
"2014",32,36,"Warning",1,1,5,1,3.684,54
"2015",32,8,"Warning",1,1,1,1,2.727,55
"2016",32,11,"Warning",1,1,6,1,2.91,56
"2017",32,22,"Warning",1,1,4,0,2.254,57
"2018",32,26,"Warning",1,1,4,1,2.13,58
"2019",32,21,"Warning",1,1,6,1,2.879,59
"2020",32,63,"Warning",1,1,3,0,3.018,60
"2021",32,27,"Warning",1,1,1,0,3.058,61
"2022",32,58,"Warning",1,1,6,1,2.396,62
"2023",32,64,"Warning",1,1,6,0,3.424,63
"2024",32,38,"Warning",1,1,3,0,2.75,64
"2025",32,45,"Warning",1,1,1,0,3.991,65
"2026",32,65,"Warning",1,1,6,1,2.576,66
"2027",32,69,"Warning",1,1,6,1,1.669,67
"2028",32,37,"Warning",1,1,1,0,10.123,68
"2029",32,67,"Warning",1,1,1,0,2.715,69
"2030",32,59,"Warning",1,1,6,1,2.078,70
"2031",32,12,"Warning",1,1,4,0,3.777,71
"2032",32,31,"Warning",1,1,5,0,3.197,72
"2033",32,51,"Warning",1,1,4,0,2.868,73
"2034",32,62,"Warning",1,1,3,0,2.547,74
"2035",32,3,"Warning",1,1,6,1,4.507,75
"2036",32,78,"Warning",1,1,6,1,1.858,76
"2037",32,32,"Warning",1,1,2,0,2.554,77
"2038",32,55,"Warning",1,1,5,0,3.162,78
"2039",32,76,"Warning",1,1,1,1,3.651,79
"2040",32,53,"Warning",1,1,6,0,2.991,80
"2041",32,14,"Warning",1,1,3,1,2.194,81
"2042",32,68,"Warning",1,1,1,0,3.955,82
"2043",32,72,"Warning",1,1,3,0,4.059,83
"2044",32,77,"Warning",1,1,3,0,2.193,84
"2045",32,7,"Warning",1,1,5,0,2.096,85
"2046",32,17,"Warning",1,1,6,1,2.257,86
"2047",32,52,"Warning",1,1,6,0,2.519,87
"2048",32,35,"Warning",1,1,6,1,1.587,88
"2049",32,74,"Warning",1,1,6,0,1.592,89
"2050",32,24,"Warning",1,1,4,1,2.429,90
"2051",32,28,"Warning",1,1,6,1,2,91
"2052",32,49,"Warning",1,1,4,0,3.095,92
"2053",32,54,"Warning",1,1,6,1,2.091,93
"2054",32,75,"Warning",1,1,1,0,5.108,94
"2055",32,79,"Warning",1,1,4,1,2.58,95
"2056",32,61,"Warning",1,1,5,0,2.894,96
"2057",32,9,"Warning",1,1,6,0,2.886,97
"2058",32,71,"Warning",1,1,4,0,2.854,98
"2059",32,6,"Warning",1,1,6,1,2.08,99
"2060",32,73,"Warning",1,1,6,1,2.376,100
"2061",32,48,"Warning",1,1,4,0,3.02,101
"2062",32,57,"Warning",1,1,5,1,2.073,102
"2063",32,41,"Warning",1,1,6,1,2.302,103
"2064",32,70,"Warning",1,1,6,1,2.056,104
"2065",32,5,"Warning",1,1,6,1,1.451,105
"2066",32,13,"Warning",1,1,3,0,3.59,106
"2067",32,44,"Warning",1,1,6,1,2.57,107
"2068",32,34,"Warning",1,1,6,1,2.367,108
"2069",32,25,"Warning",1,1,6,0,2.236,109
"2070",32,60,"Warning",1,1,4,0,2.143,110
"2071",32,19,"Warning",1,1,5,1,1.731,111
"2072",32,23,"Warning",1,1,6,1,2.504,112
"2073",32,39,"Warning",1,1,6,1,4.515,113
"2074",32,20,"Warning",1,1,6,1,1.578,114
"2075",32,56,"Warning",1,1,6,0,1.704,115
"2076",32,29,"Warning",1,1,4,0,2.285,116
"2077",32,47,"Warning",1,1,5,0,4.229,117
"2078",32,18,"Warning",1,1,5,0,4.105,118
"2079",32,33,"Warning",1,1,4,0,2.32,119
"2080",32,43,"Warning",1,1,6,1,1.999,120
"2081",33,72,"Control",1,2,2,0,8.855,41
"2082",33,79,"Control",1,2,4,1,9.386,42
"2083",33,53,"Control",1,2,3,0,4.88,43
"2084",33,29,"Control",1,2,4,1,3.559,44
"2085",33,10,"Control",1,2,3,0,5.436,45
"2086",33,30,"Control",1,2,4,0,5.344,46
"2087",33,32,"Control",1,2,4,1,3.303,47
"2088",33,80,"Control",1,2,2,0,4.681,48
"2089",33,67,"Control",1,2,2,0,5.28,49
"2090",33,77,"Control",1,2,4,1,3.109,50
"2091",33,25,"Control",1,2,3,0,3.364,51
"2092",33,5,"Control",1,2,5,1,4.264,52
"2093",33,75,"Control",1,2,2,0,7.856,53
"2094",33,7,"Control",1,2,4,1,3.087,54
"2095",33,50,"Control",1,2,4,1,4.256,55
"2096",33,48,"Control",1,2,3,0,6.513,56
"2097",33,54,"Control",1,2,3,0,3.209,57
"2098",33,71,"Control",1,2,4,0,5.678,58
"2099",33,34,"Control",1,2,5,1,3.046,59
"2100",33,40,"Control",1,2,4,0,7.397,60
"2101",33,17,"Control",1,2,4,0,7.005,61
"2102",33,51,"Control",1,2,4,1,3.421,62
"2103",33,70,"Control",1,2,5,1,2.892,63
"2104",33,57,"Control",1,2,4,0,3.724,64
"2105",33,13,"Control",1,2,3,1,3.03,65
"2106",33,3,"Control",1,2,2,0,7.777,66
"2107",33,42,"Control",1,2,4,1,2.983,67
"2108",33,24,"Control",1,2,4,1,3.042,68
"2109",33,56,"Control",1,2,4,1,2.84,69
"2110",33,8,"Control",1,2,4,0,3.216,70
"2111",33,28,"Control",1,2,3,1,7.915,71
"2112",33,27,"Control",1,2,4,1,2.521,72
"2113",33,65,"Control",1,2,3,0,3.547,73
"2114",33,1,"Control",1,2,4,1,4.479,74
"2115",33,69,"Control",1,2,4,1,1.207,75
"2116",33,15,"Control",1,2,4,1,1.529,76
"2117",33,35,"Control",1,2,3,0,4.081,77
"2118",33,14,"Control",1,2,3,1,1.649,78
"2119",33,55,"Control",1,2,3,0,1.595,79
"2120",33,26,"Control",1,2,3,0,2.373,80
"2121",33,12,"Control",1,2,3,0,5.184,81
"2122",33,47,"Control",1,2,2,0,5.429,82
"2123",33,66,"Control",1,2,3,1,5.347,83
"2124",33,39,"Control",1,2,4,1,2.973,84
"2125",33,52,"Control",1,2,1,0,6.006,85
"2126",33,46,"Control",1,2,2,0,5.786,86
"2127",33,6,"Control",1,2,4,1,2.467,87
"2128",33,43,"Control",1,2,4,1,1.774,88
"2129",33,61,"Control",1,2,3,1,2.108,89
"2130",33,45,"Control",1,2,3,0,2.548,90
"2131",33,44,"Control",1,2,3,1,2.565,91
"2132",33,16,"Control",1,2,3,1,1.667,92
"2133",33,62,"Control",1,2,5,0,3.4,93
"2134",33,76,"Control",1,2,2,0,5.492,94
"2135",33,18,"Control",1,2,3,0,3.849,95
"2136",33,64,"Control",1,2,3,0,3.829,96
"2137",33,21,"Control",1,2,5,1,4.139,97
"2138",33,2,"Control",1,2,5,1,3.427,98
"2139",33,58,"Control",1,2,5,0,4.101,99
"2140",33,60,"Control",1,2,2,1,3.923,100
"2141",33,63,"Control",1,2,1,0,8.365,101
"2142",33,74,"Control",1,2,3,1,3.367,102
"2143",33,73,"Control",1,2,3,1,4.53,103
"2144",33,9,"Control",1,2,5,0,9.099,104
"2145",33,41,"Control",1,2,4,1,3.934,105
"2146",33,19,"Control",1,2,2,0,3.961,106
"2147",33,4,"Control",1,2,3,1,3.917,107
"2148",33,38,"Control",1,2,3,0,2.713,108
"2149",33,37,"Control",1,2,4,0,5.633,109
"2150",33,20,"Control",1,2,3,1,2.585,110
"2151",33,36,"Control",1,2,3,0,3.058,111
"2152",33,33,"Control",1,2,4,0,4.98,112
"2153",33,78,"Control",1,2,4,1,4.747,113
"2154",33,22,"Control",1,2,5,1,2.837,114
"2155",33,31,"Control",1,2,5,1,3.829,115
"2156",33,11,"Control",1,2,4,1,2.675,116
"2157",33,59,"Control",1,2,6,0,4.644,117
"2158",33,68,"Control",1,2,3,0,6.14,118
"2159",33,23,"Control",1,2,4,1,2.652,119
"2160",33,49,"Control",1,2,3,0,4.616,120
"2161",34,27,"Control",1,2,1,0,4.727,41
"2162",34,71,"Control",1,2,6,0,1.842,42
"2163",34,60,"Control",1,2,3,0,2.554,43
"2164",34,80,"Control",1,2,2,1,3.404,44
"2165",34,4,"Control",1,2,4,1,2.172,45
"2166",34,75,"Control",1,2,6,0,3.792,46
"2167",34,44,"Control",1,2,3,1,2.426,47
"2168",34,37,"Control",1,2,6,0,2.283,48
"2169",34,41,"Control",1,2,4,0,2.939,49
"2170",34,35,"Control",1,2,5,0,1.974,50
"2171",34,5,"Control",1,2,6,1,3.206,51
"2172",34,1,"Control",1,2,6,1,2.396,52
"2173",34,34,"Control",1,2,2,1,3.047,53
"2174",34,16,"Control",1,2,4,0,1.601,54
"2175",34,50,"Control",1,2,6,1,1.153,55
"2176",34,61,"Control",1,2,6,0,1.813,56
"2177",34,8,"Control",1,2,3,0,5.691,57
"2178",34,69,"Control",1,2,3,1,2.492,58
"2179",34,53,"Control",1,2,6,0,3.171,59
"2180",34,21,"Control",1,2,6,0,3.563,60
"2181",34,33,"Control",1,2,4,0,2.629,61
"2182",34,14,"Control",1,2,3,0,2.435,62
"2183",34,43,"Control",1,2,4,0,3.244,63
"2184",34,36,"Control",1,2,6,0,2.425,64
"2185",34,18,"Control",1,2,5,1,2.839,65
"2186",34,76,"Control",1,2,1,0,2.145,66
"2187",34,58,"Control",1,2,6,1,2.399,67
"2188",34,29,"Control",1,2,6,1,1.933,68
"2189",34,78,"Control",1,2,6,1,1.893,69
"2190",34,39,"Control",1,2,6,1,3.445,70
"2191",34,63,"Control",1,2,5,0,2.713,71
"2192",34,52,"Control",1,2,5,1,2.569,72
"2193",34,54,"Control",1,2,6,0,1.707,73
"2194",34,20,"Control",1,2,1,1,2.444,74
"2195",34,25,"Control",1,2,1,1,2.825,75
"2196",34,77,"Control",1,2,4,1,2.677,76
"2197",34,15,"Control",1,2,6,0,2.449,77
"2198",34,49,"Control",1,2,6,1,1.849,78
"2199",34,22,"Control",1,2,6,1,1.718,79
"2200",34,51,"Control",1,2,1,1,2.684,80
"2201",34,73,"Control",1,2,5,1,1.51,81
"2202",34,13,"Control",1,2,4,1,2.391,82
"2203",34,55,"Control",1,2,1,0,5.02,83
"2204",34,26,"Control",1,2,1,0,2.241,84
"2205",34,3,"Control",1,2,6,1,3.086,85
"2206",34,65,"Control",1,2,3,0,2.853,86
"2207",34,64,"Control",1,2,1,0,3.909,87
"2208",34,56,"Control",1,2,4,1,2.869,88
"2209",34,10,"Control",1,2,4,0,2.155,89
"2210",34,24,"Control",1,2,5,1,3.325,90
"2211",34,67,"Control",1,2,2,1,2.495,91
"2212",34,6,"Control",1,2,5,1,1.907,92
"2213",34,70,"Control",1,2,1,0,2.561,93
"2214",34,47,"Control",1,2,6,0,3.357,94
"2215",34,23,"Control",1,2,6,1,2.003,95
"2216",34,31,"Control",1,2,3,0,3.41,96
"2217",34,45,"Control",1,2,1,1,1.946,97
"2218",34,62,"Control",1,2,4,0,1.902,98
"2219",34,46,"Control",1,2,1,0,6.4,99
"2220",34,32,"Control",1,2,3,0,1.787,100
"2221",34,38,"Control",1,2,5,1,1.715,101
"2222",34,9,"Control",1,2,4,0,3.808,102
"2223",34,74,"Control",1,2,6,1,1.361,103
"2224",34,68,"Control",1,2,1,1,2.292,104
"2225",34,57,"Control",1,2,4,1,1.729,105
"2226",34,28,"Control",1,2,1,1,2.749,106
"2227",34,72,"Control",1,2,1,0,3.019,107
"2228",34,59,"Control",1,2,1,1,3.464,108
"2229",34,12,"Control",1,2,3,0,3.034,109
"2230",34,66,"Control",1,2,6,0,2.356,110
"2231",34,40,"Control",1,2,6,1,1.479,111
"2232",34,2,"Control",1,2,1,0,2.141,112
"2233",34,17,"Control",1,2,4,0,3.838,113
"2234",34,48,"Control",1,2,5,0,2.295,114
"2235",34,42,"Control",1,2,6,0,2.109,115
"2236",34,19,"Control",1,2,2,0,3.13,116
"2237",34,11,"Control",1,2,1,1,2.596,117
"2238",34,30,"Control",1,2,6,1,2.799,118
"2239",34,79,"Control",1,2,5,1,2.209,119
"2240",34,7,"Control",1,2,6,1,1.371,120
"2241",35,30,"Warning",1,1,4,1,10.808,41
"2242",35,5,"Warning",1,1,3,1,4.986,42
"2243",35,71,"Warning",1,1,2,1,5.946,43
"2244",35,3,"Warning",1,1,3,1,4.551,44
"2245",35,4,"Warning",1,1,2,0,5.812,45
"2246",35,29,"Warning",1,1,4,1,9.174,46
"2247",35,63,"Warning",1,1,1,0,4.056,47
"2248",35,79,"Warning",1,1,2,0,10.319,48
"2249",35,43,"Warning",1,1,3,1,2.953,49
"2250",35,21,"Warning",1,1,3,1,4.348,50
"2251",35,76,"Warning",1,1,2,0,3.338,51
"2252",35,11,"Warning",1,1,1,0,5.8,52
"2253",35,80,"Warning",1,1,3,0,4.051,53
"2254",35,54,"Warning",1,1,2,1,1.965,54
"2255",35,49,"Warning",1,1,4,1,3.354,55
"2256",35,59,"Warning",1,1,6,1,5.123,56
"2257",35,25,"Warning",1,1,6,0,4.617,57
"2258",35,35,"Warning",1,1,1,0,3.241,58
"2259",35,36,"Warning",1,1,3,1,6.42,59
"2260",35,46,"Warning",1,1,1,1,7.375,60
"2261",35,65,"Warning",1,1,1,1,3.706,61
"2262",35,60,"Warning",1,1,3,0,3.437,62
"2263",35,20,"Warning",1,1,2,1,3.342,63
"2264",35,27,"Warning",1,1,1,0,4.672,64
"2265",35,69,"Warning",1,1,6,0,2.358,65
"2266",35,6,"Warning",1,1,4,1,2.86,66
"2267",35,72,"Warning",1,1,2,1,3.37,67
"2268",35,75,"Warning",1,1,1,1,1.983,68
"2269",35,2,"Warning",1,1,3,1,5.304,69
"2270",35,31,"Warning",1,1,3,0,3.755,70
"2271",35,52,"Warning",1,1,1,1,4.788,71
"2272",35,14,"Warning",1,1,3,0,3.969,72
"2273",35,51,"Warning",1,1,5,0,3.776,73
"2274",35,18,"Warning",1,1,3,0,5.394,74
"2275",35,70,"Warning",1,1,1,0,4.783,75
"2276",35,61,"Warning",1,1,3,0,4.772,76
"2277",35,47,"Warning",1,1,4,1,8.655,77
"2278",35,17,"Warning",1,1,3,0,4.486,78
"2279",35,12,"Warning",1,1,4,0,3.312,79
"2280",35,53,"Warning",1,1,1,0,5.558,80
"2281",35,78,"Warning",1,1,3,0,3.309,81
"2282",35,16,"Warning",1,1,2,1,5.55,82
"2283",35,24,"Warning",1,1,3,1,3.19,83
"2284",35,48,"Warning",1,1,3,1,4.66,84
"2285",35,28,"Warning",1,1,6,0,3.029,85
"2286",35,34,"Warning",1,1,3,1,3.331,86
"2287",35,26,"Warning",1,1,3,1,1.876,87
"2288",35,55,"Warning",1,1,4,1,2.475,88
"2289",35,67,"Warning",1,1,2,0,6.469,89
"2290",35,45,"Warning",1,1,3,1,2.46,90
"2291",35,1,"Warning",1,1,3,0,3.683,91
"2292",35,23,"Warning",1,1,2,1,6.595,92
"2293",35,41,"Warning",1,1,3,0,3.26,93
"2294",35,13,"Warning",1,1,1,1,2.248,94
"2295",35,77,"Warning",1,1,4,1,5.851,95
"2296",35,44,"Warning",1,1,3,1,2.182,96
"2297",35,73,"Warning",1,1,4,0,5.541,97
"2298",35,42,"Warning",1,1,3,0,4.394,98
"2299",35,62,"Warning",1,1,3,1,3.445,99
"2300",35,10,"Warning",1,1,2,0,3.387,100
"2301",35,56,"Warning",1,1,5,0,5.557,101
"2302",35,33,"Warning",1,1,5,0,2.328,102
"2303",35,38,"Warning",1,1,2,0,5.711,103
"2304",35,68,"Warning",1,1,3,1,3.352,104
"2305",35,37,"Warning",1,1,3,0,17.085,105
"2306",35,15,"Warning",1,1,3,0,3.528,106
"2307",35,57,"Warning",1,1,4,0,3.798,107
"2308",35,9,"Warning",1,1,3,1,4.451,108
"2309",35,64,"Warning",1,1,4,0,3.58,109
"2310",35,50,"Warning",1,1,3,1,4.686,110
"2311",35,22,"Warning",1,1,5,1,8.754,111
"2312",35,8,"Warning",1,1,3,1,3.172,112
"2313",35,39,"Warning",1,1,3,0,7.184,113
"2314",35,74,"Warning",1,1,6,1,9.067,114
"2315",35,66,"Warning",1,1,4,1,9.741,115
"2316",35,40,"Warning",1,1,2,0,3.117,116
"2317",35,7,"Warning",1,1,3,1,2.498,117
"2318",35,32,"Warning",1,1,2,0,3.832,118
"2319",35,58,"Warning",1,1,3,0,2.277,119
"2320",35,19,"Warning",1,1,3,0,3.475,120
"2321",37,65,"Warning",1,1,3,1,12.831,41
"2322",37,23,"Warning",1,1,5,1,11.946,42
"2323",37,34,"Warning",1,1,4,0,8.736,43
"2324",37,22,"Warning",1,1,5,0,56.298,44
"2325",37,57,"Warning",1,1,4,0,23.828,45
"2326",37,76,"Warning",1,1,4,0,22.314,46
"2327",37,45,"Warning",1,1,4,1,10.465,47
"2328",37,73,"Warning",1,1,3,0,11.991,48
"2329",37,67,"Warning",1,1,3,0,9.624,49
"2330",37,1,"Warning",1,1,2,1,43.837,50
"2331",37,12,"Warning",1,1,2,1,24.544,51
"2332",37,37,"Warning",1,1,4,0,10.553,52
"2333",37,17,"Warning",1,1,2,1,11.854,53
"2334",37,6,"Warning",1,1,3,0,15.008,54
"2335",37,2,"Warning",1,1,5,1,3.728,55
"2336",37,24,"Warning",1,1,3,1,11.182,56
"2337",37,26,"Warning",1,1,3,0,5.854,57
"2338",37,80,"Warning",1,1,3,1,6.543,58
"2339",37,44,"Warning",1,1,4,0,7.359,59
"2340",37,9,"Warning",1,1,3,0,30.438,60
"2341",37,29,"Warning",1,1,3,1,20.866,61
"2342",37,32,"Warning",1,1,6,0,5.642,62
"2343",37,47,"Warning",1,1,4,1,10.422,63
"2344",37,43,"Warning",1,1,5,0,12.894,64
"2345",37,18,"Warning",1,1,3,0,8.367,65
"2346",37,54,"Warning",1,1,5,1,8.809,66
"2347",37,72,"Warning",1,1,4,1,8.505,67
"2348",37,15,"Warning",1,1,3,1,6.599,68
"2349",37,52,"Warning",1,1,3,1,7.286,69
"2350",37,21,"Warning",1,1,3,0,16.72,70
"2351",37,19,"Warning",1,1,2,0,7.143,71
"2352",37,16,"Warning",1,1,3,0,7.263,72
"2353",37,60,"Warning",1,1,4,1,4.512,73
"2354",37,70,"Warning",1,1,3,0,7.424,74
"2355",37,78,"Warning",1,1,3,1,11.767,75
"2356",37,64,"Warning",1,1,3,0,7.272,76
"2357",37,8,"Warning",1,1,3,1,5.366,77
"2358",37,53,"Warning",1,1,5,0,12.207,78
"2359",37,69,"Warning",1,1,3,1,6.177,79
"2360",37,62,"Warning",1,1,4,1,8.08,80
"2361",37,55,"Warning",1,1,5,1,8.599,81
"2362",37,38,"Warning",1,1,4,0,10.558,82
"2363",37,28,"Warning",1,1,4,1,10.502,83
"2364",37,59,"Warning",1,1,4,1,5.521,84
"2365",37,20,"Warning",1,1,3,0,7.239,85
"2366",37,13,"Warning",1,1,2,1,16.575,86
"2367",37,66,"Warning",1,1,2,0,18.047,87
"2368",37,49,"Warning",1,1,2,1,9.841,88
"2369",37,25,"Warning",1,1,3,0,6.437,89
"2370",37,46,"Warning",1,1,3,0,16.76,90
"2371",37,39,"Warning",1,1,3,1,12.952,91
"2372",37,75,"Warning",1,1,6,1,39.444,92
"2373",37,4,"Warning",1,1,5,0,24.928,93
"2374",37,3,"Warning",1,1,4,1,5.2,94
"2375",37,11,"Warning",1,1,6,0,6.752,95
"2376",37,10,"Warning",1,1,4,1,3.478,96
"2377",37,79,"Warning",1,1,4,0,3.553,97
"2378",37,41,"Warning",1,1,5,0,11.399,98
"2379",37,77,"Warning",1,1,5,1,6.296,99
"2380",37,7,"Warning",1,1,4,1,2.575,100
"2381",37,27,"Warning",1,1,5,0,3.062,101
"2382",37,61,"Warning",1,1,4,0,2.974,102
"2383",37,71,"Warning",1,1,4,1,4.352,103
"2384",37,63,"Warning",1,1,3,0,3.255,104
"2385",37,36,"Warning",1,1,3,1,3.646,105
"2386",37,40,"Warning",1,1,6,1,3.542,106
"2387",37,48,"Warning",1,1,3,1,4.319,107
"2388",37,5,"Warning",1,1,4,0,3.215,108
"2389",37,42,"Warning",1,1,3,1,2.424,109
"2390",37,14,"Warning",1,1,4,1,2.047,110
"2391",37,33,"Warning",1,1,4,1,0.656,111
"2392",37,56,"Warning",1,1,3,0,0.495,112
"2393",37,68,"Warning",1,1,4,1,0.961,113
"2394",37,74,"Warning",1,1,3,0,1.096,114
"2395",37,51,"Warning",1,1,4,0,1.438,115
"2396",37,50,"Warning",1,1,4,0,0.697,116
"2397",37,58,"Warning",1,1,4,0,0.495,117
"2398",37,31,"Warning",1,1,3,0,0.518,118
"2399",37,35,"Warning",1,1,1,0,3.351,119
"2400",37,30,"Warning",1,1,3,1,2.984,120
"2401",39,26,"Control",1,2,3,1,3.886,41
"2402",39,69,"Control",1,2,3,0,3.352,42
"2403",39,39,"Control",1,2,5,1,3.065,43
"2404",39,45,"Control",1,2,5,0,3.147,44
"2405",39,53,"Control",1,2,4,0,3.742,45
"2406",39,38,"Control",1,2,6,1,2.267,46
"2407",39,72,"Control",1,2,4,1,2.579,47
"2408",39,19,"Control",1,2,2,1,4.365,48
"2409",39,78,"Control",1,2,1,0,2.843,49
"2410",39,71,"Control",1,2,4,1,3.039,50
"2411",39,61,"Control",1,2,4,0,2.336,51
"2412",39,54,"Control",1,2,4,1,15.881,52
"2413",39,31,"Control",1,2,5,0,3.884,53
"2414",39,62,"Control",1,2,2,0,3.972,54
"2415",39,4,"Control",1,2,4,0,3.752,55
"2416",39,44,"Control",1,2,5,0,3.256,56
"2417",39,30,"Control",1,2,6,0,2.368,57
"2418",39,76,"Control",1,2,5,1,2.31,58
"2419",39,28,"Control",1,2,1,0,4.039,59
"2420",39,43,"Control",1,2,5,1,2.61,60
"2421",39,9,"Control",1,2,6,1,2.329,61
"2422",39,73,"Control",1,2,6,0,2.837,62
"2423",39,63,"Control",1,2,5,0,3.588,63
"2424",39,36,"Control",1,2,5,0,6.417,64
"2425",39,37,"Control",1,2,5,1,3.506,65
"2426",39,13,"Control",1,2,2,1,1.666,66
"2427",39,74,"Control",1,2,6,1,15.443,67
"2428",39,24,"Control",1,2,5,0,2.92,68
"2429",39,8,"Control",1,2,4,1,2.925,69
"2430",39,23,"Control",1,2,6,1,2.005,70
"2431",39,65,"Control",1,2,5,0,2.561,71
"2432",39,35,"Control",1,2,5,1,2.317,72
"2433",39,22,"Control",1,2,1,0,4.944,73
"2434",39,6,"Control",1,2,3,0,3.731,74
"2435",39,49,"Control",1,2,6,1,1.948,75
"2436",39,21,"Control",1,2,5,0,3.456,76
"2437",39,48,"Control",1,2,5,1,2.448,77
"2438",39,59,"Control",1,2,1,0,2.883,78
"2439",39,29,"Control",1,2,6,1,2.06,79
"2440",39,1,"Control",1,2,6,1,2.148,80
"2441",39,58,"Control",1,2,3,1,2.352,81
"2442",39,56,"Control",1,2,6,1,2.15,82
"2443",39,12,"Control",1,2,5,0,7.303,83
"2444",39,15,"Control",1,2,5,0,5.307,84
"2445",39,67,"Control",1,2,3,1,3.019,85
"2446",39,17,"Control",1,2,4,0,3.412,86
"2447",39,10,"Control",1,2,4,0,1.631,87
"2448",39,51,"Control",1,2,4,1,2.213,88
"2449",39,34,"Control",1,2,4,1,1.435,89
"2450",39,77,"Control",1,2,4,0,2.256,90
"2451",39,42,"Control",1,2,5,0,2.546,91
"2452",39,2,"Control",1,2,5,1,1.281,92
"2453",39,75,"Control",1,2,6,1,2.147,93
"2454",39,33,"Control",1,2,6,1,2.621,94
"2455",39,40,"Control",1,2,4,1,3.002,95
"2456",39,55,"Control",1,2,6,1,1.767,96
"2457",39,57,"Control",1,2,6,1,2.772,97
"2458",39,41,"Control",1,2,2,0,22.515,98
"2459",39,60,"Control",1,2,3,0,3.229,99
"2460",39,25,"Control",1,2,1,0,4.073,100
"2461",39,14,"Control",1,2,6,1,1.917,101
"2462",39,64,"Control",1,2,6,0,2.712,102
"2463",39,3,"Control",1,2,5,0,40.047,103
"2464",39,52,"Control",1,2,3,1,1.995,104
"2465",39,70,"Control",1,2,5,0,4.325,105
"2466",39,46,"Control",1,2,2,0,3.69,106
"2467",39,27,"Control",1,2,6,1,1.834,107
"2468",39,68,"Control",1,2,3,0,3.64,108
"2469",39,20,"Control",1,2,4,1,2.892,109
"2470",39,7,"Control",1,2,4,0,8.321,110
"2471",39,47,"Control",1,2,3,0,3.926,111
"2472",39,16,"Control",1,2,5,1,2.468,112
"2473",39,66,"Control",1,2,6,0,2.294,113
"2474",39,11,"Control",1,2,2,0,3.046,114
"2475",39,50,"Control",1,2,5,1,2.199,115
"2476",39,5,"Control",1,2,6,1,1.993,116
"2477",39,79,"Control",1,2,4,1,2.517,117
"2478",39,32,"Control",1,2,6,1,9.652,118
"2479",39,18,"Control",1,2,6,0,2.724,119
"2480",39,80,"Control",1,2,6,0,2.446,120
"2481",40,33,"Warning",1,1,4,0,6.181,41
"2482",40,35,"Warning",1,1,3,0,5.798,42
"2483",40,51,"Warning",1,1,4,1,3.173,43
"2484",40,46,"Warning",1,1,4,0,4.374,44
"2485",40,25,"Warning",1,1,2,0,6.273,45
"2486",40,64,"Warning",1,1,4,1,4.877,46
"2487",40,23,"Warning",1,1,3,1,5.352,47
"2488",40,4,"Warning",1,1,4,0,6.184,48
"2489",40,40,"Warning",1,1,4,0,2.886,49
"2490",40,58,"Warning",1,1,4,1,3.559,50
"2491",40,50,"Warning",1,1,4,1,5.447,51
"2492",40,53,"Warning",1,1,4,0,4.99,52
"2493",40,13,"Warning",1,1,3,1,2.96,53
"2494",40,75,"Warning",1,1,4,0,4.903,54
"2495",40,16,"Warning",1,1,3,1,3.383,55
"2496",40,44,"Warning",1,1,3,0,3.055,56
"2497",40,5,"Warning",1,1,3,0,4.511,57
"2498",40,31,"Warning",1,1,3,0,3.704,58
"2499",40,49,"Warning",1,1,1,1,3.896,59
"2500",40,12,"Warning",1,1,4,1,2.742,60
"2501",40,55,"Warning",1,1,4,1,2.544,61
"2502",40,21,"Warning",1,1,3,0,4.159,62
"2503",40,18,"Warning",1,1,4,0,3.39,63
"2504",40,32,"Warning",1,1,3,1,2.383,64
"2505",40,69,"Warning",1,1,3,1,2.872,65
"2506",40,10,"Warning",1,1,4,1,2.456,66
"2507",40,19,"Warning",1,1,4,0,2.703,67
"2508",40,2,"Warning",1,1,4,1,2.727,68
"2509",40,48,"Warning",1,1,4,1,2.679,69
"2510",40,43,"Warning",1,1,4,0,2.904,70
"2511",40,41,"Warning",1,1,4,1,5.368,71
"2512",40,28,"Warning",1,1,5,0,5.953,72
"2513",40,14,"Warning",1,1,4,1,2.925,73
"2514",40,63,"Warning",1,1,4,0,3.222,74
"2515",40,22,"Warning",1,1,3,1,4.519,75
"2516",40,26,"Warning",1,1,4,1,3.375,76
"2517",40,71,"Warning",1,1,3,0,5.696,77
"2518",40,70,"Warning",1,1,6,1,2.68,78
"2519",40,1,"Warning",1,1,3,0,2.526,79
"2520",40,67,"Warning",1,1,4,0,5.864,80
"2521",40,79,"Warning",1,1,4,0,2.232,81
"2522",40,11,"Warning",1,1,4,0,3.575,82
"2523",40,20,"Warning",1,1,2,1,3.487,83
"2524",40,62,"Warning",1,1,4,1,2.664,84
"2525",40,65,"Warning",1,1,3,1,4.242,85
"2526",40,42,"Warning",1,1,4,1,5.173,86
"2527",40,52,"Warning",1,1,3,0,3.823,87
"2528",40,80,"Warning",1,1,2,1,3.4,88
"2529",40,74,"Warning",1,1,4,1,4.671,89
"2530",40,47,"Warning",1,1,6,1,2.406,90
