"","subject","statement_identifier","presentation_identifier","within_identifier","between_identifier","response","repeated","rt","trial"
"1",1,85,"Control2",1,2,2,1,1972,1
"2",1,89,"Control2",1,2,4,0,1504,2
"3",1,90,"Control2",1,2,3,0,3599,3
"4",1,40,"Control2",1,2,4,1,1150,4
"5",1,91,"Control2",1,2,3,0,6670,5
"6",1,83,"Control2",1,2,3,1,2408,6
"7",1,72,"Control2",1,2,4,1,3346,7
"8",1,34,"Control2",1,2,3,1,12472,8
"9",1,92,"Control2",1,2,4,0,1562,9
"10",1,93,"Control2",1,2,5,0,1963,10
"11",1,94,"Control2",1,2,3,0,636,11
"12",1,95,"Control2",1,2,4,0,3616,12
"13",1,6,"Control2",1,2,3,1,1242,13
"14",1,69,"Control2",1,2,2,1,796,14
"15",1,75,"Control2",1,2,4,1,573,15
"16",1,42,"Control2",1,2,4,1,1003,16
"17",1,62,"Control2",1,2,4,1,6893,17
"18",1,96,"Control2",1,2,3,0,689,18
"19",1,97,"Control2",1,2,3,0,3855,19
"20",1,98,"Control2",1,2,4,0,905,20
"21",1,33,"Control2",1,2,4,1,2161,21
"22",1,31,"Control2",1,2,5,1,617,22
"23",1,99,"Control2",1,2,3,0,798,23
"24",1,25,"Control2",1,2,3,1,545,24
"25",1,79,"Control2",1,2,3,1,552,25
"26",1,63,"Control2",1,2,4,1,720,26
"27",1,86,"Control2",1,2,3,1,570,27
"28",1,100,"Control2",1,2,2,0,10488,28
"29",1,101,"Control2",1,2,4,0,737,29
"30",1,76,"Control2",1,2,3,1,686,30
"31",1,5,"Control2",1,2,3,1,913,31
"32",1,102,"Control2",1,2,4,0,567,32
"33",1,103,"Control2",1,2,4,0,1522,33
"34",1,4,"Control2",1,2,3,1,724,34
"35",1,104,"Control2",1,2,4,0,646,35
"36",1,105,"Control2",1,2,2,0,800,36
"37",1,55,"Control2",1,2,5,1,1091,37
"38",1,106,"Control2",1,2,4,0,511,38
"39",1,107,"Control2",1,2,4,0,884,39
"40",1,108,"Control2",1,2,3,0,977,40
"41",1,109,"Control2",1,2,2,0,2782,41
"42",1,24,"Control2",1,2,5,1,2385,42
"43",1,110,"Control2",1,2,3,0,822,43
"44",1,111,"Control2",1,2,3,0,1678,44
"45",1,112,"Control2",1,2,3,0,1831,45
"46",1,113,"Control2",1,2,3,0,710,46
"47",1,52,"Control2",1,2,4,1,509,47
"48",1,114,"Control2",1,2,3,0,2181,48
"49",1,115,"Control2",1,2,4,0,513,49
"50",1,116,"Control2",1,2,4,0,608,50
"51",1,117,"Control2",1,2,3,0,731,51
"52",1,59,"Control2",1,2,3,1,728,52
"53",1,41,"Control2",1,2,4,1,1034,53
"54",1,118,"Control2",1,2,4,0,3065,54
"55",1,10,"Control2",1,2,4,1,638,55
"56",1,119,"Control2",1,2,3,0,1089,56
"57",1,120,"Control2",1,2,3,0,1525,57
"58",1,121,"Control2",1,2,3,0,2287,58
"59",1,20,"Control2",1,2,4,1,1312,59
"60",1,64,"Control2",1,2,3,1,791,60
"61",1,122,"Control2",1,2,4,0,1974,61
"62",1,123,"Control2",1,2,3,0,2018,62
"63",1,1,"Control2",1,2,5,1,1431,63
"64",1,70,"Control2",1,2,4,1,1941,64
"65",1,12,"Control2",1,2,3,1,633,65
"66",1,124,"Control2",1,2,4,0,4161,66
"67",1,125,"Control2",1,2,4,0,6977,67
"68",1,126,"Control2",1,2,3,0,1776,68
"69",1,66,"Control2",1,2,4,1,2668,69
"70",1,127,"Control2",1,2,3,0,1194,70
"71",1,47,"Control2",1,2,5,1,689,71
"72",1,65,"Control2",1,2,4,1,550,72
"73",1,71,"Control2",1,2,3,1,2701,73
"74",1,84,"Control2",1,2,3,1,6369,74
"75",1,128,"Control2",1,2,4,0,3230,75
"76",1,73,"Control2",1,2,3,1,996,76
"77",1,129,"Control2",1,2,4,0,862,77
"78",1,37,"Control2",1,2,3,1,829,78
"79",1,57,"Control2",1,2,4,1,836,79
"80",1,130,"Control2",1,2,4,0,711,80
"81",1,7,"Control2",1,2,3,1,902,81
"82",1,8,"Control2",1,2,4,1,549,82
"83",1,131,"Control2",1,2,3,0,1245,83
"84",1,51,"Control2",1,2,4,1,649,84
"85",1,15,"Control2",1,2,3,1,3103,85
"86",1,132,"Control2",1,2,4,0,722,86
"87",1,88,"Control2",1,2,5,1,1780,87
"88",1,67,"Control2",1,2,4,1,824,88
"89",1,133,"Control3",1,2,3,0,5276,89
"90",1,134,"Control3",1,2,3,0,4676,90
"91",1,58,"Control3",1,2,4,1,1948,91
"92",1,3,"Control3",1,2,3,1,1098,92
"93",1,135,"Control3",1,2,4,0,1144,93
"94",1,136,"Control3",1,2,4,0,638,94
"95",1,137,"Control3",1,2,4,0,929,95
"96",1,81,"Control3",1,2,3,1,7010,96
"97",1,138,"Control3",1,2,4,0,5407,97
"98",1,78,"Control3",1,2,4,1,631,98
"99",1,32,"Control3",1,2,3,1,1912,99
"100",1,61,"Control3",1,2,4,1,1062,100
"101",1,28,"Control3",1,2,3,1,503,101
"102",1,139,"Control3",1,2,4,0,1099,102
"103",1,140,"Control3",1,2,4,0,867,103
"104",1,141,"Control3",1,2,3,0,7872,104
"105",1,56,"Control3",1,2,4,1,545,105
"106",1,142,"Control3",1,2,3,0,3847,106
"107",1,80,"Control3",1,2,4,1,4766,107
"108",1,9,"Control3",1,2,4,1,962,108
"109",1,143,"Control3",1,2,4,0,644,109
"110",1,23,"Control3",1,2,4,1,513,110
"111",1,144,"Control3",1,2,4,0,674,111
"112",1,145,"Control3",1,2,4,0,3522,112
"113",1,29,"Control3",1,2,4,1,529,113
"114",1,146,"Control3",1,2,3,0,1216,114
"115",1,147,"Control3",1,2,4,0,1261,115
"116",1,148,"Control3",1,2,4,0,1881,116
"117",1,149,"Control3",1,2,3,0,661,117
"118",1,49,"Control3",1,2,3,1,1055,118
"119",1,150,"Control3",1,2,4,0,633,119
"120",1,151,"Control3",1,2,3,0,1478,120
"121",1,22,"Control3",1,2,3,1,562,121
"122",1,17,"Control3",1,2,3,1,2192,122
"123",1,36,"Control3",1,2,4,1,489,123
"124",1,152,"Control3",1,2,4,0,12922,124
"125",1,50,"Control3",1,2,4,1,401,125
"126",1,68,"Control3",1,2,4,1,2290,126
"127",1,19,"Control3",1,2,2,1,2021,127
"128",1,153,"Control3",1,2,3,0,6262,128
"129",1,14,"Control3",1,2,4,1,622,129
"130",1,35,"Control3",1,2,4,1,3818,130
"131",1,16,"Control3",1,2,4,1,529,131
"132",1,154,"Control3",1,2,4,0,982,132
"133",1,87,"Control3",1,2,4,1,547,133
"134",1,21,"Control3",1,2,4,1,499,134
"135",1,155,"Control3",1,2,3,0,938,135
"136",1,38,"Control3",1,2,3,1,7208,136
"137",1,74,"Control3",1,2,4,1,614,137
"138",1,156,"Control3",1,2,4,0,913,138
"139",1,157,"Control3",1,2,4,0,460,139
"140",1,158,"Control3",1,2,3,0,870,140
"141",1,48,"Control3",1,2,4,1,2774,141
"142",1,159,"Control3",1,2,4,0,3902,142
"143",1,13,"Control3",1,2,4,1,966,143
"144",1,2,"Control3",1,2,4,1,552,144
"145",1,160,"Control3",1,2,4,0,534,145
"146",1,161,"Control3",1,2,4,0,7267,146
"147",1,162,"Control3",1,2,4,0,1751,147
"148",1,163,"Control3",1,2,3,0,1048,148
"149",1,164,"Control3",1,2,4,0,978,149
"150",1,45,"Control3",1,2,4,1,2009,150
"151",1,60,"Control3",1,2,4,1,1381,151
"152",1,165,"Control3",1,2,4,0,529,152
"153",1,166,"Control3",1,2,3,0,950,153
"154",1,167,"Control3",1,2,4,0,488,154
"155",1,168,"Control3",1,2,4,0,894,155
"156",1,39,"Control3",1,2,4,1,956,156
"157",1,18,"Control3",1,2,5,1,577,157
"158",1,77,"Control3",1,2,3,1,1794,158
"159",1,169,"Control3",1,2,4,0,1428,159
"160",1,11,"Control3",1,2,4,1,1867,160
"161",1,170,"Control3",1,2,4,0,590,161
"162",1,82,"Control3",1,2,3,1,730,162
"163",1,44,"Control3",1,2,3,1,791,163
"164",1,53,"Control3",1,2,2,1,4995,164
"165",1,54,"Control3",1,2,4,1,1681,165
"166",1,171,"Control3",1,2,4,0,4029,166
"167",1,27,"Control3",1,2,3,1,667,167
"168",1,172,"Control3",1,2,4,0,1182,168
"169",1,173,"Control3",1,2,4,0,6004,169
"170",1,43,"Control3",1,2,4,1,3157,170
"171",1,30,"Control3",1,2,2,1,3052,171
"172",1,174,"Control3",1,2,2,0,1874,172
"173",1,26,"Control3",1,2,4,1,4434,173
"174",1,175,"Control3",1,2,3,0,526,174
"175",1,176,"Control3",1,2,3,0,672,175
"176",1,46,"Control3",1,2,3,1,1576,176
"177",2,105,"Warning2",1,1,4,0,2520,1
"178",2,110,"Warning2",1,1,3,0,10378,2
"179",2,98,"Warning2",1,1,2,0,1950,3
"180",2,112,"Warning2",1,1,2,0,828,4
"181",2,62,"Warning2",1,1,2,1,675,5
"182",2,1,"Warning2",1,1,3,1,3726,6
"183",2,116,"Warning2",1,1,3,0,8558,7
"184",2,114,"Warning2",1,1,4,0,862,8
"185",2,121,"Warning2",1,1,5,0,3543,9
"186",2,94,"Warning2",1,1,3,0,1033,10
"187",2,69,"Warning2",1,1,5,1,3064,11
"188",2,67,"Warning2",1,1,2,1,1182,12
"189",2,25,"Warning2",1,1,4,1,754,13
"190",2,115,"Warning2",1,1,5,0,1098,14
"191",2,66,"Warning2",1,1,4,1,6063,15
"192",2,109,"Warning2",1,1,3,0,1207,16
"193",2,111,"Warning2",1,1,4,0,8906,17
"194",2,95,"Warning2",1,1,2,0,10168,18
"195",2,12,"Warning2",1,1,5,1,802,19
"196",2,83,"Warning2",1,1,2,1,3180,20
"197",2,90,"Warning2",1,1,4,0,1718,21
"198",2,127,"Warning2",1,1,4,0,1136,22
"199",2,5,"Warning2",1,1,4,1,1156,23
"200",2,8,"Warning2",1,1,2,1,974,24
"201",2,102,"Warning2",1,1,4,0,3220,25
"202",2,131,"Warning2",1,1,2,0,5502,26
"203",2,65,"Warning2",1,1,4,1,1295,27
"204",2,88,"Warning2",1,1,3,1,3884,28
"205",2,4,"Warning2",1,1,3,1,3363,29
"206",2,41,"Warning2",1,1,4,1,3627,30
"207",2,24,"Warning2",1,1,5,1,600,31
"208",2,59,"Warning2",1,1,4,1,2042,32
"209",2,126,"Warning2",1,1,2,0,3788,33
"210",2,92,"Warning2",1,1,3,0,3609,34
"211",2,91,"Warning2",1,1,2,0,1944,35
"212",2,6,"Warning2",1,1,3,1,2167,36
"213",2,84,"Warning2",1,1,3,1,1096,37
"214",2,99,"Warning2",1,1,3,0,2805,38
"215",2,52,"Warning2",1,1,4,1,8519,39
"216",2,122,"Warning2",1,1,4,0,655,40
"217",2,63,"Warning2",1,1,4,1,5028,41
"218",2,42,"Warning2",1,1,3,1,519,42
"219",2,72,"Warning2",1,1,4,1,506,43
"220",2,104,"Warning2",1,1,4,0,610,44
"221",2,70,"Warning2",1,1,2,1,1055,45
"222",2,123,"Warning2",1,1,3,0,1299,46
"223",2,113,"Warning2",1,1,3,0,1168,47
"224",2,40,"Warning2",1,1,3,1,2705,48
"225",2,31,"Warning2",1,1,3,1,4392,49
"226",2,106,"Warning2",1,1,4,0,516,50
"227",2,100,"Warning2",1,1,5,0,647,51
"228",2,97,"Warning2",1,1,4,0,665,52
"229",2,132,"Warning2",1,1,4,0,513,53
"230",2,86,"Warning2",1,1,3,1,1072,54
"231",2,75,"Warning2",1,1,3,1,2360,55
"232",2,89,"Warning2",1,1,4,0,1272,56
"233",2,15,"Warning2",1,1,4,1,479,57
"234",2,7,"Warning2",1,1,3,1,1738,58
"235",2,51,"Warning2",1,1,3,1,454,59
"236",2,37,"Warning2",1,1,4,1,1179,60
"237",2,85,"Warning2",1,1,2,1,3863,61
"238",2,101,"Warning2",1,1,2,0,1945,62
"239",2,47,"Warning2",1,1,5,1,600,63
"240",2,93,"Warning2",1,1,4,0,746,64
"241",2,125,"Warning2",1,1,4,0,834,65
"242",2,76,"Warning2",1,1,3,1,1393,66
"243",2,73,"Warning2",1,1,3,1,464,67
"244",2,103,"Warning2",1,1,4,0,3129,68
"245",2,71,"Warning2",1,1,2,1,1505,69
"246",2,10,"Warning2",1,1,3,1,1288,70
"247",2,120,"Warning2",1,1,2,0,1193,71
"248",2,96,"Warning2",1,1,4,0,1280,72
"249",2,129,"Warning2",1,1,3,0,1890,73
"250",2,55,"Warning2",1,1,5,1,11021,74
"251",2,124,"Warning2",1,1,5,0,1768,75
"252",2,118,"Warning2",1,1,3,0,1625,76
"253",2,34,"Warning2",1,1,3,1,3664,77
"254",2,20,"Warning2",1,1,3,1,2642,78
"255",2,57,"Warning2",1,1,4,1,587,79
"256",2,79,"Warning2",1,1,3,1,8891,80
"257",2,117,"Warning2",1,1,4,0,2839,81
"258",2,128,"Warning2",1,1,4,0,527,82
"259",2,108,"Warning2",1,1,3,0,673,83
"260",2,33,"Warning2",1,1,4,1,696,84
"261",2,107,"Warning2",1,1,5,0,1717,85
"262",2,130,"Warning2",1,1,4,0,2439,86
"263",2,119,"Warning2",1,1,3,0,1504,87
"264",2,64,"Warning2",1,1,2,1,1631,88
"265",2,50,"Warning3",1,1,3,1,1218,89
"266",2,145,"Warning3",1,1,4,0,2493,90
"267",2,171,"Warning3",1,1,4,0,1186,91
"268",2,60,"Warning3",1,1,3,1,2953,92
"269",2,153,"Warning3",1,1,4,0,1012,93
"270",2,135,"Warning3",1,1,3,0,2811,94
"271",2,147,"Warning3",1,1,2,0,1155,95
"272",2,164,"Warning3",1,1,4,0,4293,96
"273",2,21,"Warning3",1,1,3,1,1196,97
"274",2,29,"Warning3",1,1,3,1,2825,98
"275",2,155,"Warning3",1,1,4,0,550,99
"276",2,14,"Warning3",1,1,4,1,2914,100
"277",2,68,"Warning3",1,1,4,1,485,101
"278",2,142,"Warning3",1,1,4,0,6864,102
"279",2,27,"Warning3",1,1,3,1,1190,103
"280",2,161,"Warning3",1,1,5,0,5030,104
"281",2,19,"Warning3",1,1,3,1,1112,105
"282",2,174,"Warning3",1,1,3,0,5600,106
"283",2,48,"Warning3",1,1,4,1,549,107
"284",2,9,"Warning3",1,1,4,1,823,108
"285",2,28,"Warning3",1,1,2,1,1477,109
"286",2,32,"Warning3",1,1,3,1,1003,110
"287",2,154,"Warning3",1,1,4,0,7212,111
"288",2,87,"Warning3",1,1,3,1,462,112
"289",2,13,"Warning3",1,1,2,1,2094,113
"290",2,170,"Warning3",1,1,2,0,906,114
"291",2,168,"Warning3",1,1,4,0,5852,115
"292",2,144,"Warning3",1,1,4,0,386,116
"293",2,80,"Warning3",1,1,3,1,4744,117
"294",2,2,"Warning3",1,1,4,1,1188,118
"295",2,53,"Warning3",1,1,3,1,4642,119
"296",2,38,"Warning3",1,1,4,1,395,120
"297",2,46,"Warning3",1,1,2,1,848,121
"298",2,82,"Warning3",1,1,4,1,2880,122
"299",2,151,"Warning3",1,1,4,0,2334,123
"300",2,74,"Warning3",1,1,5,1,3129,124
"301",2,162,"Warning3",1,1,3,0,1059,125
"302",2,149,"Warning3",1,1,2,0,857,126
"303",2,163,"Warning3",1,1,4,0,517,127
"304",2,172,"Warning3",1,1,4,0,6422,128
"305",2,30,"Warning3",1,1,3,1,1870,129
"306",2,169,"Warning3",1,1,3,0,4427,130
"307",2,150,"Warning3",1,1,4,0,5261,131
"308",2,16,"Warning3",1,1,4,1,3392,132
"309",2,36,"Warning3",1,1,6,1,979,133
"310",2,143,"Warning3",1,1,4,0,1901,134
"311",2,156,"Warning3",1,1,4,0,2015,135
"312",2,43,"Warning3",1,1,4,1,6375,136
"313",2,26,"Warning3",1,1,4,1,807,137
"314",2,165,"Warning3",1,1,4,0,1864,138
"315",2,160,"Warning3",1,1,4,0,390,139
"316",2,35,"Warning3",1,1,2,1,1502,140
"317",2,148,"Warning3",1,1,3,0,1062,141
"318",2,81,"Warning3",1,1,4,1,1544,142
"319",2,11,"Warning3",1,1,4,1,1067,143
"320",2,22,"Warning3",1,1,4,1,450,144
"321",2,61,"Warning3",1,1,5,1,642,145
"322",2,56,"Warning3",1,1,4,1,8120,146
"323",2,133,"Warning3",1,1,3,0,1740,147
"324",2,139,"Warning3",1,1,5,0,529,148
"325",2,146,"Warning3",1,1,3,0,4545,149
"326",2,140,"Warning3",1,1,3,0,6894,150
"327",2,39,"Warning3",1,1,4,1,2215,151
"328",2,158,"Warning3",1,1,3,0,999,152
"329",2,134,"Warning3",1,1,2,0,1324,153
"330",2,137,"Warning3",1,1,4,0,2961,154
"331",2,18,"Warning3",1,1,2,1,787,155
"332",2,17,"Warning3",1,1,4,1,2254,156
"333",2,78,"Warning3",1,1,4,1,6520,157
"334",2,138,"Warning3",1,1,4,0,3011,158
"335",2,166,"Warning3",1,1,3,0,5460,159
"336",2,175,"Warning3",1,1,4,0,3755,160
"337",2,3,"Warning3",1,1,2,1,498,161
"338",2,157,"Warning3",1,1,4,0,3474,162
"339",2,141,"Warning3",1,1,3,0,3198,163
"340",2,54,"Warning3",1,1,4,1,1426,164
"341",2,45,"Warning3",1,1,3,1,2785,165
"342",2,136,"Warning3",1,1,3,0,6318,166
"343",2,167,"Warning3",1,1,3,0,3481,167
"344",2,23,"Warning3",1,1,3,1,13368,168
"345",2,58,"Warning3",1,1,4,1,1528,169
"346",2,176,"Warning3",1,1,3,0,4168,170
"347",2,159,"Warning3",1,1,4,0,3432,171
"348",2,173,"Warning3",1,1,3,0,6174,172
"349",2,49,"Warning3",1,1,3,1,854,173
"350",2,44,"Warning3",1,1,3,1,557,174
"351",2,152,"Warning3",1,1,4,0,17761,175
"352",2,77,"Warning3",1,1,4,1,450,176
"353",3,24,"Control2",1,2,6,1,2322,1
"354",3,157,"Control2",1,2,3,0,2884,2
"355",3,1,"Control2",1,2,4,1,580,3
"356",3,134,"Control2",1,2,3,0,1089,4
"357",3,161,"Control2",1,2,4,0,2651,5
"358",3,156,"Control2",1,2,2,0,1502,6
"359",3,10,"Control2",1,2,5,1,570,7
"360",3,153,"Control2",1,2,3,0,1079,8
"361",3,37,"Control2",1,2,4,1,809,9
"362",3,65,"Control2",1,2,5,1,3902,10
"363",3,42,"Control2",1,2,4,1,744,11
"364",3,5,"Control2",1,2,4,1,935,12
"365",3,152,"Control2",1,2,5,0,492,13
"366",3,141,"Control2",1,2,2,0,641,14
"367",3,66,"Control2",1,2,2,1,467,15
"368",3,170,"Control2",1,2,6,0,651,16
"369",3,51,"Control2",1,2,5,1,784,17
"370",3,75,"Control2",1,2,5,1,568,18
"371",3,15,"Control2",1,2,3,1,634,19
"372",3,159,"Control2",1,2,3,0,3210,20
"373",3,67,"Control2",1,2,3,1,553,21
"374",3,31,"Control2",1,2,3,1,873,22
"375",3,146,"Control2",1,2,2,0,849,23
"376",3,64,"Control2",1,2,2,1,557,24
"377",3,158,"Control2",1,2,2,0,528,25
"378",3,138,"Control2",1,2,3,0,642,26
"379",3,133,"Control2",1,2,4,0,436,27
"380",3,173,"Control2",1,2,5,0,671,28
"381",3,169,"Control2",1,2,2,0,695,29
"382",3,154,"Control2",1,2,5,0,555,30
"383",3,25,"Control2",1,2,4,1,558,31
"384",3,151,"Control2",1,2,2,0,3008,32
"385",3,76,"Control2",1,2,3,1,1512,33
"386",3,63,"Control2",1,2,4,1,487,34
"387",3,41,"Control2",1,2,5,1,562,35
"388",3,166,"Control2",1,2,4,0,860,36
"389",3,137,"Control2",1,2,5,0,785,37
"390",3,155,"Control2",1,2,3,0,360,38
"391",3,143,"Control2",1,2,2,0,643,39
"392",3,69,"Control2",1,2,5,1,797,40
"393",3,167,"Control2",1,2,4,0,495,41
"394",3,176,"Control2",1,2,3,0,844,42
"395",3,162,"Control2",1,2,2,0,463,43
"396",3,33,"Control2",1,2,3,1,598,44
"397",3,135,"Control2",1,2,4,0,421,45
"398",3,136,"Control2",1,2,3,0,1771,46
"399",3,148,"Control2",1,2,3,0,375,47
"400",3,70,"Control2",1,2,3,1,540,48
"401",3,73,"Control2",1,2,5,1,1033,49
"402",3,20,"Control2",1,2,4,1,1296,50
"403",3,83,"Control2",1,2,2,1,444,51
"404",3,160,"Control2",1,2,4,0,535,52
"405",3,59,"Control2",1,2,4,1,395,53
"406",3,174,"Control2",1,2,5,0,558,54
"407",3,139,"Control2",1,2,3,0,600,55
"408",3,145,"Control2",1,2,2,0,842,56
"409",3,171,"Control2",1,2,4,0,636,57
"410",3,12,"Control2",1,2,2,1,511,58
"411",3,168,"Control2",1,2,4,0,1295,59
"412",3,71,"Control2",1,2,3,1,555,60
"413",3,52,"Control2",1,2,2,1,957,61
"414",3,147,"Control2",1,2,1,0,1671,62
"415",3,84,"Control2",1,2,4,1,630,63
"416",3,163,"Control2",1,2,2,0,382,64
"417",3,149,"Control2",1,2,4,0,469,65
"418",3,79,"Control2",1,2,3,1,661,66
"419",3,150,"Control2",1,2,4,0,554,67
"420",3,164,"Control2",1,2,2,0,1666,68
"421",3,88,"Control2",1,2,5,1,609,69
"422",3,8,"Control2",1,2,4,1,2310,70
"423",3,57,"Control2",1,2,3,1,588,71
"424",3,40,"Control2",1,2,4,1,611,72
"425",3,62,"Control2",1,2,5,1,656,73
"426",3,144,"Control2",1,2,3,0,669,74
"427",3,6,"Control2",1,2,3,1,453,75
"428",3,4,"Control2",1,2,2,1,1154,76
"429",3,175,"Control2",1,2,4,0,745,77
"430",3,47,"Control2",1,2,3,1,329,78
"431",3,86,"Control2",1,2,3,1,1398,79
"432",3,85,"Control2",1,2,4,1,464,80
"433",3,72,"Control2",1,2,5,1,999,81
"434",3,172,"Control2",1,2,4,0,913,82
"435",3,34,"Control2",1,2,3,1,3937,83
"436",3,165,"Control2",1,2,4,0,955,84
"437",3,55,"Control2",1,2,3,1,1146,85
"438",3,7,"Control2",1,2,3,1,1281,86
"439",3,140,"Control2",1,2,2,0,667,87
"440",3,142,"Control2",1,2,2,0,811,88
"441",3,111,"Control3",1,2,3,0,899,89
"442",3,16,"Control3",1,2,5,1,656,90
"443",3,81,"Control3",1,2,3,1,1327,91
"444",3,49,"Control3",1,2,5,1,1009,92
"445",3,96,"Control3",1,2,3,0,4178,93
"446",3,116,"Control3",1,2,2,0,525,94
"447",3,30,"Control3",1,2,4,1,513,95
"448",3,44,"Control3",1,2,3,1,1025,96
"449",3,68,"Control3",1,2,3,1,672,97
"450",3,80,"Control3",1,2,5,1,707,98
"451",3,105,"Control3",1,2,2,0,671,99
"452",3,91,"Control3",1,2,2,0,668,100
"453",3,21,"Control3",1,2,4,1,417,101
"454",3,104,"Control3",1,2,4,0,758,102
"455",3,95,"Control3",1,2,3,0,1926,103
"456",3,18,"Control3",1,2,4,1,340,104
"457",3,113,"Control3",1,2,2,0,594,105
"458",3,13,"Control3",1,2,4,1,544,106
"459",3,78,"Control3",1,2,2,1,546,107
"460",3,90,"Control3",1,2,4,0,567,108
"461",3,103,"Control3",1,2,4,0,585,109
"462",3,123,"Control3",1,2,4,0,404,110
"463",3,121,"Control3",1,2,2,0,921,111
"464",3,61,"Control3",1,2,4,1,529,112
"465",3,112,"Control3",1,2,3,0,385,113
"466",3,99,"Control3",1,2,3,0,1018,114
"467",3,9,"Control3",1,2,4,1,398,115
"468",3,119,"Control3",1,2,4,0,366,116
"469",3,56,"Control3",1,2,3,1,1231,117
"470",3,114,"Control3",1,2,4,0,467,118
"471",3,38,"Control3",1,2,2,1,523,119
"472",3,46,"Control3",1,2,5,1,555,120
"473",3,2,"Control3",1,2,4,1,402,121
"474",3,120,"Control3",1,2,3,0,1423,122
"475",3,22,"Control3",1,2,4,1,724,123
"476",3,109,"Control3",1,2,3,0,455,124
"477",3,87,"Control3",1,2,5,1,503,125
"478",3,23,"Control3",1,2,4,1,449,126
"479",3,36,"Control3",1,2,4,1,651,127
"480",3,27,"Control3",1,2,4,1,585,128
"481",3,101,"Control3",1,2,3,0,435,129
"482",3,60,"Control3",1,2,3,1,416,130
"483",3,117,"Control3",1,2,3,0,788,131
"484",3,129,"Control3",1,2,3,0,576,132
"485",3,32,"Control3",1,2,4,1,399,133
"486",3,107,"Control3",1,2,6,0,598,134
"487",3,89,"Control3",1,2,4,0,1351,135
"488",3,77,"Control3",1,2,3,1,370,136
"489",3,118,"Control3",1,2,3,0,367,137
"490",3,74,"Control3",1,2,5,1,442,138
"491",3,127,"Control3",1,2,4,0,546,139
"492",3,100,"Control3",1,2,4,0,440,140
"493",3,45,"Control3",1,2,2,1,591,141
"494",3,19,"Control3",1,2,5,1,1512,142
"495",3,132,"Control3",1,2,3,0,465,143
"496",3,98,"Control3",1,2,2,0,686,144
"497",3,53,"Control3",1,2,1,1,6338,145
"498",3,124,"Control3",1,2,3,0,808,146
"499",3,82,"Control3",1,2,4,1,707,147
"500",3,29,"Control3",1,2,3,1,439,148
"501",3,126,"Control3",1,2,4,0,447,149
"502",3,26,"Control3",1,2,3,1,531,150
"503",3,17,"Control3",1,2,3,1,474,151
"504",3,43,"Control3",1,2,5,1,820,152
"505",3,50,"Control3",1,2,4,1,522,153
"506",3,115,"Control3",1,2,4,0,562,154
"507",3,54,"Control3",1,2,5,1,1564,155
"508",3,14,"Control3",1,2,5,1,456,156
"509",3,108,"Control3",1,2,3,0,1339,157
"510",3,58,"Control3",1,2,3,1,338,158
"511",3,131,"Control3",1,2,3,0,1462,159
"512",3,97,"Control3",1,2,4,0,385,160
"513",3,102,"Control3",1,2,4,0,865,161
"514",3,125,"Control3",1,2,4,0,591,162
"515",3,11,"Control3",1,2,4,1,1085,163
"516",3,128,"Control3",1,2,3,0,455,164
"517",3,28,"Control3",1,2,4,1,338,165
"518",3,122,"Control3",1,2,3,0,472,166
"519",3,106,"Control3",1,2,4,0,423,167
"520",3,48,"Control3",1,2,3,1,1303,168
"521",3,35,"Control3",1,2,4,1,2127,169
"522",3,39,"Control3",1,2,4,1,1633,170
"523",3,130,"Control3",1,2,4,0,1341,171
"524",3,3,"Control3",1,2,4,1,607,172
"525",3,92,"Control3",1,2,3,0,618,173
"526",3,94,"Control3",1,2,3,0,570,174
"527",3,110,"Control3",1,2,3,0,849,175
"528",3,93,"Control3",1,2,4,0,482,176
"529",4,66,"Warning2",1,1,2,1,3198,1
"530",4,63,"Warning2",1,1,5,1,806,2
"531",4,149,"Warning2",1,1,1,0,1088,3
"532",4,158,"Warning2",1,1,1,0,938,4
"533",4,144,"Warning2",1,1,3,0,1111,5
"534",4,141,"Warning2",1,1,4,0,1518,6
"535",4,166,"Warning2",1,1,1,0,855,7
"536",4,47,"Warning2",1,1,1,1,844,8
"537",4,70,"Warning2",1,1,3,1,758,9
"538",4,24,"Warning2",1,1,3,1,2392,10
"539",4,42,"Warning2",1,1,3,1,3166,11
"540",4,152,"Warning2",1,1,5,0,1502,12
"541",4,73,"Warning2",1,1,4,1,765,13
"542",4,169,"Warning2",1,1,5,0,1007,14
"543",4,12,"Warning2",1,1,3,1,1818,15
"544",4,159,"Warning2",1,1,1,0,1846,16
"545",4,31,"Warning2",1,1,4,1,767,17
"546",4,8,"Warning2",1,1,3,1,1218,18
"547",4,25,"Warning2",1,1,1,1,1478,19
"548",4,163,"Warning2",1,1,4,0,1504,20
"549",4,154,"Warning2",1,1,3,0,1382,21
"550",4,37,"Warning2",1,1,5,1,901,22
"551",4,170,"Warning2",1,1,2,0,786,23
"552",4,168,"Warning2",1,1,4,0,2594,24
"553",4,142,"Warning2",1,1,1,0,1343,25
"554",4,148,"Warning2",1,1,1,0,782,26
"555",4,71,"Warning2",1,1,1,1,774,27
"556",4,1,"Warning2",1,1,1,1,731,28
"557",4,165,"Warning2",1,1,6,0,952,29
"558",4,55,"Warning2",1,1,1,1,959,30
"559",4,34,"Warning2",1,1,5,1,2617,31
"560",4,65,"Warning2",1,1,2,1,676,32
"561",4,157,"Warning2",1,1,2,0,1430,33
"562",4,164,"Warning2",1,1,2,0,1813,34
"563",4,5,"Warning2",1,1,1,1,889,35
"564",4,147,"Warning2",1,1,5,0,654,36
"565",4,72,"Warning2",1,1,5,1,795,37
"566",4,139,"Warning2",1,1,2,0,605,38
"567",4,135,"Warning2",1,1,1,0,1215,39
"568",4,136,"Warning2",1,1,1,0,1668,40
"569",4,6,"Warning2",1,1,6,1,1066,41
"570",4,150,"Warning2",1,1,2,0,698,42
"571",4,62,"Warning2",1,1,6,1,863,43
"572",4,79,"Warning2",1,1,6,1,1887,44
"573",4,67,"Warning2",1,1,2,1,679,45
"574",4,171,"Warning2",1,1,4,0,1594,46
"575",4,7,"Warning2",1,1,1,1,864,47
"576",4,134,"Warning2",1,1,1,0,1746,48
"577",4,175,"Warning2",1,1,6,0,953,49
"578",4,75,"Warning2",1,1,4,1,1072,50
"579",4,137,"Warning2",1,1,2,0,664,51
"580",4,153,"Warning2",1,1,5,0,695,52
"581",4,41,"Warning2",1,1,5,1,1220,53
"582",4,145,"Warning2",1,1,6,0,897,54
"583",4,155,"Warning2",1,1,5,0,941,55
"584",4,140,"Warning2",1,1,5,0,1106,56
"585",4,20,"Warning2",1,1,3,1,2441,57
"586",4,83,"Warning2",1,1,2,1,906,58
"587",4,143,"Warning2",1,1,2,0,1257,59
"588",4,167,"Warning2",1,1,3,0,958,60
"589",4,69,"Warning2",1,1,4,1,1288,61
"590",4,40,"Warning2",1,1,5,1,697,62
"591",4,59,"Warning2",1,1,4,1,1742,63
"592",4,160,"Warning2",1,1,4,0,1290,64
"593",4,15,"Warning2",1,1,4,1,1327,65
"594",4,176,"Warning2",1,1,6,0,728,66
"595",4,4,"Warning2",1,1,5,1,837,67
"596",4,88,"Warning2",1,1,4,1,2695,68
"597",4,76,"Warning2",1,1,6,1,1050,69
"598",4,173,"Warning2",1,1,5,0,1951,70
"599",4,133,"Warning2",1,1,2,0,1157,71
"600",4,84,"Warning2",1,1,6,1,719,72
"601",4,146,"Warning2",1,1,5,0,801,73
"602",4,57,"Warning2",1,1,3,1,1092,74
"603",4,162,"Warning2",1,1,3,0,1048,75
"604",4,86,"Warning2",1,1,6,1,458,76
"605",4,156,"Warning2",1,1,3,0,1223,77
"606",4,52,"Warning2",1,1,5,1,1679,78
"607",4,85,"Warning2",1,1,2,1,1504,79
"608",4,138,"Warning2",1,1,4,0,2335,80
"609",4,51,"Warning2",1,1,4,1,1962,81
"610",4,151,"Warning2",1,1,2,0,1723,82
"611",4,64,"Warning2",1,1,5,1,1397,83
"612",4,33,"Warning2",1,1,4,1,726,84
"613",4,172,"Warning2",1,1,4,0,809,85
"614",4,10,"Warning2",1,1,5,1,1605,86
"615",4,174,"Warning2",1,1,2,0,951,87
"616",4,161,"Warning2",1,1,4,0,1830,88
"617",4,32,"Warning3",1,1,3,1,1021,89
"618",4,118,"Warning3",1,1,4,0,639,90
"619",4,27,"Warning3",1,1,3,1,1759,91
"620",4,93,"Warning3",1,1,4,0,600,92
"621",4,108,"Warning3",1,1,4,0,1728,93
"622",4,111,"Warning3",1,1,5,0,1249,94
"623",4,36,"Warning3",1,1,1,1,802,95
"624",4,101,"Warning3",1,1,2,0,1314,96
"625",4,80,"Warning3",1,1,6,1,1007,97
"626",4,107,"Warning3",1,1,5,0,1192,98
"627",4,96,"Warning3",1,1,2,0,1269,99
"628",4,60,"Warning3",1,1,5,1,826,100
"629",4,39,"Warning3",1,1,5,1,1096,101
"630",4,103,"Warning3",1,1,1,0,912,102
"631",4,53,"Warning3",1,1,1,1,1977,103
"632",4,14,"Warning3",1,1,3,1,2439,104
"633",4,100,"Warning3",1,1,4,0,2253,105
"634",4,102,"Warning3",1,1,4,0,913,106
"635",4,123,"Warning3",1,1,3,0,1908,107
"636",4,44,"Warning3",1,1,4,1,651,108
"637",4,74,"Warning3",1,1,5,1,1015,109
"638",4,117,"Warning3",1,1,5,0,1906,110
"639",4,105,"Warning3",1,1,4,0,1333,111
"640",4,97,"Warning3",1,1,5,0,755,112
"641",4,45,"Warning3",1,1,5,1,732,113
"642",4,122,"Warning3",1,1,3,0,1623,114
"643",4,130,"Warning3",1,1,3,0,907,115
"644",4,98,"Warning3",1,1,3,0,2967,116
"645",4,17,"Warning3",1,1,2,1,1103,117
"646",4,99,"Warning3",1,1,3,0,3041,118
"647",4,129,"Warning3",1,1,5,0,1235,119
"648",4,112,"Warning3",1,1,2,0,1576,120
"649",4,48,"Warning3",1,1,5,1,1304,121
"650",4,21,"Warning3",1,1,4,1,1552,122
"651",4,125,"Warning3",1,1,5,0,520,123
"652",4,116,"Warning3",1,1,3,0,546,124
"653",4,35,"Warning3",1,1,3,1,1246,125
"654",4,26,"Warning3",1,1,4,1,1254,126
"655",4,126,"Warning3",1,1,4,0,4168,127
"656",4,77,"Warning3",1,1,3,1,1247,128
"657",4,113,"Warning3",1,1,4,0,1737,129
"658",4,81,"Warning3",1,1,3,1,1109,130
"659",4,115,"Warning3",1,1,4,0,523,131
"660",4,16,"Warning3",1,1,2,1,724,132
"661",4,19,"Warning3",1,1,2,1,824,133
"662",4,38,"Warning3",1,1,4,1,1458,134
"663",4,109,"Warning3",1,1,1,0,760,135
"664",4,128,"Warning3",1,1,5,0,1232,136
"665",4,106,"Warning3",1,1,4,0,2997,137
"666",4,82,"Warning3",1,1,4,1,1016,138
"667",4,132,"Warning3",1,1,4,0,920,139
"668",4,89,"Warning3",1,1,2,0,1344,140
"669",4,87,"Warning3",1,1,4,1,999,141
"670",4,104,"Warning3",1,1,5,0,705,142
"671",4,56,"Warning3",1,1,3,1,2275,143
"672",4,23,"Warning3",1,1,2,1,644,144
"673",4,120,"Warning3",1,1,2,0,1440,145
"674",4,30,"Warning3",1,1,2,1,1553,146
"675",4,13,"Warning3",1,1,4,1,639,147
"676",4,68,"Warning3",1,1,6,1,1165,148
"677",4,127,"Warning3",1,1,4,0,763,149
"678",4,90,"Warning3",1,1,4,0,951,150
"679",4,3,"Warning3",1,1,4,1,1737,151
"680",4,18,"Warning3",1,1,1,1,785,152
"681",4,28,"Warning3",1,1,4,1,973,153
"682",4,131,"Warning3",1,1,4,0,3444,154
"683",4,119,"Warning3",1,1,4,0,862,155
"684",4,61,"Warning3",1,1,3,1,1106,156
"685",4,11,"Warning3",1,1,5,1,865,157
"686",4,22,"Warning3",1,1,5,1,809,158
"687",4,49,"Warning3",1,1,5,1,651,159
"688",4,58,"Warning3",1,1,4,1,1514,160
"689",4,114,"Warning3",1,1,5,0,815,161
"690",4,110,"Warning3",1,1,5,0,545,162
"691",4,121,"Warning3",1,1,1,0,806,163
"692",4,94,"Warning3",1,1,4,0,1209,164
"693",4,95,"Warning3",1,1,4,0,800,165
"694",4,92,"Warning3",1,1,4,0,1048,166
"695",4,46,"Warning3",1,1,2,1,1889,167
"696",4,78,"Warning3",1,1,4,1,1391,168
"697",4,54,"Warning3",1,1,5,1,941,169
"698",4,50,"Warning3",1,1,4,1,536,170
"699",4,2,"Warning3",1,1,5,1,1295,171
"700",4,124,"Warning3",1,1,5,0,2044,172
"701",4,9,"Warning3",1,1,5,1,2850,173
"702",4,43,"Warning3",1,1,6,1,996,174
"703",4,29,"Warning3",1,1,1,1,912,175
"704",4,91,"Warning3",1,1,1,0,1414,176
"705",5,28,"Control2",1,2,1,1,7477,1
"706",5,32,"Control2",1,2,4,1,2510,2
"707",5,117,"Control2",1,2,5,0,2357,3
"708",5,130,"Control2",1,2,3,0,1318,4
"709",5,89,"Control2",1,2,3,0,1912,5
"710",5,77,"Control2",1,2,6,1,822,6
"711",5,22,"Control2",1,2,5,1,822,7
"712",5,14,"Control2",1,2,5,1,2514,8
"713",5,17,"Control2",1,2,4,1,1560,9
"714",5,35,"Control2",1,2,1,1,2994,10
"715",5,3,"Control2",1,2,2,1,1431,11
"716",5,131,"Control2",1,2,4,0,878,12
"717",5,132,"Control2",1,2,4,0,1344,13
"718",5,102,"Control2",1,2,5,0,2104,14
"719",5,58,"Control2",1,2,4,1,4310,15
"720",5,45,"Control2",1,2,3,1,1475,16
"721",5,127,"Control2",1,2,4,0,793,17
"722",5,87,"Control2",1,2,4,1,4057,18
"723",5,82,"Control2",1,2,4,1,771,19
"724",5,104,"Control2",1,2,5,0,928,20
"725",5,109,"Control2",1,2,3,0,2195,21
"726",5,110,"Control2",1,2,4,0,2153,22
"727",5,61,"Control2",1,2,4,1,1783,23
"728",5,36,"Control2",1,2,5,1,1750,24
"729",5,125,"Control2",1,2,5,0,1972,25
"730",5,46,"Control2",1,2,1,1,992,26
"731",5,44,"Control2",1,2,4,1,2687,27
"732",5,38,"Control2",1,2,4,1,1856,28
"733",5,106,"Control2",1,2,5,0,1196,29
"734",5,48,"Control2",1,2,4,1,1133,30
"735",5,29,"Control2",1,2,2,1,2115,31
"736",5,107,"Control2",1,2,3,0,5073,32
"737",5,90,"Control2",1,2,3,0,1773,33
"738",5,91,"Control2",1,2,1,0,1104,34
"739",5,56,"Control2",1,2,2,1,704,35
"740",5,114,"Control2",1,2,4,0,783,36
"741",5,92,"Control2",1,2,1,0,999,37
"742",5,124,"Control2",1,2,4,0,6986,38
"743",5,53,"Control2",1,2,4,1,13587,39
"744",5,121,"Control2",1,2,4,0,772,40
"745",5,116,"Control2",1,2,3,0,600,41
"746",5,16,"Control2",1,2,3,1,731,42
"747",5,2,"Control2",1,2,4,1,944,43
"748",5,118,"Control2",1,2,5,0,999,44
"749",5,95,"Control2",1,2,4,0,3545,45
"750",5,93,"Control2",1,2,1,0,870,46
"751",5,54,"Control2",1,2,5,1,813,47
"752",5,108,"Control2",1,2,3,0,946,48
"753",5,126,"Control2",1,2,3,0,978,49
"754",5,111,"Control2",1,2,3,0,1086,50
"755",5,122,"Control2",1,2,4,0,1392,51
"756",5,49,"Control2",1,2,1,1,791,52
"757",5,23,"Control2",1,2,4,1,1007,53
"758",5,96,"Control2",1,2,1,0,777,54
"759",5,39,"Control2",1,2,4,1,605,55
"760",5,129,"Control2",1,2,4,0,752,56
"761",5,78,"Control2",1,2,5,1,911,57
"762",5,9,"Control2",1,2,3,1,583,58
"763",5,99,"Control2",1,2,4,0,694,59
"764",5,128,"Control2",1,2,3,0,1403,60
"765",5,30,"Control2",1,2,5,1,653,61
"766",5,13,"Control2",1,2,4,1,578,62
"767",5,103,"Control2",1,2,4,0,1079,63
"768",5,26,"Control2",1,2,4,1,873,64
"769",5,60,"Control2",1,2,3,1,728,65
"770",5,43,"Control2",1,2,2,1,1010,66
"771",5,119,"Control2",1,2,4,0,911,67
"772",5,112,"Control2",1,2,3,0,710,68
"773",5,18,"Control2",1,2,2,1,838,69
"774",5,11,"Control2",1,2,5,1,840,70
"775",5,74,"Control2",1,2,6,1,1090,71
"776",5,115,"Control2",1,2,5,0,871,72
"777",5,123,"Control2",1,2,2,0,766,73
"778",5,80,"Control2",1,2,6,1,696,74
"779",5,81,"Control2",1,2,5,1,1317,75
"780",5,27,"Control2",1,2,4,1,863,76
"781",5,94,"Control2",1,2,3,0,670,77
"782",5,113,"Control2",1,2,4,0,846,78
"783",5,97,"Control2",1,2,4,0,1072,79
"784",5,21,"Control2",1,2,3,1,1751,80
"785",5,98,"Control2",1,2,2,0,710,81
"786",5,120,"Control2",1,2,2,0,2462,82
"787",5,50,"Control2",1,2,5,1,817,83
"788",5,19,"Control2",1,2,3,1,726,84
"789",5,105,"Control2",1,2,3,0,592,85
"790",5,68,"Control2",1,2,3,1,656,86
"791",5,100,"Control2",1,2,1,0,725,87
"792",5,101,"Control2",1,2,1,0,951,88
"793",5,70,"Control3",1,2,2,1,621,89
"794",5,24,"Control3",1,2,2,1,877,90
"795",5,169,"Control3",1,2,3,0,634,91
"796",5,134,"Control3",1,2,3,0,1220,92
"797",5,51,"Control3",1,2,4,1,1088,93
"798",5,12,"Control3",1,2,4,1,896,94
"799",5,83,"Control3",1,2,4,1,2454,95
"800",5,59,"Control3",1,2,3,1,1972,96
"801",5,40,"Control3",1,2,4,1,2160,97
"802",5,133,"Control3",1,2,3,0,3582,98
"803",5,141,"Control3",1,2,3,0,1114,99
"804",5,72,"Control3",1,2,4,1,4215,100
"805",5,150,"Control3",1,2,3,0,1120,101
"806",5,76,"Control3",1,2,3,1,850,102
"807",5,64,"Control3",1,2,4,1,2234,103
"808",5,155,"Control3",1,2,5,0,1025,104
"809",5,71,"Control3",1,2,3,1,960,105
"810",5,55,"Control3",1,2,3,1,614,106
"811",5,138,"Control3",1,2,4,0,2533,107
"812",5,73,"Control3",1,2,4,1,1330,108
"813",5,146,"Control3",1,2,3,0,1049,109
"814",5,79,"Control3",1,2,5,1,1167,110
"815",5,67,"Control3",1,2,2,1,688,111
"816",5,154,"Control3",1,2,3,0,966,112
"817",5,157,"Control3",1,2,3,0,833,113
"818",5,57,"Control3",1,2,4,1,882,114
"819",5,156,"Control3",1,2,2,0,1257,115
"820",5,34,"Control3",1,2,4,1,1256,116
"821",5,52,"Control3",1,2,2,1,3202,117
"822",5,142,"Control3",1,2,2,0,1695,118
"823",5,174,"Control3",1,2,3,0,1271,119
"824",5,66,"Control3",1,2,4,1,1204,120
"825",5,20,"Control3",1,2,2,1,1146,121
"826",5,75,"Control3",1,2,4,1,1342,122
"827",5,163,"Control3",1,2,2,0,2751,123
"828",5,139,"Control3",1,2,4,0,644,124
"829",5,143,"Control3",1,2,2,0,786,125
"830",5,7,"Control3",1,2,3,1,4273,126
"831",5,65,"Control3",1,2,4,1,533,127
"832",5,5,"Control3",1,2,4,1,2208,128
"833",5,168,"Control3",1,2,5,0,1302,129
"834",5,33,"Control3",1,2,3,1,1170,130
"835",5,15,"Control3",1,2,5,1,948,131
"836",5,176,"Control3",1,2,3,0,916,132
"837",5,42,"Control3",1,2,4,1,1328,133
"838",5,158,"Control3",1,2,3,0,718,134
"839",5,159,"Control3",1,2,3,0,2256,135
"840",5,160,"Control3",1,2,4,0,2294,136
"841",5,63,"Control3",1,2,4,1,535,137
"842",5,149,"Control3",1,2,2,0,887,138
"843",5,85,"Control3",1,2,4,1,528,139
"844",5,145,"Control3",1,2,4,0,531,140
"845",5,140,"Control3",1,2,3,0,1064,141
"846",5,69,"Control3",1,2,3,1,775,142
"847",5,135,"Control3",1,2,3,0,2710,143
"848",5,173,"Control3",1,2,4,0,914,144
"849",5,153,"Control3",1,2,4,0,857,145
"850",5,175,"Control3",1,2,3,0,656,146
"851",5,161,"Control3",1,2,4,0,772,147
"852",5,171,"Control3",1,2,3,0,1131,148
"853",5,31,"Control3",1,2,1,1,763,149
"854",5,170,"Control3",1,2,3,0,903,150
"855",5,162,"Control3",1,2,3,0,582,151
"856",5,137,"Control3",1,2,4,0,574,152
"857",5,152,"Control3",1,2,4,0,767,153
"858",5,84,"Control3",1,2,4,1,1661,154
"859",5,167,"Control3",1,2,3,0,902,155
"860",5,8,"Control3",1,2,4,1,1007,156
"861",5,10,"Control3",1,2,4,1,751,157
"862",5,47,"Control3",1,2,5,1,998,158
"863",5,151,"Control3",1,2,4,0,937,159
"864",5,62,"Control3",1,2,4,1,653,160
"865",5,86,"Control3",1,2,4,1,1520,161
"866",5,164,"Control3",1,2,3,0,1649,162
"867",5,41,"Control3",1,2,5,1,1282,163
"868",5,166,"Control3",1,2,3,0,1261,164
"869",5,6,"Control3",1,2,2,1,673,165
"870",5,4,"Control3",1,2,4,1,590,166
"871",5,165,"Control3",1,2,3,0,828,167
"872",5,144,"Control3",1,2,3,0,966,168
"873",5,37,"Control3",1,2,4,1,1090,169
"874",5,1,"Control3",1,2,5,1,1080,170
"875",5,88,"Control3",1,2,3,1,863,171
"876",5,148,"Control3",1,2,2,0,652,172
"877",5,25,"Control3",1,2,3,1,830,173
"878",5,136,"Control3",1,2,3,0,912,174
"879",5,172,"Control3",1,2,3,0,945,175
"880",5,147,"Control3",1,2,1,0,683,176
"881",6,90,"Warning2",1,1,2,0,4948,1
"882",6,44,"Warning2",1,1,5,1,2096,2
"883",6,11,"Warning2",1,1,6,1,852,3
"884",6,116,"Warning2",1,1,3,0,2880,4
"885",6,122,"Warning2",1,1,3,0,1441,5
"886",6,23,"Warning2",1,1,5,1,2275,6
"887",6,123,"Warning2",1,1,6,0,1113,7
"888",6,100,"Warning2",1,1,4,0,1553,8
"889",6,17,"Warning2",1,1,3,1,1183,9
"890",6,21,"Warning2",1,1,4,1,894,10
"891",6,35,"Warning2",1,1,5,1,1075,11
"892",6,46,"Warning2",1,1,5,1,1298,12
"893",6,101,"Warning2",1,1,3,0,2551,13
"894",6,13,"Warning2",1,1,1,1,1845,14
"895",6,92,"Warning2",1,1,4,0,2814,15
"896",6,30,"Warning2",1,1,3,1,2970,16
"897",6,115,"Warning2",1,1,6,0,922,17
"898",6,45,"Warning2",1,1,3,1,1492,18
"899",6,117,"Warning2",1,1,4,0,2208,19
"900",6,103,"Warning2",1,1,5,0,2713,20
"901",6,19,"Warning2",1,1,4,1,1935,21
"902",6,125,"Warning2",1,1,5,0,722,22
"903",6,36,"Warning2",1,1,6,1,829,23
"904",6,111,"Warning2",1,1,4,0,1196,24
"905",6,39,"Warning2",1,1,5,1,814,25
"906",6,2,"Warning2",1,1,6,1,699,26
"907",6,110,"Warning2",1,1,4,0,1176,27
"908",6,95,"Warning2",1,1,5,0,1756,28
"909",6,113,"Warning2",1,1,4,0,845,29
"910",6,29,"Warning2",1,1,3,1,2944,30
"911",6,77,"Warning2",1,1,6,1,813,31
"912",6,107,"Warning2",1,1,6,0,1074,32
"913",6,28,"Warning2",1,1,2,1,1578,33
"914",6,58,"Warning2",1,1,5,1,1590,34
"915",6,54,"Warning2",1,1,4,1,1661,35
"916",6,91,"Warning2",1,1,5,0,1449,36
"917",6,18,"Warning2",1,1,2,1,698,37
"918",6,112,"Warning2",1,1,4,0,2823,38
"919",6,132,"Warning2",1,1,5,0,1013,39
"920",6,14,"Warning2",1,1,4,1,1634,40
"921",6,118,"Warning2",1,1,5,0,2416,41
"922",6,49,"Warning2",1,1,1,1,2148,42
"923",6,114,"Warning2",1,1,4,0,1418,43
"924",6,74,"Warning2",1,1,5,1,1151,44
"925",6,97,"Warning2",1,1,5,0,1318,45
"926",6,61,"Warning2",1,1,4,1,2488,46
"927",6,94,"Warning2",1,1,2,0,2089,47
"928",6,108,"Warning2",1,1,4,0,665,48
"929",6,99,"Warning2",1,1,3,0,1257,49
"930",6,109,"Warning2",1,1,4,0,941,50
"931",6,3,"Warning2",1,1,3,1,2010,51
"932",6,87,"Warning2",1,1,6,1,766,52
"933",6,119,"Warning2",1,1,2,0,1288,53
"934",6,130,"Warning2",1,1,5,0,1826,54
"935",6,120,"Warning2",1,1,4,0,2873,55
"936",6,60,"Warning2",1,1,5,1,1967,56
"937",6,131,"Warning2",1,1,4,0,3656,57
"938",6,32,"Warning2",1,1,4,1,898,58
"939",6,50,"Warning2",1,1,3,1,927,59
"940",6,22,"Warning2",1,1,5,1,1129,60
"941",6,106,"Warning2",1,1,5,0,2077,61
"942",6,53,"Warning2",1,1,2,1,3638,62
"943",6,126,"Warning2",1,1,4,0,2719,63
"944",6,127,"Warning2",1,1,4,0,1903,64
"945",6,121,"Warning2",1,1,4,0,4958,65
"946",6,80,"Warning2",1,1,4,1,1457,66
"947",6,93,"Warning2",1,1,2,0,2110,67
"948",6,38,"Warning2",1,1,4,1,2613,68
"949",6,27,"Warning2",1,1,3,1,1320,69
"950",6,48,"Warning2",1,1,3,1,978,70
"951",6,129,"Warning2",1,1,5,0,1438,71
"952",6,56,"Warning2",1,1,2,1,3120,72
"953",6,98,"Warning2",1,1,4,0,2136,73
"954",6,9,"Warning2",1,1,5,1,2524,74
"955",6,81,"Warning2",1,1,3,1,1181,75
"956",6,68,"Warning2",1,1,2,1,881,76
"957",6,43,"Warning2",1,1,4,1,851,77
"958",6,105,"Warning2",1,1,2,0,3264,78
"959",6,124,"Warning2",1,1,3,0,765,79
"960",6,128,"Warning2",1,1,3,0,2328,80
"961",6,16,"Warning2",1,1,5,1,1472,81
"962",6,89,"Warning2",1,1,6,0,863,82
"963",6,26,"Warning2",1,1,6,1,1495,83
"964",6,78,"Warning2",1,1,5,1,843,84
"965",6,82,"Warning2",1,1,6,1,933,85
"966",6,96,"Warning2",1,1,6,0,1106,86
"967",6,104,"Warning2",1,1,4,0,1601,87
"968",6,102,"Warning2",1,1,5,0,1299,88
"969",6,34,"Warning3",1,1,4,1,2484,89
"970",6,147,"Warning3",1,1,3,0,1170,90
"971",6,153,"Warning3",1,1,4,0,2842,91
"972",6,47,"Warning3",1,1,5,1,3207,92
"973",6,8,"Warning3",1,1,5,1,1358,93
"974",6,55,"Warning3",1,1,4,1,1681,94
"975",6,137,"Warning3",1,1,6,0,1127,95
"976",6,152,"Warning3",1,1,6,0,2894,96
"977",6,15,"Warning3",1,1,2,1,1345,97
"978",6,85,"Warning3",1,1,6,1,870,98
"979",6,151,"Warning3",1,1,4,0,1583,99
"980",6,168,"Warning3",1,1,5,0,2317,100
"981",6,88,"Warning3",1,1,5,1,1619,101
"982",6,158,"Warning3",1,1,6,0,860,102
"983",6,84,"Warning3",1,1,5,1,1485,103
"984",6,164,"Warning3",1,1,3,0,1995,104
"985",6,12,"Warning3",1,1,6,1,1677,105
"986",6,76,"Warning3",1,1,4,1,2628,106
"987",6,141,"Warning3",1,1,3,0,1663,107
"988",6,163,"Warning3",1,1,2,0,3488,108
"989",6,7,"Warning3",1,1,4,1,7066,109
"990",6,66,"Warning3",1,1,5,1,1366,110
"991",6,136,"Warning3",1,1,5,0,1846,111
"992",6,6,"Warning3",1,1,5,1,2015,112
"993",6,10,"Warning3",1,1,6,1,1560,113
"994",6,167,"Warning3",1,1,4,0,2079,114
"995",6,72,"Warning3",1,1,5,1,1759,115
"996",6,160,"Warning3",1,1,6,0,789,116
"997",6,159,"Warning3",1,1,3,0,3393,117
"998",6,40,"Warning3",1,1,6,1,2016,118
"999",6,135,"Warning3",1,1,2,0,6743,119
"1000",6,156,"Warning3",1,1,3,0,1761,120
"1001",6,171,"Warning3",1,1,5,0,1848,121
"1002",6,67,"Warning3",1,1,1,1,2100,122
"1003",6,25,"Warning3",1,1,6,1,1798,123
"1004",6,79,"Warning3",1,1,1,1,1678,124
"1005",6,170,"Warning3",1,1,4,0,2776,125
"1006",6,146,"Warning3",1,1,5,0,3499,126
"1007",6,51,"Warning3",1,1,5,1,1928,127
"1008",6,83,"Warning3",1,1,3,1,1993,128
"1009",6,5,"Warning3",1,1,6,1,1200,129
"1010",6,138,"Warning3",1,1,3,0,1881,130
"1011",6,169,"Warning3",1,1,5,0,2031,131
"1012",6,24,"Warning3",1,1,2,1,2453,132
"1013",6,173,"Warning3",1,1,5,0,1710,133
"1014",6,155,"Warning3",1,1,5,0,1047,134
"1015",6,70,"Warning3",1,1,2,1,1432,135
"1016",6,41,"Warning3",1,1,6,1,1014,136
"1017",6,166,"Warning3",1,1,6,0,1420,137
"1018",6,37,"Warning3",1,1,4,1,3033,138
"1019",6,157,"Warning3",1,1,5,0,998,139
"1020",6,144,"Warning3",1,1,5,0,965,140
"1021",6,150,"Warning3",1,1,5,0,1410,141
"1022",6,20,"Warning3",1,1,6,1,1192,142
"1023",6,65,"Warning3",1,1,5,1,1585,143
"1024",6,140,"Warning3",1,1,4,0,3056,144
"1025",6,1,"Warning3",1,1,6,1,864,145
"1026",6,59,"Warning3",1,1,4,1,1903,146
"1027",6,165,"Warning3",1,1,4,0,1260,147
"1028",6,148,"Warning3",1,1,6,0,1551,148
"1029",6,145,"Warning3",1,1,6,0,1376,149
"1030",6,64,"Warning3",1,1,5,1,787,150
"1031",6,172,"Warning3",1,1,5,0,3592,151
"1032",6,174,"Warning3",1,1,2,0,4497,152
"1033",6,57,"Warning3",1,1,5,1,1686,153
"1034",6,143,"Warning3",1,1,5,0,1025,154
"1035",6,33,"Warning3",1,1,4,1,1030,155
"1036",6,139,"Warning3",1,1,5,0,942,156
"1037",6,154,"Warning3",1,1,2,0,4063,157
"1038",6,42,"Warning3",1,1,6,1,811,158
"1039",6,71,"Warning3",1,1,5,1,2201,159
"1040",6,63,"Warning3",1,1,4,1,920,160
"1041",6,69,"Warning3",1,1,4,1,2867,161
"1042",6,176,"Warning3",1,1,1,0,2401,162
"1043",6,86,"Warning3",1,1,5,1,2353,163
"1044",6,175,"Warning3",1,1,6,0,2816,164
"1045",6,142,"Warning3",1,1,6,0,2919,165
"1046",6,133,"Warning3",1,1,3,0,846,166
"1047",6,149,"Warning3",1,1,4,0,5129,167
"1048",6,161,"Warning3",1,1,6,0,3394,168
"1049",6,75,"Warning3",1,1,5,1,810,169
"1050",6,31,"Warning3",1,1,5,1,839,170
"1051",6,4,"Warning3",1,1,5,1,1657,171
"1052",6,134,"Warning3",1,1,4,0,3280,172
"1053",6,162,"Warning3",1,1,3,0,725,173
"1054",6,62,"Warning3",1,1,4,1,988,174
"1055",6,73,"Warning3",1,1,4,1,716,175
"1056",6,52,"Warning3",1,1,2,1,3342,176
"1057",7,159,"Control2",1,2,3,0,3330,1
"1058",7,150,"Control2",1,2,4,0,1132,2
"1059",7,9,"Control2",1,2,2,1,3146,3
"1060",7,154,"Control2",1,2,4,0,3311,4
"1061",7,60,"Control2",1,2,5,1,2532,5
"1062",7,49,"Control2",1,2,3,1,1863,6
"1063",7,168,"Control2",1,2,4,0,5247,7
"1064",7,152,"Control2",1,2,4,0,6926,8
"1065",7,170,"Control2",1,2,2,0,1242,9
"1066",7,167,"Control2",1,2,4,0,756,10
"1067",7,172,"Control2",1,2,3,0,1942,11
"1068",7,43,"Control2",1,2,5,1,1914,12
"1069",7,153,"Control2",1,2,4,0,4904,13
"1070",7,163,"Control2",1,2,3,0,1882,14
"1071",7,36,"Control2",1,2,5,1,1219,15
"1072",7,26,"Control2",1,2,2,1,1068,16
"1073",7,61,"Control2",1,2,1,1,2827,17
"1074",7,74,"Control2",1,2,4,1,2041,18
"1075",7,14,"Control2",1,2,5,1,690,19
"1076",7,140,"Control2",1,2,3,0,2199,20
"1077",7,30,"Control2",1,2,4,1,1176,21
"1078",7,138,"Control2",1,2,4,0,4685,22
"1079",7,18,"Control2",1,2,2,1,780,23
"1080",7,133,"Control2",1,2,3,0,1377,24
"1081",7,45,"Control2",1,2,3,1,3445,25
"1082",7,56,"Control2",1,2,3,1,700,26
"1083",7,166,"Control2",1,2,4,0,2602,27
"1084",7,146,"Control2",1,2,5,0,1922,28
"1085",7,58,"Control2",1,2,5,1,1155,29
"1086",7,135,"Control2",1,2,4,0,1370,30
"1087",7,19,"Control2",1,2,4,1,2711,31
"1088",7,22,"Control2",1,2,5,1,868,32
"1089",7,174,"Control2",1,2,5,0,804,33
"1090",7,16,"Control2",1,2,4,1,726,34
"1091",7,17,"Control2",1,2,3,1,1072,35
"1092",7,80,"Control2",1,2,4,1,1031,36
"1093",7,145,"Control2",1,2,3,0,735,37
"1094",7,134,"Control2",1,2,3,0,859,38
"1095",7,176,"Control2",1,2,3,0,1256,39
"1096",7,164,"Control2",1,2,4,0,1845,40
"1097",7,29,"Control2",1,2,3,1,814,41
"1098",7,46,"Control2",1,2,2,1,1187,42
"1099",7,142,"Control2",1,2,3,0,2690,43
"1100",7,151,"Control2",1,2,3,0,1530,44
"1101",7,48,"Control2",1,2,5,1,614,45
"1102",7,160,"Control2",1,2,5,0,955,46
"1103",7,32,"Control2",1,2,3,1,517,47
"1104",7,54,"Control2",1,2,3,1,1920,48
"1105",7,173,"Control2",1,2,4,0,617,49
"1106",7,23,"Control2",1,2,4,1,902,50
"1107",7,53,"Control2",1,2,5,1,1013,51
"1108",7,136,"Control2",1,2,4,0,657,52
"1109",7,171,"Control2",1,2,3,0,4382,53
"1110",7,175,"Control2",1,2,4,0,992,54
"1111",7,77,"Control2",1,2,3,1,559,55
"1112",7,141,"Control2",1,2,5,0,1249,56
"1113",7,139,"Control2",1,2,4,0,702,57
"1114",7,27,"Control2",1,2,3,1,757,58
"1115",7,158,"Control2",1,2,2,0,1143,59
"1116",7,11,"Control2",1,2,4,1,1511,60
"1117",7,44,"Control2",1,2,4,1,1517,61
"1118",7,155,"Control2",1,2,3,0,623,62
"1119",7,38,"Control2",1,2,3,1,439,63
"1120",7,137,"Control2",1,2,3,0,4386,64
"1121",7,147,"Control2",1,2,5,0,1550,65
"1122",7,50,"Control2",1,2,4,1,997,66
"1123",7,21,"Control2",1,2,4,1,719,67
"1124",7,3,"Control2",1,2,3,1,801,68
"1125",7,149,"Control2",1,2,3,0,1083,69
"1126",7,78,"Control2",1,2,5,1,820,70
"1127",7,161,"Control2",1,2,4,0,10122,71
"1128",7,13,"Control2",1,2,2,1,905,72
"1129",7,68,"Control2",1,2,3,1,896,73
"1130",7,162,"Control2",1,2,3,0,973,74
"1131",7,82,"Control2",1,2,4,1,905,75
"1132",7,2,"Control2",1,2,4,1,657,76
"1133",7,156,"Control2",1,2,3,0,1350,77
"1134",7,35,"Control2",1,2,2,1,2957,78
"1135",7,143,"Control2",1,2,3,0,1045,79
"1136",7,144,"Control2",1,2,4,0,2704,80
"1137",7,169,"Control2",1,2,5,0,2766,81
"1138",7,28,"Control2",1,2,2,1,1022,82
"1139",7,157,"Control2",1,2,3,0,578,83
"1140",7,165,"Control2",1,2,3,0,2223,84
"1141",7,148,"Control2",1,2,3,0,1774,85
"1142",7,39,"Control2",1,2,4,1,1090,86
"1143",7,81,"Control2",1,2,4,1,1182,87
"1144",7,87,"Control2",1,2,4,1,709,88
"1145",7,33,"Control3",1,2,3,1,1121,89
"1146",7,91,"Control3",1,2,3,0,2532,90
"1147",7,71,"Control3",1,2,4,1,2285,91
"1148",7,47,"Control3",1,2,2,1,1608,92
"1149",7,112,"Control3",1,2,3,0,1089,93
"1150",7,123,"Control3",1,2,2,0,987,94
"1151",7,84,"Control3",1,2,2,1,3652,95
"1152",7,116,"Control3",1,2,2,0,1195,96
"1153",7,37,"Control3",1,2,5,1,1720,97
"1154",7,102,"Control3",1,2,3,0,1416,98
"1155",7,34,"Control3",1,2,4,1,1652,99
"1156",7,98,"Control3",1,2,3,0,664,100
"1157",7,110,"Control3",1,2,3,0,2403,101
"1158",7,101,"Control3",1,2,4,0,1328,102
"1159",7,107,"Control3",1,2,4,0,647,103
"1160",7,126,"Control3",1,2,3,0,1608,104
"1161",7,113,"Control3",1,2,4,0,4444,105
"1162",7,130,"Control3",1,2,4,0,1199,106
"1163",7,57,"Control3",1,2,4,1,1486,107
"1164",7,105,"Control3",1,2,5,0,800,108
"1165",7,131,"Control3",1,2,3,0,3913,109
"1166",7,118,"Control3",1,2,3,0,2375,110
"1167",7,114,"Control3",1,2,3,0,2023,111
"1168",7,15,"Control3",1,2,4,1,704,112
"1169",7,12,"Control3",1,2,3,1,1106,113
"1170",7,8,"Control3",1,2,2,1,801,114
"1171",7,100,"Control3",1,2,4,0,1011,115
"1172",7,75,"Control3",1,2,4,1,806,116
"1173",7,108,"Control3",1,2,4,0,3529,117
"1174",7,59,"Control3",1,2,4,1,1487,118
"1175",7,85,"Control3",1,2,2,1,1330,119
"1176",7,94,"Control3",1,2,3,0,822,120
"1177",7,109,"Control3",1,2,3,0,561,121
"1178",7,83,"Control3",1,2,3,1,548,122
"1179",7,63,"Control3",1,2,4,1,1023,123
"1180",7,65,"Control3",1,2,4,1,1150,124
"1181",7,89,"Control3",1,2,4,0,825,125
"1182",7,111,"Control3",1,2,3,0,1077,126
"1183",7,79,"Control3",1,2,2,1,1321,127
"1184",7,1,"Control3",1,2,4,1,2095,128
"1185",7,52,"Control3",1,2,3,1,1251,129
"1186",7,40,"Control3",1,2,4,1,3652,130
"1187",7,93,"Control3",1,2,2,0,1800,131
"1188",7,124,"Control3",1,2,4,0,572,132
"1189",7,51,"Control3",1,2,4,1,1629,133
"1190",7,55,"Control3",1,2,3,1,3386,134
"1191",7,115,"Control3",1,2,3,0,3873,135
"1192",7,121,"Control3",1,2,4,0,897,136
"1193",7,127,"Control3",1,2,3,0,2455,137
"1194",7,95,"Control3",1,2,2,0,1738,138
"1195",7,104,"Control3",1,2,5,0,859,139
"1196",7,5,"Control3",1,2,4,1,1086,140
"1197",7,4,"Control3",1,2,3,1,550,141
"1198",7,132,"Control3",1,2,3,0,2053,142
"1199",7,90,"Control3",1,2,4,0,606,143
"1200",7,129,"Control3",1,2,3,0,1574,144
"1201",7,62,"Control3",1,2,3,1,1392,145
"1202",7,96,"Control3",1,2,3,0,3198,146
"1203",7,72,"Control3",1,2,4,1,1931,147
"1204",7,7,"Control3",1,2,3,1,3542,148
"1205",7,106,"Control3",1,2,3,0,1092,149
"1206",7,70,"Control3",1,2,3,1,1168,150
"1207",7,67,"Control3",1,2,4,1,1816,151
"1208",7,66,"Control3",1,2,3,1,2403,152
"1209",7,41,"Control3",1,2,4,1,2627,153
"1210",7,128,"Control3",1,2,5,0,1618,154
"1211",7,119,"Control3",1,2,3,0,1171,155
"1212",7,31,"Control3",1,2,3,1,841,156
"1213",7,86,"Control3",1,2,1,1,2257,157
"1214",7,25,"Control3",1,2,4,1,741,158
"1215",7,88,"Control3",1,2,3,1,473,159
"1216",7,125,"Control3",1,2,3,0,1526,160
"1217",7,73,"Control3",1,2,3,1,1186,161
"1218",7,97,"Control3",1,2,3,0,956,162
"1219",7,120,"Control3",1,2,2,0,717,163
"1220",7,42,"Control3",1,2,5,1,1074,164
"1221",7,103,"Control3",1,2,2,0,673,165
"1222",7,92,"Control3",1,2,3,0,692,166
"1223",7,10,"Control3",1,2,4,1,1741,167
"1224",7,6,"Control3",1,2,5,1,1403,168
"1225",7,20,"Control3",1,2,3,1,1069,169
"1226",7,64,"Control3",1,2,3,1,1120,170
"1227",7,24,"Control3",1,2,3,1,3099,171
"1228",7,76,"Control3",1,2,3,1,2330,172
"1229",7,69,"Control3",1,2,5,1,480,173
"1230",7,122,"Control3",1,2,3,0,448,174
"1231",7,99,"Control3",1,2,3,0,2118,175
"1232",7,117,"Control3",1,2,2,0,473,176
"1233",8,21,"Warning2",1,1,4,1,2900,1
"1234",8,29,"Warning2",1,1,2,1,3415,2
"1235",8,147,"Warning2",1,1,2,0,1409,3
"1236",8,143,"Warning2",1,1,4,0,2733,4
"1237",8,169,"Warning2",1,1,5,0,2272,5
"1238",8,16,"Warning2",1,1,3,1,2415,6
"1239",8,152,"Warning2",1,1,5,0,1018,7
"1240",8,78,"Warning2",1,1,5,1,1407,8
"1241",8,146,"Warning2",1,1,6,0,1033,9
"1242",8,9,"Warning2",1,1,5,1,1000,10
"1243",8,18,"Warning2",1,1,1,1,994,11
"1244",8,74,"Warning2",1,1,3,1,769,12
"1245",8,167,"Warning2",1,1,3,0,790,13
"1246",8,17,"Warning2",1,1,4,1,2822,14
"1247",8,168,"Warning2",1,1,5,0,3249,15
"1248",8,150,"Warning2",1,1,4,0,2697,16
"1249",8,153,"Warning2",1,1,4,0,1940,17
"1250",8,176,"Warning2",1,1,5,0,880,18
"1251",8,38,"Warning2",1,1,5,1,633,19
"1252",8,161,"Warning2",1,1,4,0,4146,20
"1253",8,145,"Warning2",1,1,5,0,1174,21
"1254",8,28,"Warning2",1,1,2,1,971,22
"1255",8,2,"Warning2",1,1,5,1,1232,23
"1256",8,27,"Warning2",1,1,2,1,783,24
"1257",8,50,"Warning2",1,1,5,1,1334,25
"1258",8,149,"Warning2",1,1,2,0,810,26
"1259",8,82,"Warning2",1,1,5,1,615,27
"1260",8,174,"Warning2",1,1,2,0,884,28
"1261",8,154,"Warning2",1,1,4,0,886,29
"1262",8,136,"Warning2",1,1,2,0,2416,30
"1263",8,175,"Warning2",1,1,5,0,1332,31
"1264",8,173,"Warning2",1,1,3,0,744,32
"1265",8,155,"Warning2",1,1,5,0,800,33
"1266",8,32,"Warning2",1,1,4,1,2202,34
"1267",8,156,"Warning2",1,1,4,0,3700,35
"1268",8,56,"Warning2",1,1,5,1,814,36
"1269",8,148,"Warning2",1,1,4,0,1507,37
"1270",8,80,"Warning2",1,1,2,1,1337,38
"1271",8,142,"Warning2",1,1,5,0,1222,39
"1272",8,11,"Warning2",1,1,6,1,2546,40
"1273",8,36,"Warning2",1,1,5,1,1416,41
"1274",8,54,"Warning2",1,1,5,1,2188,42
"1275",8,162,"Warning2",1,1,3,0,3114,43
"1276",8,43,"Warning2",1,1,5,1,2457,44
"1277",8,87,"Warning2",1,1,3,1,676,45
"1278",8,3,"Warning2",1,1,6,1,893,46
"1279",8,22,"Warning2",1,1,3,1,1195,47
"1280",8,77,"Warning2",1,1,6,1,682,48
"1281",8,45,"Warning2",1,1,2,1,1276,49
"1282",8,61,"Warning2",1,1,2,1,910,50
"1283",8,23,"Warning2",1,1,4,1,1222,51
"1284",8,164,"Warning2",1,1,3,0,1730,52
"1285",8,139,"Warning2",1,1,1,0,1166,53
"1286",8,13,"Warning2",1,1,3,1,968,54
"1287",8,44,"Warning2",1,1,4,1,722,55
"1288",8,133,"Warning2",1,1,2,0,820,56
"1289",8,48,"Warning2",1,1,5,1,1009,57
"1290",8,159,"Warning2",1,1,4,0,2997,58
"1291",8,60,"Warning2",1,1,4,1,814,59
"1292",8,81,"Warning2",1,1,1,1,842,60
"1293",8,134,"Warning2",1,1,4,0,3836,61
"1294",8,138,"Warning2",1,1,4,0,1353,62
"1295",8,141,"Warning2",1,1,3,0,808,63
"1296",8,137,"Warning2",1,1,4,0,1165,64
"1297",8,144,"Warning2",1,1,5,0,775,65
"1298",8,151,"Warning2",1,1,5,0,836,66
"1299",8,160,"Warning2",1,1,5,0,838,67
"1300",8,14,"Warning2",1,1,3,1,944,68
"1301",8,135,"Warning2",1,1,2,0,815,69
"1302",8,166,"Warning2",1,1,4,0,932,70
"1303",8,19,"Warning2",1,1,3,1,1113,71
"1304",8,157,"Warning2",1,1,3,0,1624,72
"1305",8,58,"Warning2",1,1,4,1,759,73
"1306",8,163,"Warning2",1,1,4,0,2554,74
"1307",8,49,"Warning2",1,1,4,1,816,75
"1308",8,46,"Warning2",1,1,2,1,948,76
"1309",8,165,"Warning2",1,1,4,0,1916,77
"1310",8,26,"Warning2",1,1,3,1,1362,78
"1311",8,53,"Warning2",1,1,5,1,692,79
"1312",8,39,"Warning2",1,1,5,1,873,80
"1313",8,158,"Warning2",1,1,6,0,1240,81
"1314",8,172,"Warning2",1,1,4,0,1090,82
"1315",8,170,"Warning2",1,1,6,0,631,83
"1316",8,140,"Warning2",1,1,6,0,798,84
"1317",8,171,"Warning2",1,1,4,0,1168,85
"1318",8,68,"Warning2",1,1,3,1,650,86
"1319",8,35,"Warning2",1,1,3,1,1047,87
"1320",8,30,"Warning2",1,1,3,1,713,88
"1321",8,6,"Warning3",1,1,6,1,755,89
"1322",8,119,"Warning3",1,1,6,0,839,90
"1323",8,83,"Warning3",1,1,2,1,717,91
"1324",8,37,"Warning3",1,1,5,1,1111,92
"1325",8,51,"Warning3",1,1,3,1,825,93
"1326",8,79,"Warning3",1,1,6,1,1100,94
"1327",8,85,"Warning3",1,1,1,1,1160,95
"1328",8,62,"Warning3",1,1,4,1,831,96
"1329",8,106,"Warning3",1,1,3,0,3224,97
"1330",8,65,"Warning3",1,1,3,1,712,98
"1331",8,94,"Warning3",1,1,4,0,845,99
"1332",8,70,"Warning3",1,1,5,1,2111,100
"1333",8,10,"Warning3",1,1,3,1,2098,101
"1334",8,71,"Warning3",1,1,4,1,1584,102
"1335",8,52,"Warning3",1,1,2,1,2473,103
"1336",8,129,"Warning3",1,1,5,0,1586,104
"1337",8,130,"Warning3",1,1,3,0,4606,105
"1338",8,103,"Warning3",1,1,4,0,1727,106
"1339",8,107,"Warning3",1,1,6,0,3349,107
"1340",8,116,"Warning3",1,1,4,0,855,108
"1341",8,86,"Warning3",1,1,5,1,593,109
"1342",8,101,"Warning3",1,1,4,0,1016,110
"1343",8,120,"Warning3",1,1,1,0,1581,111
"1344",8,76,"Warning3",1,1,2,1,918,112
"1345",8,69,"Warning3",1,1,5,1,680,113
"1346",8,104,"Warning3",1,1,5,0,666,114
"1347",8,47,"Warning3",1,1,5,1,1807,115
"1348",8,113,"Warning3",1,1,4,0,1555,116
"1349",8,109,"Warning3",1,1,4,0,795,117
"1350",8,75,"Warning3",1,1,3,1,816,118
"1351",8,63,"Warning3",1,1,5,1,962,119
"1352",8,105,"Warning3",1,1,3,0,817,120
"1353",8,125,"Warning3",1,1,4,0,1456,121
"1354",8,5,"Warning3",1,1,4,1,903,122
"1355",8,64,"Warning3",1,1,6,1,1082,123
"1356",8,110,"Warning3",1,1,4,0,814,124
"1357",8,55,"Warning3",1,1,1,1,924,125
"1358",8,96,"Warning3",1,1,4,0,1056,126
"1359",8,59,"Warning3",1,1,5,1,879,127
"1360",8,100,"Warning3",1,1,5,0,1562,128
"1361",8,25,"Warning3",1,1,3,1,1627,129
"1362",8,111,"Warning3",1,1,4,0,1238,130
"1363",8,93,"Warning3",1,1,2,0,1340,131
"1364",8,115,"Warning3",1,1,5,0,628,132
"1365",8,1,"Warning3",1,1,5,1,742,133
"1366",8,57,"Warning3",1,1,3,1,1511,134
"1367",8,127,"Warning3",1,1,3,0,1284,135
"1368",8,4,"Warning3",1,1,4,1,1457,136
"1369",8,123,"Warning3",1,1,4,0,977,137
"1370",8,131,"Warning3",1,1,5,0,1784,138
"1371",8,98,"Warning3",1,1,3,0,927,139
"1372",8,121,"Warning3",1,1,5,0,576,140
"1373",8,40,"Warning3",1,1,5,1,1584,141
"1374",8,73,"Warning3",1,1,4,1,1594,142
"1375",8,8,"Warning3",1,1,5,1,781,143
"1376",8,24,"Warning3",1,1,6,1,1395,144
"1377",8,7,"Warning3",1,1,4,1,929,145
"1378",8,99,"Warning3",1,1,3,0,1383,146
"1379",8,92,"Warning3",1,1,3,0,1550,147
"1380",8,124,"Warning3",1,1,4,0,919,148
"1381",8,66,"Warning3",1,1,3,1,1854,149
"1382",8,67,"Warning3",1,1,3,1,1459,150
"1383",8,118,"Warning3",1,1,4,0,1745,151
"1384",8,90,"Warning3",1,1,4,0,4090,152
"1385",8,132,"Warning3",1,1,4,0,548,153
"1386",8,97,"Warning3",1,1,2,0,1422,154
"1387",8,126,"Warning3",1,1,2,0,1093,155
"1388",8,31,"Warning3",1,1,5,1,1001,156
"1389",8,84,"Warning3",1,1,5,1,638,157
"1390",8,95,"Warning3",1,1,4,0,2496,158
"1391",8,72,"Warning3",1,1,6,1,1533,159
"1392",8,20,"Warning3",1,1,5,1,751,160
"1393",8,117,"Warning3",1,1,4,0,976,161
"1394",8,112,"Warning3",1,1,3,0,552,162
"1395",8,91,"Warning3",1,1,4,0,868,163
"1396",8,102,"Warning3",1,1,4,0,1956,164
"1397",8,34,"Warning3",1,1,5,1,1049,165
"1398",8,114,"Warning3",1,1,4,0,6478,166
"1399",8,12,"Warning3",1,1,4,1,645,167
"1400",8,41,"Warning3",1,1,5,1,551,168
"1401",8,15,"Warning3",1,1,4,1,1802,169
"1402",8,122,"Warning3",1,1,4,0,1697,170
"1403",8,128,"Warning3",1,1,5,0,1265,171
"1404",8,108,"Warning3",1,1,4,0,961,172
"1405",8,88,"Warning3",1,1,3,1,1061,173
"1406",8,89,"Warning3",1,1,4,0,1185,174
"1407",8,33,"Warning3",1,1,3,1,3934,175
"1408",8,42,"Warning3",1,1,5,1,662,176
"1409",9,55,"Control2",1,2,3,0,2313,1
"1410",9,90,"Control2",1,2,4,1,2727,2
"1411",9,67,"Control2",1,2,4,0,1983,3
"1412",9,118,"Control2",1,2,6,1,846,4
"1413",9,116,"Control2",1,2,4,1,1232,5
"1414",9,1,"Control2",1,2,4,0,1527,6
"1415",9,100,"Control2",1,2,5,1,616,7
"1416",9,117,"Control2",1,2,5,1,1437,8
"1417",9,123,"Control2",1,2,5,1,887,9
"1418",9,85,"Control2",1,2,3,0,1401,10
"1419",9,107,"Control2",1,2,4,1,723,11
"1420",9,62,"Control2",1,2,4,0,845,12
"1421",9,91,"Control2",1,2,5,1,543,13
"1422",9,94,"Control2",1,2,4,1,631,14
"1423",9,131,"Control2",1,2,3,1,646,15
"1424",9,126,"Control2",1,2,3,1,817,16
"1425",9,97,"Control2",1,2,4,1,542,17
"1426",9,63,"Control2",1,2,4,0,965,18
"1427",9,106,"Control2",1,2,4,1,423,19
"1428",9,115,"Control2",1,2,4,1,479,20
"1429",9,105,"Control2",1,2,6,1,1066,21
"1430",9,57,"Control2",1,2,4,0,521,22
"1431",9,25,"Control2",1,2,4,0,483,23
"1432",9,76,"Control2",1,2,4,0,2606,24
"1433",9,31,"Control2",1,2,3,0,1270,25
"1434",9,70,"Control2",1,2,3,0,893,26
"1435",9,92,"Control2",1,2,5,1,2554,27
"1436",9,73,"Control2",1,2,5,0,680,28
"1437",9,96,"Control2",1,2,5,1,1554,29
"1438",9,125,"Control2",1,2,5,1,681,30
"1439",9,84,"Control2",1,2,4,0,1227,31
"1440",9,95,"Control2",1,2,3,1,1498,32
"1441",9,130,"Control2",1,2,4,1,734,33
"1442",9,71,"Control2",1,2,3,0,1091,34
"1443",9,4,"Control2",1,2,4,0,504,35
"1444",9,101,"Control2",1,2,5,1,2792,36
"1445",9,109,"Control2",1,2,3,1,4462,37
"1446",9,37,"Control2",1,2,5,0,1832,38
"1447",9,79,"Control2",1,2,2,0,3590,39
"1448",9,20,"Control2",1,2,4,0,1003,40
"1449",9,114,"Control2",1,2,4,1,1013,41
"1450",9,34,"Control2",1,2,5,0,1579,42
"1451",9,75,"Control2",1,2,5,0,582,43
"1452",9,72,"Control2",1,2,4,0,1662,44
"1453",9,120,"Control2",1,2,2,1,1762,45
"1454",9,108,"Control2",1,2,3,1,2748,46
"1455",9,122,"Control2",1,2,4,1,425,47
"1456",9,15,"Control2",1,2,3,0,1121,48
"1457",9,7,"Control2",1,2,5,0,1771,49
"1458",9,127,"Control2",1,2,4,1,1975,50
"1459",9,112,"Control2",1,2,3,1,1299,51
"1460",9,93,"Control2",1,2,4,1,775,52
"1461",9,98,"Control2",1,2,4,1,524,53
"1462",9,83,"Control2",1,2,4,0,1638,54
"1463",9,132,"Control2",1,2,4,1,456,55
"1464",9,99,"Control2",1,2,3,1,581,56
"1465",9,110,"Control2",1,2,4,1,1162,57
"1466",9,51,"Control2",1,2,5,0,2292,58
"1467",9,41,"Control2",1,2,3,0,2031,59
"1468",9,69,"Control2",1,2,3,0,739,60
"1469",9,86,"Control2",1,2,3,0,1032,61
"1470",9,24,"Control2",1,2,5,0,3248,62
"1471",9,124,"Control2",1,2,4,1,1343,63
"1472",9,10,"Control2",1,2,4,0,1846,64
"1473",9,5,"Control2",1,2,4,0,448,65
"1474",9,6,"Control2",1,2,5,0,2226,66
"1475",9,12,"Control2",1,2,4,0,1648,67
"1476",9,88,"Control2",1,2,5,0,466,68
"1477",9,128,"Control2",1,2,6,1,1361,69
"1478",9,113,"Control2",1,2,5,1,1091,70
"1479",9,65,"Control2",1,2,4,0,656,71
"1480",9,89,"Control2",1,2,4,1,501,72
"1481",9,104,"Control2",1,2,4,1,866,73
"1482",9,103,"Control2",1,2,3,1,1481,74
"1483",9,52,"Control2",1,2,3,0,1779,75
"1484",9,47,"Control2",1,2,6,0,662,76
"1485",9,42,"Control2",1,2,3,0,1679,77
"1486",9,33,"Control2",1,2,4,0,664,78
"1487",9,8,"Control2",1,2,5,0,527,79
"1488",9,119,"Control2",1,2,5,1,609,80
"1489",9,66,"Control2",1,2,3,0,1590,81
"1490",9,40,"Control2",1,2,4,0,1125,82
"1491",9,64,"Control2",1,2,5,0,1207,83
"1492",9,102,"Control2",1,2,4,1,729,84
"1493",9,121,"Control2",1,2,4,1,4031,85
"1494",9,111,"Control2",1,2,5,1,403,86
"1495",9,129,"Control2",1,2,6,1,862,87
"1496",9,59,"Control2",1,2,3,0,1011,88
"1497",9,30,"Control3",1,2,4,0,1909,89
"1498",9,149,"Control3",1,2,4,1,2052,90
"1499",9,26,"Control3",1,2,5,0,1436,91
"1500",9,61,"Control3",1,2,4,0,834,92
"1501",9,2,"Control3",1,2,4,0,1862,93
"1502",9,151,"Control3",1,2,4,1,2025,94
"1503",9,139,"Control3",1,2,5,1,1614,95
"1504",9,48,"Control3",1,2,4,0,1331,96
"1505",9,143,"Control3",1,2,3,1,753,97
"1506",9,45,"Control3",1,2,5,0,759,98
"1507",9,164,"Control3",1,2,5,1,1302,99
"1508",9,156,"Control3",1,2,4,1,2544,100
"1509",9,148,"Control3",1,2,4,1,4028,101
"1510",9,138,"Control3",1,2,3,1,1135,102
"1511",9,142,"Control3",1,2,5,1,1263,103
"1512",9,16,"Control3",1,2,3,0,1010,104
"1513",9,171,"Control3",1,2,5,1,2951,105
"1514",9,46,"Control3",1,2,3,0,2298,106
"1515",9,161,"Control3",1,2,4,1,1411,107
"1516",9,13,"Control3",1,2,4,0,2463,108
"1517",9,146,"Control3",1,2,4,1,4168,109
"1518",9,19,"Control3",1,2,5,0,2064,110
"1519",9,165,"Control3",1,2,3,1,976,111
"1520",9,160,"Control3",1,2,4,1,2112,112
"1521",9,144,"Control3",1,2,5,1,747,113
"1522",9,77,"Control3",1,2,3,0,692,114
"1523",9,159,"Control3",1,2,3,1,4071,115
"1524",9,135,"Control3",1,2,4,1,457,116
"1525",9,21,"Control3",1,2,3,0,2262,117
"1526",9,53,"Control3",1,2,3,0,3274,118
"1527",9,29,"Control3",1,2,4,0,1051,119
"1528",9,78,"Control3",1,2,4,0,2408,120
"1529",9,49,"Control3",1,2,2,0,764,121
"1530",9,56,"Control3",1,2,3,0,4507,122
"1531",9,54,"Control3",1,2,4,0,826,123
"1532",9,154,"Control3",1,2,4,1,1218,124
"1533",9,173,"Control3",1,2,4,1,1038,125
"1534",9,140,"Control3",1,2,5,1,725,126
"1535",9,174,"Control3",1,2,4,1,1432,127
"1536",9,176,"Control3",1,2,3,1,630,128
"1537",9,17,"Control3",1,2,3,0,3782,129
"1538",9,172,"Control3",1,2,4,1,2691,130
"1539",9,168,"Control3",1,2,4,1,1217,131
"1540",9,60,"Control3",1,2,5,0,718,132
"1541",9,74,"Control3",1,2,4,0,1261,133
"1542",9,9,"Control3",1,2,5,0,3522,134
"1543",9,134,"Control3",1,2,4,1,807,135
"1544",9,163,"Control3",1,2,6,1,1063,136
"1545",9,81,"Control3",1,2,5,0,736,137
"1546",9,18,"Control3",1,2,4,0,2155,138
"1547",9,23,"Control3",1,2,4,0,486,139
"1548",9,36,"Control3",1,2,5,0,623,140
"1549",9,58,"Control3",1,2,5,0,590,141
"1550",9,167,"Control3",1,2,3,1,865,142
"1551",9,147,"Control3",1,2,3,1,1688,143
"1552",9,152,"Control3",1,2,4,1,1070,144
"1553",9,158,"Control3",1,2,4,1,3713,145
"1554",9,28,"Control3",1,2,3,0,697,146
"1555",9,136,"Control3",1,2,4,1,1464,147
"1556",9,166,"Control3",1,2,4,1,599,148
"1557",9,150,"Control3",1,2,5,1,1298,149
"1558",9,43,"Control3",1,2,4,0,1101,150
"1559",9,80,"Control3",1,2,4,0,1842,151
"1560",9,38,"Control3",1,2,4,0,775,152
"1561",9,68,"Control3",1,2,5,0,577,153
"1562",9,157,"Control3",1,2,4,1,906,154
"1563",9,170,"Control3",1,2,4,1,536,155
"1564",9,82,"Control3",1,2,4,0,1402,156
"1565",9,39,"Control3",1,2,4,0,1543,157
"1566",9,153,"Control3",1,2,4,1,2081,158
"1567",9,155,"Control3",1,2,4,1,504,159
"1568",9,162,"Control3",1,2,4,1,458,160
"1569",9,22,"Control3",1,2,4,0,565,161
"1570",9,137,"Control3",1,2,6,1,844,162
"1571",9,11,"Control3",1,2,5,0,1437,163
"1572",9,3,"Control3",1,2,3,0,1358,164
"1573",9,175,"Control3",1,2,4,1,846,165
"1574",9,87,"Control3",1,2,4,0,466,166
"1575",9,35,"Control3",1,2,5,0,770,167
"1576",9,27,"Control3",1,2,2,0,2560,168
"1577",9,133,"Control3",1,2,4,1,587,169
"1578",9,141,"Control3",1,2,5,1,641,170
"1579",9,145,"Control3",1,2,4,1,368,171
"1580",9,50,"Control3",1,2,4,0,1107,172
"1581",9,14,"Control3",1,2,3,0,565,173
"1582",9,44,"Control3",1,2,4,0,2098,174
"1583",9,32,"Control3",1,2,2,0,679,175
"1584",9,169,"Control3",1,2,4,1,2345,176
"1585",10,85,"Warning2",1,1,1,0,2236,1
"1586",10,132,"Warning2",1,1,5,1,1617,2
"1587",10,93,"Warning2",1,1,3,1,3404,3
"1588",10,59,"Warning2",1,1,4,0,1635,4
"1589",10,116,"Warning2",1,1,6,1,1193,5
"1590",10,55,"Warning2",1,1,2,0,959,6
"1591",10,95,"Warning2",1,1,4,1,1400,7
"1592",10,105,"Warning2",1,1,5,1,1168,8
"1593",10,65,"Warning2",1,1,3,0,2073,9
"1594",10,12,"Warning2",1,1,4,0,686,10
"1595",10,100,"Warning2",1,1,6,1,848,11
"1596",10,51,"Warning2",1,1,3,0,689,12
"1597",10,75,"Warning2",1,1,4,0,829,13
"1598",10,102,"Warning2",1,1,4,1,3187,14
"1599",10,20,"Warning2",1,1,3,0,2367,15
"1600",10,120,"Warning2",1,1,5,1,583,16
"1601",10,42,"Warning2",1,1,4,0,1686,17
"1602",10,91,"Warning2",1,1,6,1,998,18
"1603",10,122,"Warning2",1,1,6,1,815,19
"1604",10,5,"Warning2",1,1,4,0,2683,20
"1605",10,99,"Warning2",1,1,4,1,1610,21
"1606",10,69,"Warning2",1,1,3,0,2341,22
"1607",10,15,"Warning2",1,1,4,0,928,23
"1608",10,88,"Warning2",1,1,2,0,3481,24
"1609",10,37,"Warning2",1,1,3,0,1359,25
"1610",10,104,"Warning2",1,1,4,1,864,26
"1611",10,72,"Warning2",1,1,2,0,2495,27
"1612",10,33,"Warning2",1,1,4,0,1401,28
"1613",10,6,"Warning2",1,1,3,0,1561,29
"1614",10,25,"Warning2",1,1,4,0,906,30
"1615",10,113,"Warning2",1,1,4,1,912,31
"1616",10,47,"Warning2",1,1,3,0,647,32
"1617",10,84,"Warning2",1,1,4,0,1000,33
"1618",10,71,"Warning2",1,1,3,0,2305,34
"1619",10,8,"Warning2",1,1,2,0,1134,35
"1620",10,118,"Warning2",1,1,5,1,857,36
"1621",10,97,"Warning2",1,1,4,1,1333,37
"1622",10,96,"Warning2",1,1,4,1,2809,38
"1623",10,4,"Warning2",1,1,3,0,976,39
"1624",10,117,"Warning2",1,1,3,1,1027,40
"1625",10,83,"Warning2",1,1,3,0,730,41
"1626",10,108,"Warning2",1,1,5,1,878,42
"1627",10,98,"Warning2",1,1,4,1,599,43
"1628",10,66,"Warning2",1,1,4,0,768,44
"1629",10,86,"Warning2",1,1,4,0,2641,45
"1630",10,52,"Warning2",1,1,4,0,1609,46
"1631",10,90,"Warning2",1,1,5,1,785,47
"1632",10,64,"Warning2",1,1,5,0,872,48
"1633",10,119,"Warning2",1,1,4,1,2374,49
"1634",10,126,"Warning2",1,1,4,1,736,50
"1635",10,127,"Warning2",1,1,4,1,692,51
"1636",10,63,"Warning2",1,1,4,0,720,52
"1637",10,79,"Warning2",1,1,3,0,1265,53
"1638",10,67,"Warning2",1,1,2,0,679,54
"1639",10,76,"Warning2",1,1,3,0,2433,55
"1640",10,106,"Warning2",1,1,3,1,1126,56
"1641",10,128,"Warning2",1,1,4,1,1023,57
"1642",10,101,"Warning2",1,1,2,1,725,58
"1643",10,34,"Warning2",1,1,4,0,1262,59
"1644",10,41,"Warning2",1,1,4,0,561,60
"1645",10,40,"Warning2",1,1,4,0,1227,61
"1646",10,7,"Warning2",1,1,3,0,1425,62
"1647",10,92,"Warning2",1,1,4,1,1031,63
"1648",10,10,"Warning2",1,1,4,0,917,64
"1649",10,131,"Warning2",1,1,3,1,742,65
"1650",10,103,"Warning2",1,1,3,1,765,66
"1651",10,125,"Warning2",1,1,4,1,590,67
"1652",10,110,"Warning2",1,1,4,1,2589,68
"1653",10,124,"Warning2",1,1,5,1,1121,69
"1654",10,57,"Warning2",1,1,4,0,914,70
"1655",10,111,"Warning2",1,1,3,1,529,71
"1656",10,89,"Warning2",1,1,4,1,629,72
"1657",10,130,"Warning2",1,1,4,1,851,73
"1658",10,1,"Warning2",1,1,2,0,679,74
"1659",10,62,"Warning2",1,1,2,0,960,75
"1660",10,73,"Warning2",1,1,3,0,1001,76
"1661",10,31,"Warning2",1,1,5,0,626,77
"1662",10,107,"Warning2",1,1,6,1,689,78
"1663",10,109,"Warning2",1,1,4,1,533,79
"1664",10,129,"Warning2",1,1,3,1,673,80
"1665",10,114,"Warning2",1,1,4,1,744,81
"1666",10,70,"Warning2",1,1,2,0,630,82
"1667",10,94,"Warning2",1,1,3,1,781,83
"1668",10,112,"Warning2",1,1,4,1,657,84
"1669",10,121,"Warning2",1,1,3,1,1701,85
"1670",10,115,"Warning2",1,1,3,1,768,86
"1671",10,123,"Warning2",1,1,6,1,705,87
"1672",10,24,"Warning2",1,1,4,0,1263,88
"1673",10,26,"Warning3",1,1,4,0,1110,89
"1674",10,159,"Warning3",1,1,3,1,1330,90
"1675",10,13,"Warning3",1,1,4,0,2825,91
"1676",10,168,"Warning3",1,1,4,1,1039,92
"1677",10,9,"Warning3",1,1,3,0,1081,93
"1678",10,80,"Warning3",1,1,3,0,729,94
"1679",10,170,"Warning3",1,1,5,1,1311,95
"1680",10,166,"Warning3",1,1,4,1,1068,96
"1681",10,169,"Warning3",1,1,4,1,1543,97
"1682",10,3,"Warning3",1,1,3,0,818,98
"1683",10,150,"Warning3",1,1,3,1,925,99
"1684",10,172,"Warning3",1,1,4,1,1624,100
"1685",10,38,"Warning3",1,1,3,0,1053,101
"1686",10,156,"Warning3",1,1,2,1,673,102
"1687",10,30,"Warning3",1,1,4,0,1249,103
"1688",10,171,"Warning3",1,1,2,1,2054,104
"1689",10,17,"Warning3",1,1,3,0,1053,105
"1690",10,167,"Warning3",1,1,3,1,1362,106
"1691",10,27,"Warning3",1,1,3,0,2631,107
"1692",10,60,"Warning3",1,1,4,0,971,108
"1693",10,23,"Warning3",1,1,2,0,816,109
"1694",10,58,"Warning3",1,1,4,0,1104,110
"1695",10,78,"Warning3",1,1,4,0,7036,111
"1696",10,35,"Warning3",1,1,4,0,1100,112
"1697",10,39,"Warning3",1,1,3,0,1301,113
"1698",10,32,"Warning3",1,1,3,0,1880,114
"1699",10,141,"Warning3",1,1,4,1,1747,115
"1700",10,14,"Warning3",1,1,5,0,1153,116
"1701",10,135,"Warning3",1,1,2,1,598,117
"1702",10,157,"Warning3",1,1,4,1,2436,118
"1703",10,175,"Warning3",1,1,5,1,1347,119
"1704",10,173,"Warning3",1,1,4,1,1515,120
"1705",10,161,"Warning3",1,1,4,1,955,121
"1706",10,164,"Warning3",1,1,4,1,1502,122
"1707",10,176,"Warning3",1,1,4,1,703,123
"1708",10,158,"Warning3",1,1,3,1,588,124
"1709",10,11,"Warning3",1,1,4,0,773,125
"1710",10,143,"Warning3",1,1,3,1,913,126
"1711",10,144,"Warning3",1,1,3,1,628,127
"1712",10,154,"Warning3",1,1,4,1,2074,128
"1713",10,165,"Warning3",1,1,4,1,1148,129
"1714",10,136,"Warning3",1,1,3,1,807,130
"1715",10,16,"Warning3",1,1,2,0,1597,131
"1716",10,19,"Warning3",1,1,3,0,3621,132
"1717",10,61,"Warning3",1,1,3,0,1377,133
"1718",10,174,"Warning3",1,1,4,1,1481,134
"1719",10,68,"Warning3",1,1,4,0,1206,135
"1720",10,142,"Warning3",1,1,3,1,659,136
"1721",10,152,"Warning3",1,1,4,1,2191,137
"1722",10,18,"Warning3",1,1,3,0,691,138
"1723",10,146,"Warning3",1,1,3,1,1257,139
"1724",10,138,"Warning3",1,1,4,1,1061,140
"1725",10,46,"Warning3",1,1,2,0,1008,141
"1726",10,140,"Warning3",1,1,4,1,1406,142
"1727",10,151,"Warning3",1,1,3,1,1246,143
"1728",10,137,"Warning3",1,1,3,1,945,144
"1729",10,133,"Warning3",1,1,3,1,1916,145
"1730",10,77,"Warning3",1,1,3,0,953,146
"1731",10,145,"Warning3",1,1,3,1,1279,147
"1732",10,48,"Warning3",1,1,4,0,2647,148
"1733",10,82,"Warning3",1,1,3,0,1520,149
"1734",10,53,"Warning3",1,1,5,0,1834,150
"1735",10,22,"Warning3",1,1,4,0,1560,151
"1736",10,45,"Warning3",1,1,3,0,909,152
"1737",10,56,"Warning3",1,1,4,0,3893,153
"1738",10,87,"Warning3",1,1,4,0,763,154
"1739",10,155,"Warning3",1,1,3,1,1091,155
"1740",10,162,"Warning3",1,1,3,1,1236,156
"1741",10,74,"Warning3",1,1,3,0,997,157
"1742",10,163,"Warning3",1,1,3,1,594,158
"1743",10,36,"Warning3",1,1,5,0,1860,159
"1744",10,2,"Warning3",1,1,4,0,1384,160
"1745",10,147,"Warning3",1,1,5,1,683,161
"1746",10,29,"Warning3",1,1,4,0,1025,162
"1747",10,149,"Warning3",1,1,3,1,1207,163
"1748",10,148,"Warning3",1,1,3,1,1544,164
"1749",10,21,"Warning3",1,1,5,0,960,165
"1750",10,160,"Warning3",1,1,4,1,1275,166
"1751",10,134,"Warning3",1,1,3,1,1249,167
"1752",10,28,"Warning3",1,1,2,0,673,168
"1753",10,50,"Warning3",1,1,3,0,472,169
"1754",10,43,"Warning3",1,1,3,0,841,170
"1755",10,54,"Warning3",1,1,3,0,1911,171
"1756",10,49,"Warning3",1,1,4,0,1222,172
"1757",10,139,"Warning3",1,1,4,1,1391,173
"1758",10,81,"Warning3",1,1,3,0,694,174
"1759",10,44,"Warning3",1,1,2,0,577,175
"1760",10,153,"Warning3",1,1,3,1,527,176
"1761",11,89,"Control2",1,2,5,1,738,1
"1762",11,97,"Control2",1,2,2,1,686,2
"1763",11,11,"Control2",1,2,6,0,759,3
"1764",11,16,"Control2",1,2,5,0,785,4
"1765",11,35,"Control2",1,2,3,0,3231,5
"1766",11,125,"Control2",1,2,4,1,2131,6
"1767",11,101,"Control2",1,2,5,1,542,7
"1768",11,78,"Control2",1,2,2,0,917,8
"1769",11,96,"Control2",1,2,2,1,478,9
"1770",11,68,"Control2",1,2,4,0,511,10
"1771",11,45,"Control2",1,2,3,0,1118,11
"1772",11,94,"Control2",1,2,3,1,2303,12
"1773",11,19,"Control2",1,2,3,0,2305,13
"1774",11,132,"Control2",1,2,5,1,827,14
"1775",11,116,"Control2",1,2,6,1,2841,15
"1776",11,130,"Control2",1,2,6,1,1409,16
"1777",11,91,"Control2",1,2,2,1,625,17
"1778",11,103,"Control2",1,2,4,1,512,18
"1779",11,56,"Control2",1,2,4,0,2319,19
"1780",11,118,"Control2",1,2,6,1,910,20
"1781",11,74,"Control2",1,2,5,0,629,21
"1782",11,98,"Control2",1,2,5,1,683,22
"1783",11,18,"Control2",1,2,2,0,541,23
"1784",11,123,"Control2",1,2,6,1,681,24
"1785",11,49,"Control2",1,2,3,0,954,25
"1786",11,2,"Control2",1,2,4,0,688,26
"1787",11,109,"Control2",1,2,6,1,908,27
"1788",11,117,"Control2",1,2,3,1,947,28
"1789",11,100,"Control2",1,2,6,1,2841,29
"1790",11,93,"Control2",1,2,5,1,992,30
"1791",11,27,"Control2",1,2,6,0,3127,31
"1792",11,110,"Control2",1,2,4,1,526,32
"1793",11,92,"Control2",1,2,3,1,1287,33
"1794",11,87,"Control2",1,2,3,0,616,34
"1795",11,3,"Control2",1,2,1,0,996,35
"1796",11,39,"Control2",1,2,5,0,821,36
"1797",11,104,"Control2",1,2,5,1,609,37
"1798",11,128,"Control2",1,2,5,1,733,38
"1799",11,112,"Control2",1,2,5,1,640,39
"1800",11,54,"Control2",1,2,4,0,578,40
"1801",11,21,"Control2",1,2,6,0,1518,41
"1802",11,9,"Control2",1,2,3,0,1254,42
"1803",11,129,"Control2",1,2,4,1,522,43
"1804",11,17,"Control2",1,2,4,0,2235,44
"1805",11,107,"Control2",1,2,5,1,536,45
"1806",11,23,"Control2",1,2,5,0,724,46
"1807",11,127,"Control2",1,2,4,1,542,47
"1808",11,121,"Control2",1,2,2,1,668,48
"1809",11,77,"Control2",1,2,5,0,1171,49
"1810",11,106,"Control2",1,2,4,1,1742,50
"1811",11,50,"Control2",1,2,3,0,1753,51
"1812",11,53,"Control2",1,2,5,0,463,52
"1813",11,43,"Control2",1,2,1,0,774,53
"1814",11,102,"Control2",1,2,5,1,1818,54
"1815",11,113,"Control2",1,2,5,1,620,55
"1816",11,48,"Control2",1,2,5,0,1216,56
"1817",11,32,"Control2",1,2,3,0,740,57
"1818",11,28,"Control2",1,2,3,0,528,58
"1819",11,90,"Control2",1,2,5,1,857,59
"1820",11,44,"Control2",1,2,6,0,813,60
"1821",11,30,"Control2",1,2,3,0,769,61
"1822",11,126,"Control2",1,2,4,1,2829,62
"1823",11,26,"Control2",1,2,5,0,1305,63
"1824",11,58,"Control2",1,2,5,0,479,64
"1825",11,120,"Control2",1,2,2,1,689,65
"1826",11,108,"Control2",1,2,4,1,989,66
"1827",11,95,"Control2",1,2,2,1,1147,67
"1828",11,14,"Control2",1,2,5,0,449,68
"1829",11,115,"Control2",1,2,6,1,629,69
"1830",11,131,"Control2",1,2,5,1,596,70
"1831",11,111,"Control2",1,2,5,1,525,71
"1832",11,114,"Control2",1,2,4,1,423,72
"1833",11,122,"Control2",1,2,5,1,1445,73
"1834",11,81,"Control2",1,2,2,0,638,74
"1835",11,80,"Control2",1,2,6,0,1031,75
"1836",11,61,"Control2",1,2,5,0,454,76
"1837",11,13,"Control2",1,2,4,0,474,77
"1838",11,22,"Control2",1,2,3,0,433,78
"1839",11,38,"Control2",1,2,4,0,463,79
"1840",11,105,"Control2",1,2,5,1,702,80
"1841",11,99,"Control2",1,2,2,1,533,81
"1842",11,124,"Control2",1,2,6,1,609,82
"1843",11,119,"Control2",1,2,4,1,613,83
"1844",11,60,"Control2",1,2,5,0,553,84
"1845",11,36,"Control2",1,2,1,0,2272,85
"1846",11,82,"Control2",1,2,5,0,821,86
"1847",11,29,"Control2",1,2,5,0,848,87
"1848",11,46,"Control2",1,2,4,0,740,88
"1849",11,65,"Control3",1,2,4,0,1488,89
"1850",11,134,"Control3",1,2,3,1,987,90
"1851",11,139,"Control3",1,2,5,1,629,91
"1852",11,66,"Control3",1,2,4,0,17909,92
"1853",11,79,"Control3",1,2,5,0,960,93
"1854",11,41,"Control3",1,2,6,0,660,94
"1855",11,138,"Control3",1,2,3,1,434,95
"1856",11,164,"Control3",1,2,2,1,903,96
"1857",11,25,"Control3",1,2,6,0,904,97
"1858",11,148,"Control3",1,2,5,1,569,98
"1859",11,157,"Control3",1,2,4,1,490,99
"1860",11,154,"Control3",1,2,5,1,806,100
"1861",11,165,"Control3",1,2,5,1,529,101
"1862",11,76,"Control3",1,2,2,0,507,102
"1863",11,162,"Control3",1,2,4,1,764,103
"1864",11,71,"Control3",1,2,2,0,983,104
"1865",11,33,"Control3",1,2,3,0,453,105
"1866",11,10,"Control3",1,2,3,0,505,106
"1867",11,57,"Control3",1,2,4,0,1064,107
"1868",11,145,"Control3",1,2,4,1,360,108
"1869",11,158,"Control3",1,2,5,1,620,109
"1870",11,70,"Control3",1,2,3,0,827,110
"1871",11,83,"Control3",1,2,4,0,817,111
"1872",11,174,"Control3",1,2,2,1,1397,112
"1873",11,69,"Control3",1,2,3,0,2249,113
"1874",11,144,"Control3",1,2,2,1,654,114
"1875",11,168,"Control3",1,2,2,1,857,115
"1876",11,40,"Control3",1,2,3,0,415,116
"1877",11,7,"Control3",1,2,5,0,1709,117
"1878",11,64,"Control3",1,2,2,0,691,118
"1879",11,137,"Control3",1,2,2,1,500,119
"1880",11,153,"Control3",1,2,4,1,408,120
"1881",11,37,"Control3",1,2,4,0,385,121
"1882",11,62,"Control3",1,2,3,0,962,122
"1883",11,159,"Control3",1,2,3,1,2544,123
"1884",11,4,"Control3",1,2,5,0,1734,124
"1885",11,172,"Control3",1,2,5,1,478,125
"1886",11,175,"Control3",1,2,5,1,527,126
"1887",11,156,"Control3",1,2,2,1,553,127
"1888",11,140,"Control3",1,2,6,1,868,128
"1889",11,135,"Control3",1,2,5,1,5413,129
"1890",11,166,"Control3",1,2,5,1,548,130
"1891",11,170,"Control3",1,2,4,1,400,131
"1892",11,160,"Control3",1,2,4,1,2209,132
"1893",11,167,"Control3",1,2,5,1,558,133
"1894",11,150,"Control3",1,2,3,1,479,134
"1895",11,47,"Control3",1,2,5,0,485,135
"1896",11,143,"Control3",1,2,4,1,513,136
"1897",11,73,"Control3",1,2,4,0,888,137
"1898",11,67,"Control3",1,2,3,0,510,138
"1899",11,85,"Control3",1,2,2,0,557,139
"1900",11,52,"Control3",1,2,5,0,462,140
"1901",11,161,"Control3",1,2,6,1,1823,141
"1902",11,5,"Control3",1,2,5,0,1482,142
"1903",11,146,"Control3",1,2,5,1,572,143
"1904",11,147,"Control3",1,2,4,1,416,144
"1905",11,151,"Control3",1,2,2,1,502,145
"1906",11,31,"Control3",1,2,6,0,567,146
"1907",11,75,"Control3",1,2,3,0,405,147
"1908",11,84,"Control3",1,2,3,0,1080,148
"1909",11,88,"Control3",1,2,2,0,644,149
"1910",11,173,"Control3",1,2,5,1,1167,150
"1911",11,55,"Control3",1,2,2,0,439,151
"1912",11,136,"Control3",1,2,5,1,640,152
"1913",11,169,"Control3",1,2,4,1,451,153
"1914",11,72,"Control3",1,2,5,0,810,154
"1915",11,63,"Control3",1,2,5,0,355,155
"1916",11,34,"Control3",1,2,5,0,628,156
"1917",11,171,"Control3",1,2,5,1,1000,157
"1918",11,12,"Control3",1,2,3,0,485,158
"1919",11,8,"Control3",1,2,4,0,1523,159
"1920",11,51,"Control3",1,2,5,0,612,160
"1921",11,141,"Control3",1,2,4,1,382,161
"1922",11,133,"Control3",1,2,4,1,1433,162
"1923",11,163,"Control3",1,2,6,1,636,163
"1924",11,176,"Control3",1,2,6,1,755,164
"1925",11,20,"Control3",1,2,3,0,887,165
"1926",11,42,"Control3",1,2,3,0,477,166
"1927",11,6,"Control3",1,2,5,0,1046,167
"1928",11,142,"Control3",1,2,6,1,1872,168
"1929",11,86,"Control3",1,2,4,0,590,169
"1930",11,24,"Control3",1,2,5,0,1013,170
"1931",11,155,"Control3",1,2,5,1,556,171
"1932",11,149,"Control3",1,2,4,1,805,172
"1933",11,152,"Control3",1,2,6,1,566,173
"1934",11,15,"Control3",1,2,4,0,863,174
"1935",11,1,"Control3",1,2,4,0,492,175
"1936",11,59,"Control3",1,2,5,0,802,176
"1937",12,93,"Warning2",1,1,3,1,1256,1
"1938",12,22,"Warning2",1,1,4,0,1052,2
"1939",12,17,"Warning2",1,1,3,0,761,3
"1940",12,74,"Warning2",1,1,5,0,875,4
"1941",12,102,"Warning2",1,1,4,1,1658,5
"1942",12,103,"Warning2",1,1,5,1,710,6
"1943",12,126,"Warning2",1,1,4,1,526,7
"1944",12,56,"Warning2",1,1,5,0,1016,8
"1945",12,16,"Warning2",1,1,5,0,653,9
"1946",12,123,"Warning2",1,1,3,1,546,10
"1947",12,107,"Warning2",1,1,5,1,681,11
"1948",12,9,"Warning2",1,1,1,0,2060,12
"1949",12,36,"Warning2",1,1,4,0,1919,13
"1950",12,97,"Warning2",1,1,3,1,1472,14
"1951",12,110,"Warning2",1,1,4,1,687,15
"1952",12,98,"Warning2",1,1,4,1,642,16
"1953",12,104,"Warning2",1,1,4,1,700,17
"1954",12,45,"Warning2",1,1,2,0,753,18
"1955",12,14,"Warning2",1,1,2,0,800,19
"1956",12,117,"Warning2",1,1,4,1,843,20
"1957",12,115,"Warning2",1,1,5,1,765,21
"1958",12,87,"Warning2",1,1,4,0,519,22
"1959",12,130,"Warning2",1,1,3,1,753,23
"1960",12,11,"Warning2",1,1,3,0,649,24
"1961",12,118,"Warning2",1,1,3,1,590,25
"1962",12,39,"Warning2",1,1,5,0,509,26
"1963",12,61,"Warning2",1,1,3,0,1053,27
"1964",12,129,"Warning2",1,1,6,1,810,28
"1965",12,125,"Warning2",1,1,4,1,1287,29
"1966",12,43,"Warning2",1,1,4,0,648,30
"1967",12,114,"Warning2",1,1,5,1,987,31
"1968",12,29,"Warning2",1,1,3,0,578,32
"1969",12,128,"Warning2",1,1,5,1,679,33
"1970",12,113,"Warning2",1,1,3,1,1081,34
"1971",12,116,"Warning2",1,1,3,1,762,35
"1972",12,90,"Warning2",1,1,4,1,740,36
"1973",12,111,"Warning2",1,1,5,1,673,37
"1974",12,53,"Warning2",1,1,5,0,657,38
"1975",12,95,"Warning2",1,1,4,1,846,39
"1976",12,54,"Warning2",1,1,3,0,1040,40
"1977",12,99,"Warning2",1,1,3,1,1066,41
"1978",12,23,"Warning2",1,1,4,0,809,42
"1979",12,28,"Warning2",1,1,3,0,518,43
"1980",12,49,"Warning2",1,1,3,0,616,44
"1981",12,38,"Warning2",1,1,3,0,730,45
"1982",12,96,"Warning2",1,1,4,1,831,46
"1983",12,109,"Warning2",1,1,3,1,566,47
"1984",12,108,"Warning2",1,1,4,1,545,48
"1985",12,78,"Warning2",1,1,5,0,585,49
"1986",12,13,"Warning2",1,1,4,0,576,50
"1987",12,131,"Warning2",1,1,3,1,717,51
"1988",12,120,"Warning2",1,1,3,1,1047,52
"1989",12,19,"Warning2",1,1,2,0,753,53
"1990",12,18,"Warning2",1,1,2,0,809,54
"1991",12,68,"Warning2",1,1,3,0,518,55
"1992",12,60,"Warning2",1,1,3,0,752,56
"1993",12,106,"Warning2",1,1,4,1,528,57
"1994",12,30,"Warning2",1,1,4,0,634,58
"1995",12,127,"Warning2",1,1,3,1,834,59
"1996",12,94,"Warning2",1,1,3,1,585,60
"1997",12,50,"Warning2",1,1,3,0,697,61
"1998",12,121,"Warning2",1,1,4,1,982,62
"1999",12,124,"Warning2",1,1,5,1,755,63
"2000",12,3,"Warning2",1,1,4,0,3642,64
"2001",12,46,"Warning2",1,1,4,0,530,65
"2002",12,119,"Warning2",1,1,4,1,519,66
"2003",12,2,"Warning2",1,1,4,0,481,67
"2004",12,100,"Warning2",1,1,3,1,1555,68
"2005",12,122,"Warning2",1,1,4,1,1090,69
"2006",12,32,"Warning2",1,1,2,0,535,70
"2007",12,48,"Warning2",1,1,3,0,1212,71
"2008",12,27,"Warning2",1,1,2,0,2328,72
"2009",12,81,"Warning2",1,1,3,0,785,73
"2010",12,132,"Warning2",1,1,4,1,489,74
"2011",12,89,"Warning2",1,1,5,1,526,75
"2012",12,112,"Warning2",1,1,4,1,584,76
"2013",12,101,"Warning2",1,1,3,1,640,77
"2014",12,91,"Warning2",1,1,5,1,458,78
"2015",12,105,"Warning2",1,1,2,1,767,79
"2016",12,44,"Warning2",1,1,6,0,745,80
"2017",12,58,"Warning2",1,1,4,0,529,81
"2018",12,82,"Warning2",1,1,4,0,2070,82
"2019",12,35,"Warning2",1,1,4,0,460,83
"2020",12,77,"Warning2",1,1,5,0,546,84
"2021",12,21,"Warning2",1,1,4,0,537,85
"2022",12,80,"Warning2",1,1,3,0,518,86
"2023",12,26,"Warning2",1,1,4,0,561,87
"2024",12,92,"Warning2",1,1,4,1,506,88
"2025",12,146,"Warning3",1,1,5,1,3118,89
"2026",12,4,"Warning3",1,1,4,0,1079,90
"2027",12,70,"Warning3",1,1,3,0,1649,91
"2028",12,31,"Warning3",1,1,4,0,1261,92
"2029",12,84,"Warning3",1,1,5,0,806,93
"2030",12,52,"Warning3",1,1,4,0,1133,94
"2031",12,62,"Warning3",1,1,3,0,647,95
"2032",12,169,"Warning3",1,1,5,1,633,96
"2033",12,55,"Warning3",1,1,3,0,6399,97
"2034",12,147,"Warning3",1,1,3,1,551,98
"2035",12,72,"Warning3",1,1,4,0,1299,99
"2036",12,24,"Warning3",1,1,4,0,1702,100
"2037",12,15,"Warning3",1,1,4,0,5682,101
"2038",12,67,"Warning3",1,1,3,0,1450,102
"2039",12,69,"Warning3",1,1,4,0,2407,103
"2040",12,51,"Warning3",1,1,4,0,1639,104
"2041",12,134,"Warning3",1,1,3,1,787,105
"2042",12,162,"Warning3",1,1,4,1,513,106
"2043",12,63,"Warning3",1,1,4,0,639,107
"2044",12,160,"Warning3",1,1,4,1,3331,108
"2045",12,79,"Warning3",1,1,4,0,666,109
"2046",12,65,"Warning3",1,1,4,0,707,110
"2047",12,171,"Warning3",1,1,4,1,570,111
"2048",12,6,"Warning3",1,1,4,0,1138,112
"2049",12,176,"Warning3",1,1,3,1,814,113
"2050",12,75,"Warning3",1,1,4,0,1311,114
"2051",12,165,"Warning3",1,1,4,1,1143,115
"2052",12,149,"Warning3",1,1,4,1,10270,116
"2053",12,163,"Warning3",1,1,3,1,549,117
"2054",12,141,"Warning3",1,1,4,1,487,118
"2055",12,133,"Warning3",1,1,4,1,561,119
"2056",12,5,"Warning3",1,1,3,0,1548,120
"2057",12,8,"Warning3",1,1,4,0,534,121
"2058",12,150,"Warning3",1,1,4,1,3123,122
"2059",12,25,"Warning3",1,1,4,0,418,123
"2060",12,85,"Warning3",1,1,3,0,1888,124
"2061",12,164,"Warning3",1,1,3,1,1301,125
"2062",12,83,"Warning3",1,1,3,0,530,126
"2063",12,166,"Warning3",1,1,4,1,493,127
"2064",12,154,"Warning3",1,1,5,1,670,128
"2065",12,42,"Warning3",1,1,3,0,1613,129
"2066",12,1,"Warning3",1,1,4,0,3744,130
"2067",12,158,"Warning3",1,1,4,1,535,131
"2068",12,173,"Warning3",1,1,4,1,3089,132
"2069",12,155,"Warning3",1,1,4,1,625,133
"2070",12,161,"Warning3",1,1,5,1,786,134
"2071",12,174,"Warning3",1,1,4,1,778,135
"2072",12,64,"Warning3",1,1,3,0,613,136
"2073",12,136,"Warning3",1,1,5,1,632,137
"2074",12,33,"Warning3",1,1,4,0,1495,138
"2075",12,135,"Warning3",1,1,2,1,1171,139
"2076",12,172,"Warning3",1,1,4,1,486,140
"2077",12,151,"Warning3",1,1,4,1,1399,141
"2078",12,73,"Warning3",1,1,4,0,490,142
"2079",12,138,"Warning3",1,1,3,1,1640,143
"2080",12,153,"Warning3",1,1,4,1,1917,144
"2081",12,34,"Warning3",1,1,4,0,2185,145
"2082",12,7,"Warning3",1,1,4,0,5970,146
"2083",12,66,"Warning3",1,1,4,0,811,147
"2084",12,86,"Warning3",1,1,5,0,1344,148
"2085",12,159,"Warning3",1,1,3,1,1241,149
"2086",12,76,"Warning3",1,1,3,0,1162,150
"2087",12,175,"Warning3",1,1,6,1,705,151
"2088",12,41,"Warning3",1,1,5,0,1097,152
"2089",12,47,"Warning3",1,1,5,0,872,153
"2090",12,57,"Warning3",1,1,3,0,1339,154
"2091",12,143,"Warning3",1,1,3,1,1369,155
"2092",12,142,"Warning3",1,1,3,1,4342,156
"2093",12,12,"Warning3",1,1,5,0,779,157
"2094",12,144,"Warning3",1,1,4,1,506,158
"2095",12,145,"Warning3",1,1,4,1,632,159
"2096",12,137,"Warning3",1,1,4,1,623,160
"2097",12,10,"Warning3",1,1,3,0,1263,161
"2098",12,20,"Warning3",1,1,4,0,1447,162
"2099",12,167,"Warning3",1,1,3,1,624,163
"2100",12,152,"Warning3",1,1,5,1,9284,164
"2101",12,157,"Warning3",1,1,5,1,893,165
"2102",12,59,"Warning3",1,1,4,0,522,166
"2103",12,88,"Warning3",1,1,4,0,794,167
"2104",12,139,"Warning3",1,1,4,1,646,168
"2105",12,40,"Warning3",1,1,4,0,793,169
"2106",12,148,"Warning3",1,1,4,1,1125,170
"2107",12,170,"Warning3",1,1,3,1,807,171
"2108",12,168,"Warning3",1,1,4,1,2991,172
"2109",12,140,"Warning3",1,1,3,1,817,173
"2110",12,37,"Warning3",1,1,4,0,477,174
"2111",12,71,"Warning3",1,1,3,0,608,175
"2112",12,156,"Warning3",1,1,3,1,664,176
"2113",13,42,"Control2",1,2,3,0,3721,1
"2114",13,140,"Control2",1,2,6,1,2424,2
"2115",13,59,"Control2",1,2,4,0,1062,3
"2116",13,20,"Control2",1,2,2,0,2798,4
"2117",13,134,"Control2",1,2,4,1,1807,5
"2118",13,51,"Control2",1,2,5,0,1288,6
"2119",13,146,"Control2",1,2,5,1,1266,7
"2120",13,157,"Control2",1,2,3,1,865,8
"2121",13,163,"Control2",1,2,4,1,1552,9
"2122",13,152,"Control2",1,2,5,1,2111,10
"2123",13,86,"Control2",1,2,2,0,1901,11
"2124",13,149,"Control2",1,2,2,1,977,12
"2125",13,57,"Control2",1,2,1,0,3030,13
"2126",13,41,"Control2",1,2,6,0,1732,14
"2127",13,7,"Control2",1,2,5,0,3448,15
"2128",13,176,"Control2",1,2,3,1,912,16
"2129",13,83,"Control2",1,2,4,0,807,17
"2130",13,31,"Control2",1,2,3,0,3489,18
"2131",13,162,"Control2",1,2,3,1,1537,19
"2132",13,34,"Control2",1,2,3,0,4686,20
"2133",13,65,"Control2",1,2,5,0,3476,21
"2134",13,52,"Control2",1,2,5,0,1161,22
"2135",13,145,"Control2",1,2,4,1,1947,23
"2136",13,150,"Control2",1,2,5,1,3219,24
"2137",13,88,"Control2",1,2,5,0,2317,25
"2138",13,67,"Control2",1,2,3,0,1622,26
"2139",13,158,"Control2",1,2,2,1,642,27
"2140",13,165,"Control2",1,2,1,1,1636,28
"2141",13,84,"Control2",1,2,5,0,2390,29
"2142",13,159,"Control2",1,2,2,1,692,30
"2143",13,63,"Control2",1,2,2,0,873,31
"2144",13,62,"Control2",1,2,3,0,2408,32
"2145",13,171,"Control2",1,2,5,1,1529,33
"2146",13,144,"Control2",1,2,6,1,1125,34
"2147",13,161,"Control2",1,2,6,1,1751,35
"2148",13,69,"Control2",1,2,3,0,3614,36
"2149",13,85,"Control2",1,2,1,0,1297,37
"2150",13,71,"Control2",1,2,3,0,2509,38
"2151",13,138,"Control2",1,2,4,1,3347,39
"2152",13,166,"Control2",1,2,1,1,1096,40
"2153",13,66,"Control2",1,2,3,0,3157,41
"2154",13,40,"Control2",1,2,2,0,883,42
"2155",13,55,"Control2",1,2,2,0,1813,43
"2156",13,143,"Control2",1,2,2,1,3881,44
"2157",13,24,"Control2",1,2,6,0,984,45
"2158",13,12,"Control2",1,2,5,0,2135,46
"2159",13,136,"Control2",1,2,1,1,2147,47
"2160",13,151,"Control2",1,2,5,1,3274,48
"2161",13,47,"Control2",1,2,4,0,743,49
"2162",13,168,"Control2",1,2,4,1,4639,50
"2163",13,25,"Control2",1,2,3,0,3862,51
"2164",13,33,"Control2",1,2,1,0,1152,52
"2165",13,141,"Control2",1,2,3,1,1808,53
"2166",13,70,"Control2",1,2,1,0,801,54
"2167",13,173,"Control2",1,2,4,1,1347,55
"2168",13,148,"Control2",1,2,4,1,2442,56
"2169",13,147,"Control2",1,2,2,1,1130,57
"2170",13,1,"Control2",1,2,2,0,1791,58
"2171",13,4,"Control2",1,2,5,0,894,59
"2172",13,75,"Control2",1,2,5,0,1194,60
"2173",13,164,"Control2",1,2,4,1,2049,61
"2174",13,174,"Control2",1,2,3,1,1453,62
"2175",13,155,"Control2",1,2,5,1,1305,63
"2176",13,135,"Control2",1,2,5,1,2849,64
"2177",13,167,"Control2",1,2,2,1,5714,65
"2178",13,76,"Control2",1,2,2,0,2548,66
"2179",13,10,"Control2",1,2,1,0,3843,67
"2180",13,156,"Control2",1,2,5,1,1355,68
"2181",13,137,"Control2",1,2,4,1,2042,69
"2182",13,79,"Control2",1,2,2,0,2323,70
"2183",13,153,"Control2",1,2,4,1,1523,71
"2184",13,64,"Control2",1,2,2,0,629,72
"2185",13,160,"Control2",1,2,6,1,1132,73
"2186",13,139,"Control2",1,2,5,1,4450,74
"2187",13,8,"Control2",1,2,2,0,1849,75
"2188",13,133,"Control2",1,2,5,1,858,76
"2189",13,170,"Control2",1,2,5,1,807,77
"2190",13,73,"Control2",1,2,5,0,2849,78
"2191",13,37,"Control2",1,2,2,0,1329,79
"2192",13,154,"Control2",1,2,5,1,693,80
"2193",13,142,"Control2",1,2,2,1,6579,81
"2194",13,15,"Control2",1,2,5,0,1299,82
"2195",13,172,"Control2",1,2,3,1,1391,83
"2196",13,72,"Control2",1,2,3,0,5022,84
"2197",13,169,"Control2",1,2,2,1,879,85
"2198",13,175,"Control2",1,2,5,1,681,86
"2199",13,6,"Control2",1,2,4,0,883,87
"2200",13,5,"Control2",1,2,4,0,2037,88
"2201",13,50,"Control3",1,2,4,0,1551,89
"2202",13,100,"Control3",1,2,4,1,3021,90
"2203",13,91,"Control3",1,2,2,1,1761,91
"2204",13,38,"Control3",1,2,2,0,1865,92
"2205",13,92,"Control3",1,2,4,1,952,93
"2206",13,61,"Control3",1,2,4,0,4575,94
"2207",13,16,"Control3",1,2,3,0,4251,95
"2208",13,44,"Control3",1,2,6,0,3758,96
"2209",13,11,"Control3",1,2,3,0,4987,97
"2210",13,56,"Control3",1,2,2,0,3953,98
"2211",13,111,"Control3",1,2,3,1,2190,99
"2212",13,98,"Control3",1,2,5,1,2622,100
"2213",13,80,"Control3",1,2,5,0,1940,101
"2214",13,13,"Control3",1,2,2,0,3379,102
"2215",13,125,"Control3",1,2,5,1,2270,103
"2216",13,82,"Control3",1,2,5,0,2631,104
"2217",13,74,"Control3",1,2,5,0,1481,105
"2218",13,29,"Control3",1,2,5,0,1487,106
"2219",13,115,"Control3",1,2,4,1,2396,107
"2220",13,53,"Control3",1,2,2,0,1381,108
"2221",13,122,"Control3",1,2,4,1,2661,109
"2222",13,49,"Control3",1,2,2,0,1560,110
"2223",13,60,"Control3",1,2,2,0,2768,111
"2224",13,101,"Control3",1,2,5,1,867,112
"2225",13,129,"Control3",1,2,5,1,1640,113
"2226",13,9,"Control3",1,2,5,0,1214,114
"2227",13,45,"Control3",1,2,3,0,4323,115
"2228",13,43,"Control3",1,2,5,0,2544,116
"2229",13,103,"Control3",1,2,3,1,3923,117
"2230",13,2,"Control3",1,2,4,0,1831,118
"2231",13,3,"Control3",1,2,3,0,3992,119
"2232",13,32,"Control3",1,2,4,0,1679,120
"2233",13,78,"Control3",1,2,2,0,4214,121
"2234",13,27,"Control3",1,2,1,0,5851,122
"2235",13,46,"Control3",1,2,2,0,3086,123
"2236",13,99,"Control3",1,2,4,1,1690,124
"2237",13,109,"Control3",1,2,4,1,1881,125
"2238",13,106,"Control3",1,2,5,1,4108,126
"2239",13,107,"Control3",1,2,5,1,1322,127
"2240",13,48,"Control3",1,2,4,0,2112,128
"2241",13,81,"Control3",1,2,4,0,1714,129
"2242",13,54,"Control3",1,2,4,0,4623,130
"2243",13,124,"Control3",1,2,3,1,1586,131
"2244",13,95,"Control3",1,2,2,1,3217,132
"2245",13,121,"Control3",1,2,4,1,4604,133
"2246",13,114,"Control3",1,2,4,1,1139,134
"2247",13,116,"Control3",1,2,5,1,1282,135
"2248",13,102,"Control3",1,2,3,1,4624,136
"2249",13,19,"Control3",1,2,3,0,2433,137
"2250",13,28,"Control3",1,2,3,0,2184,138
"2251",13,58,"Control3",1,2,5,0,5521,139
"2252",13,108,"Control3",1,2,4,1,4227,140
"2253",13,14,"Control3",1,2,4,0,1439,141
"2254",13,87,"Control3",1,2,4,0,2827,142
"2255",13,130,"Control3",1,2,4,1,1918,143
"2256",13,97,"Control3",1,2,2,1,1320,144
"2257",13,17,"Control3",1,2,6,0,1625,145
"2258",13,119,"Control3",1,2,5,1,3256,146
"2259",13,35,"Control3",1,2,3,0,4240,147
"2260",13,126,"Control3",1,2,4,1,2065,148
"2261",13,117,"Control3",1,2,3,1,2801,149
"2262",13,127,"Control3",1,2,4,1,1441,150
"2263",13,104,"Control3",1,2,4,1,1635,151
"2264",13,105,"Control3",1,2,4,1,865,152
"2265",13,120,"Control3",1,2,2,1,1686,153
"2266",13,123,"Control3",1,2,4,1,1724,154
"2267",13,30,"Control3",1,2,4,0,1777,155
"2268",13,131,"Control3",1,2,3,1,2250,156
"2269",13,112,"Control3",1,2,2,1,4442,157
"2270",13,90,"Control3",1,2,5,1,706,158
"2271",13,36,"Control3",1,2,2,0,4760,159
"2272",13,128,"Control3",1,2,4,1,2999,160
"2273",13,132,"Control3",1,2,4,1,1426,161
"2274",13,21,"Control3",1,2,4,0,736,162
"2275",13,110,"Control3",1,2,4,1,2310,163
"2276",13,18,"Control3",1,2,3,0,1632,164
"2277",13,22,"Control3",1,2,4,0,1902,165
"2278",13,39,"Control3",1,2,4,0,1945,166
"2279",13,96,"Control3",1,2,4,1,1522,167
"2280",13,93,"Control3",1,2,3,1,670,168
"2281",13,68,"Control3",1,2,3,0,2840,169
"2282",13,77,"Control3",1,2,3,0,1406,170
"2283",13,94,"Control3",1,2,4,1,2058,171
"2284",13,118,"Control3",1,2,4,1,650,172
"2285",13,23,"Control3",1,2,4,0,975,173
"2286",13,89,"Control3",1,2,4,1,1389,174
"2287",13,26,"Control3",1,2,4,0,3547,175
"2288",13,113,"Control3",1,2,3,1,1132,176
"2289",14,159,"Warning2",1,1,3,1,3100,1
"2290",14,10,"Warning2",1,1,4,0,5720,2
"2291",14,88,"Warning2",1,1,3,0,3286,3
"2292",14,31,"Warning2",1,1,3,0,1549,4
"2293",14,25,"Warning2",1,1,3,0,1300,5
"2294",14,24,"Warning2",1,1,2,0,2113,6
"2295",14,85,"Warning2",1,1,2,0,1807,7
"2296",14,84,"Warning2",1,1,4,0,5145,8
"2297",14,34,"Warning2",1,1,3,0,2810,9
"2298",14,86,"Warning2",1,1,1,0,2658,10
"2299",14,137,"Warning2",1,1,2,1,5054,11
"2300",14,160,"Warning2",1,1,3,1,919,12
"2301",14,170,"Warning2",1,1,6,1,1673,13
"2302",14,33,"Warning2",1,1,4,0,3824,14
"2303",14,140,"Warning2",1,1,6,1,1042,15
"2304",14,47,"Warning2",1,1,3,0,964,16
"2305",14,71,"Warning2",1,1,1,0,1350,17
"2306",14,163,"Warning2",1,1,4,1,1749,18
"2307",14,143,"Warning2",1,1,6,1,667,19
"2308",14,79,"Warning2",1,1,1,0,5988,20
"2309",14,134,"Warning2",1,1,4,1,919,21
"2310",14,76,"Warning2",1,1,5,0,3377,22
"2311",14,146,"Warning2",1,1,2,1,1451,23
"2312",14,151,"Warning2",1,1,5,1,1736,24
"2313",14,37,"Warning2",1,1,3,0,2924,25
"2314",14,51,"Warning2",1,1,6,0,876,26
"2315",14,147,"Warning2",1,1,6,1,830,27
"2316",14,64,"Warning2",1,1,5,0,2430,28
"2317",14,66,"Warning2",1,1,2,0,980,29
"2318",14,136,"Warning2",1,1,6,1,1153,30
"2319",14,168,"Warning2",1,1,5,1,2528,31
"2320",14,142,"Warning2",1,1,6,1,3348,32
"2321",14,149,"Warning2",1,1,5,1,2350,33
"2322",14,75,"Warning2",1,1,4,0,1300,34
"2323",14,6,"Warning2",1,1,3,0,1353,35
"2324",14,154,"Warning2",1,1,6,1,1744,36
"2325",14,57,"Warning2",1,1,5,0,982,37
"2326",14,59,"Warning2",1,1,3,0,814,38
"2327",14,69,"Warning2",1,1,5,0,578,39
"2328",14,158,"Warning2",1,1,5,1,672,40
"2329",14,55,"Warning2",1,1,4,0,1711,41
"2330",14,167,"Warning2",1,1,4,1,966,42
"2331",14,20,"Warning2",1,1,3,0,1232,43
"2332",14,135,"Warning2",1,1,5,1,783,44
"2333",14,152,"Warning2",1,1,6,1,582,45
"2334",14,156,"Warning2",1,1,5,1,950,46
"2335",14,4,"Warning2",1,1,2,0,1085,47
"2336",14,5,"Warning2",1,1,4,0,1359,48
"2337",14,138,"Warning2",1,1,4,1,2145,49
"2338",14,171,"Warning2",1,1,4,1,1559,50
"2339",14,175,"Warning2",1,1,4,1,1193,51
"2340",14,8,"Warning2",1,1,2,0,1008,52
"2341",14,174,"Warning2",1,1,5,1,770,53
"2342",14,161,"Warning2",1,1,5,1,1679,54
"2343",14,42,"Warning2",1,1,3,0,1992,55
"2344",14,150,"Warning2",1,1,6,1,790,56
"2345",14,73,"Warning2",1,1,5,0,686,57
"2346",14,169,"Warning2",1,1,4,1,672,58
"2347",14,145,"Warning2",1,1,4,1,1072,59
"2348",14,172,"Warning2",1,1,2,1,1487,60
"2349",14,148,"Warning2",1,1,4,1,1560,61
"2350",14,72,"Warning2",1,1,4,0,810,62
"2351",14,176,"Warning2",1,1,5,1,799,63
"2352",14,7,"Warning2",1,1,4,0,1465,64
"2353",14,162,"Warning2",1,1,5,1,792,65
"2354",14,65,"Warning2",1,1,5,0,807,66
"2355",14,40,"Warning2",1,1,6,0,769,67
"2356",14,155,"Warning2",1,1,5,1,678,68
"2357",14,157,"Warning2",1,1,5,1,1184,69
"2358",14,67,"Warning2",1,1,2,0,1032,70
"2359",14,12,"Warning2",1,1,3,0,623,71
"2360",14,165,"Warning2",1,1,5,1,807,72
"2361",14,41,"Warning2",1,1,6,0,785,73
"2362",14,139,"Warning2",1,1,5,1,1960,74
"2363",14,133,"Warning2",1,1,4,1,817,75
"2364",14,62,"Warning2",1,1,3,0,1030,76
"2365",14,83,"Warning2",1,1,3,0,637,77
"2366",14,52,"Warning2",1,1,5,0,864,78
"2367",14,63,"Warning2",1,1,5,0,1191,79
"2368",14,141,"Warning2",1,1,5,1,1150,80
"2369",14,15,"Warning2",1,1,4,0,1878,81
"2370",14,153,"Warning2",1,1,4,1,830,82
"2371",14,1,"Warning2",1,1,5,0,791,83
"2372",14,166,"Warning2",1,1,6,1,5278,84
"2373",14,144,"Warning2",1,1,5,1,994,85
"2374",14,70,"Warning2",1,1,5,0,857,86
"2375",14,164,"Warning2",1,1,5,1,1870,87
"2376",14,173,"Warning2",1,1,3,1,1572,88
"2377",14,60,"Warning3",1,1,3,0,10089,89
"2378",14,123,"Warning3",1,1,5,1,2059,90
"2379",14,78,"Warning3",1,1,5,0,1288,91
"2380",14,39,"Warning3",1,1,6,0,729,92
"2381",14,13,"Warning3",1,1,4,0,2645,93
"2382",14,100,"Warning3",1,1,5,1,685,94
"2383",14,112,"Warning3",1,1,5,1,1431,95
"2384",14,82,"Warning3",1,1,3,0,1350,96
"2385",14,115,"Warning3",1,1,4,1,596,97
"2386",14,118,"Warning3",1,1,6,1,1096,98
"2387",14,87,"Warning3",1,1,6,0,1247,99
"2388",14,74,"Warning3",1,1,6,0,715,100
"2389",14,27,"Warning3",1,1,5,0,1368,101
"2390",14,130,"Warning3",1,1,4,1,1047,102
"2391",14,48,"Warning3",1,1,5,0,1217,103
"2392",14,129,"Warning3",1,1,5,1,764,104
"2393",14,117,"Warning3",1,1,5,1,810,105
"2394",14,120,"Warning3",1,1,6,1,708,106
"2395",14,68,"Warning3",1,1,3,0,2963,107
"2396",14,44,"Warning3",1,1,3,0,928,108
"2397",14,111,"Warning3",1,1,3,1,2797,109
"2398",14,104,"Warning3",1,1,5,1,612,110
"2399",14,122,"Warning3",1,1,5,1,946,111
"2400",14,96,"Warning3",1,1,3,1,1100,112
"2401",14,16,"Warning3",1,1,4,0,1046,113
"2402",14,9,"Warning3",1,1,4,0,3590,114
"2403",14,30,"Warning3",1,1,3,0,2114,115
"2404",14,95,"Warning3",1,1,2,1,813,116
"2405",14,50,"Warning3",1,1,4,0,2717,117
"2406",14,14,"Warning3",1,1,5,0,1320,118
"2407",14,92,"Warning3",1,1,5,1,1570,119
"2408",14,91,"Warning3",1,1,6,1,928,120
"2409",14,114,"Warning3",1,1,4,1,571,121
"2410",14,18,"Warning3",1,1,4,0,1081,122
"2411",14,54,"Warning3",1,1,3,0,1385,123
"2412",14,46,"Warning3",1,1,4,0,1294,124
"2413",14,58,"Warning3",1,1,5,0,470,125
"2414",14,17,"Warning3",1,1,2,0,976,126
"2415",14,103,"Warning3",1,1,5,1,573,127
"2416",14,113,"Warning3",1,1,3,1,1383,128
"2417",14,131,"Warning3",1,1,3,1,1256,129
"2418",14,32,"Warning3",1,1,3,0,776,130
"2419",14,56,"Warning3",1,1,4,0,850,131
"2420",14,132,"Warning3",1,1,4,1,486,132
"2421",14,110,"Warning3",1,1,5,1,609,133
"2422",14,124,"Warning3",1,1,6,1,583,134
"2423",14,38,"Warning3",1,1,5,0,608,135
"2424",14,116,"Warning3",1,1,5,1,564,136
"2425",14,36,"Warning3",1,1,4,0,758,137
"2426",14,29,"Warning3",1,1,3,0,1240,138
"2427",14,109,"Warning3",1,1,3,1,1303,139
"2428",14,3,"Warning3",1,1,5,0,1275,140
"2429",14,53,"Warning3",1,1,6,0,1055,141
"2430",14,99,"Warning3",1,1,4,1,841,142
"2431",14,11,"Warning3",1,1,3,0,785,143
"2432",14,90,"Warning3",1,1,4,1,3303,144
"2433",14,43,"Warning3",1,1,3,0,1150,145
"2434",14,2,"Warning3",1,1,4,0,3291,146
"2435",14,101,"Warning3",1,1,5,1,720,147
"2436",14,93,"Warning3",1,1,4,1,1037,148
"2437",14,81,"Warning3",1,1,3,0,3601,149
"2438",14,105,"Warning3",1,1,2,1,1633,150
"2439",14,21,"Warning3",1,1,5,0,977,151
"2440",14,107,"Warning3",1,1,5,1,471,152
"2441",14,80,"Warning3",1,1,1,0,1138,153
"2442",14,97,"Warning3",1,1,4,1,626,154
"2443",14,28,"Warning3",1,1,1,0,880,155
"2444",14,128,"Warning3",1,1,4,1,1513,156
"2445",14,89,"Warning3",1,1,4,1,454,157
"2446",14,19,"Warning3",1,1,2,0,4502,158
"2447",14,126,"Warning3",1,1,5,1,1207,159
"2448",14,108,"Warning3",1,1,4,1,3112,160
"2449",14,26,"Warning3",1,1,3,0,3244,161
"2450",14,102,"Warning3",1,1,5,1,1278,162
"2451",14,121,"Warning3",1,1,3,1,2419,163
"2452",14,22,"Warning3",1,1,4,0,779,164
"2453",14,127,"Warning3",1,1,4,1,584,165
"2454",14,125,"Warning3",1,1,5,1,781,166
"2455",14,45,"Warning3",1,1,4,0,696,167
"2456",14,61,"Warning3",1,1,4,0,569,168
"2457",14,106,"Warning3",1,1,4,1,588,169
"2458",14,77,"Warning3",1,1,5,0,646,170
"2459",14,98,"Warning3",1,1,4,1,1101,171
"2460",14,49,"Warning3",1,1,3,0,764,172
"2461",14,23,"Warning3",1,1,5,0,626,173
"2462",14,119,"Warning3",1,1,4,1,967,174
"2463",14,94,"Warning3",1,1,5,1,654,175
"2464",14,35,"Warning3",1,1,2,0,1393,176
"2465",15,81,"Control2",1,2,4,0,2983,1
"2466",15,135,"Control2",1,2,2,1,1153,2
"2467",15,28,"Control2",1,2,3,0,1521,3
"2468",15,175,"Control2",1,2,6,1,2194,4
"2469",15,80,"Control2",1,2,6,0,889,5
"2470",15,147,"Control2",1,2,4,1,779,6
"2471",15,134,"Control2",1,2,3,1,3631,7
"2472",15,21,"Control2",1,2,3,0,2092,8
"2473",15,22,"Control2",1,2,5,0,2368,9
"2474",15,61,"Control2",1,2,4,0,2762,10
"2475",15,174,"Control2",1,2,5,1,4666,11
"2476",15,82,"Control2",1,2,4,0,2126,12
"2477",15,30,"Control2",1,2,4,0,1215,13
"2478",15,16,"Control2",1,2,3,0,755,14
"2479",15,171,"Control2",1,2,5,1,1093,15
"2480",15,140,"Control2",1,2,1,1,2074,16
"2481",15,54,"Control2",1,2,5,0,1648,17
"2482",15,68,"Control2",1,2,4,0,661,18
"2483",15,143,"Control2",1,2,5,1,1829,19
"2484",15,26,"Control2",1,2,2,0,740,20
"2485",15,176,"Control2",1,2,4,1,2640,21
"2486",15,58,"Control2",1,2,5,0,2193,22
"2487",15,78,"Control2",1,2,2,0,919,23
"2488",15,36,"Control2",1,2,5,0,1025,24
"2489",15,146,"Control2",1,2,6,1,1066,25
"2490",15,165,"Control2",1,2,5,1,978,26
"2491",15,17,"Control2",1,2,2,0,814,27
"2492",15,133,"Control2",1,2,4,1,971,28
"2493",15,153,"Control2",1,2,4,1,1368,29
"2494",15,137,"Control2",1,2,3,1,745,30
"2495",15,163,"Control2",1,2,1,1,3562,31
"2496",15,141,"Control2",1,2,4,1,906,32
"2497",15,32,"Control2",1,2,3,0,833,33
"2498",15,168,"Control2",1,2,5,1,984,34
"2499",15,53,"Control2",1,2,5,0,10033,35
"2500",15,19,"Control2",1,2,2,0,7321,36
"2501",15,156,"Control2",1,2,2,1,1066,37
"2502",15,139,"Control2",1,2,4,1,713,38
"2503",15,166,"Control2",1,2,5,1,737,39
"2504",15,23,"Control2",1,2,4,0,830,40
"2505",15,43,"Control2",1,2,5,0,693,41
"2506",15,164,"Control2",1,2,3,1,914,42
"2507",15,142,"Control2",1,2,6,1,1113,43
"2508",15,144,"Control2",1,2,4,1,633,44
"2509",15,161,"Control2",1,2,6,1,1936,45
"2510",15,157,"Control2",1,2,5,1,1148,46
"2511",15,154,"Control2",1,2,5,1,939,47
"2512",15,150,"Control2",1,2,6,1,560,48
"2513",15,77,"Control2",1,2,5,0,1562,49
"2514",15,45,"Control2",1,2,3,0,1100,50
"2515",15,35,"Control2",1,2,3,0,2456,51
"2516",15,170,"Control2",1,2,4,1,619,52
"2517",15,74,"Control2",1,2,5,0,880,53
"2518",15,155,"Control2",1,2,6,1,1114,54
"2519",15,13,"Control2",1,2,6,0,993,55
"2520",15,159,"Control2",1,2,2,1,1185,56
"2521",15,151,"Control2",1,2,4,1,1200,57
"2522",15,2,"Control2",1,2,1,0,2322,58
"2523",15,48,"Control2",1,2,5,0,866,59
"2524",15,18,"Control2",1,2,2,0,1378,60
"2525",15,11,"Control2",1,2,4,0,846,61
"2526",15,56,"Control2",1,2,3,0,656,62
"2527",15,160,"Control2",1,2,2,1,1861,63
"2528",15,14,"Control2",1,2,5,0,718,64
"2529",15,29,"Control2",1,2,5,0,856,65
"2530",15,44,"Control2",1,2,4,0,1077,66
"2531",15,50,"Control2",1,2,4,0,695,67
"2532",15,162,"Control2",1,2,4,1,1044,68
"2533",15,27,"Control2",1,2,2,0,2079,69
"2534",15,152,"Control2",1,2,5,1,5072,70
"2535",15,3,"Control2",1,2,2,0,859,71
"2536",15,60,"Control2",1,2,5,0,776,72
"2537",15,138,"Control2",1,2,4,1,2853,73
"2538",15,158,"Control2",1,2,6,1,1352,74
"2539",15,136,"Control2",1,2,4,1,6967,75
"2540",15,148,"Control2",1,2,3,1,596,76
"2541",15,46,"Control2",1,2,2,0,758,77
"2542",15,87,"Control2",1,2,5,0,704,78
"2543",15,173,"Control2",1,2,5,1,648,79
